"rt","responses","trial_type","trial_index","time_elapsed","internal_node_id","participant_id","stimulus","key_press","button_pressed","stim_onset","sequence_position","distractor_position","target_lag","distractor_type","target_orientation","phase","correct"
"891625.4000000044","{""Q0"":""24""}","survey-text","0","891627","0.0-0.0","24","","","","","","","","","","",""
"615478.3000000025","","html-keyboard-response","1","1507118","0.0-1.0","24","Welcome to the experiment.","67","","","","","","","","",""
"21818.800000008196","","html-button-response","2","1528940","0.0-2.0","24","<p>Several images will be presented sequentially.        Each image will only be on the screen for about 100 milliseconds.</p>        <p> One of the images may be rotated 90 degrees right or left.        Watch for this image and remember if it is rotated right or left.</p>               <p>Images of people and animals will appear, and sometimes they will be unpleasant.        These will never be the rotated target image.</p>","","0","","","","","","","",""
"3158.100000000559","","html-button-response","3","1532100","0.0-3.0","24","<p><img class=""stimulus left-rotate"" src=""images/target/1937-single-tree-at-the-top-of-stone-mountain-pv.jpg""></img></p><p>This is an example of an image rotated to the left.</p>","","0","","","","","","","",""
"2846.799999999348","","html-button-response","4","1534948","0.0-4.0","24","<p><img class=""stimulus"" src=""images/target/tree spring.jpeg""></img></p><p>This is an example of an image rotated to the right.</p>","","0","","","","","","","",""
"13967.10000000894","","html-button-response","5","1548916","0.0-5.0","24","<p>We will now begin a short practice session.</p>         <p>A + symbol will appear in the middle of the screen. Please fix your gaze on the center of the +, and then click the mouse button to begin the image sequence.</p>         <p>Please avoid blinking or eye movements while the images are on the screen.</p>        <p>The image sequence will start relatively slow. After a few sequences, it will speed up.</p>","","0","","","","","","","",""
"4214.700000011362","","html-button-response","6","1553125","0.0-6.0-0.0","24","","","0","","","","","","","",""
"null","","html-keyboard-response","7","1553299","0.0-6.0-1.0","24","<p><img class= 'stimulus' src='images/baseline/05158v.jpg'></img></p>","null","","1550608886231","","","","","","",""
"null","","html-keyboard-response","8","1553501","0.0-6.0-2.0","24","<p><img class= 'stimulus' src='images/baseline/pexels-photo-221125.jpeg'></img></p>","null","","1550608886432","","","","","","",""
"null","","html-keyboard-response","9","1553701","0.0-6.0-3.0","24","<p><img class= 'stimulus' src='images/baseline/05242v.jpg'></img></p>","null","","1550608886632","","","","","","",""
"null","","html-keyboard-response","10","1553900","0.0-6.0-4.0","24","<p><img class= 'stimulus' src='images/baseline/Street 5.jpg'></img></p>","null","","1550608886832","4","","","","","",""
"null","","html-keyboard-response","11","1554101","0.0-6.0-5.0","24","<p><img class= 'stimulus' src='images/baseline/05264v.jpg'></img></p>","null","","1550608887032","","","","","","",""
"null","","html-keyboard-response","12","1554301","0.0-6.0-6.0","24","<p><img class= 'stimulus' src='images/baseline/04284v.jpg'></img></p>","null","","1550608887232","6","","","","","",""
"null","","html-keyboard-response","13","1554502","0.0-6.0-7.0","24","<p><img class= 'stimulus' src='images/baseline/meadow-with-mountain-in-background.jpg'></img></p>","null","","1550608887432","","","","","","",""
"null","","html-keyboard-response","14","1554700","0.0-6.0-8.0","24","<p><img class= 'stimulus' src='images/baseline/pexels-photo-534164.jpeg'></img></p>","null","","1550608887633","8","","","","","",""
"null","","html-keyboard-response","15","1554900","0.0-6.0-9.0","24","<p><img class= 'stimulus' src='images/baseline/04300v.jpg'></img></p>","null","","1550608887833","","","","","","",""
"null","","html-keyboard-response","16","1555100","0.0-6.0-10.0","24","<p><img class= 'stimulus' src='images/baseline/03148v.jpg'></img></p>","null","","1550608888032","","","","","","",""
"null","","html-keyboard-response","17","1555301","0.0-6.0-11.0","24","<p><img class= 'stimulus' src='images/baseline/house1.jpg'></img></p>","null","","1550608888232","","","","","","",""
"null","","html-keyboard-response","18","1555500","0.0-6.0-12.0","24","<p><img class= 'stimulus' src='images/baseline/field 2.jpg'></img></p>","null","","1550608888433","12","","","","","",""
"null","","html-keyboard-response","19","1555701","0.0-6.0-13.0","24","<p><img class= 'stimulus' src='images/baseline/4k-wallpaper-agriculture-clouds-842711.jpg'></img></p>","null","","1550608888632","","","","","","",""
"null","","html-keyboard-response","20","1555900","0.0-6.0-14.0","24","<p><img class= 'stimulus' src='images/target/building5.jpg'></img></p>","null","","1550608888833","14","","","","","",""
"null","","html-keyboard-response","21","1556101","0.0-6.0-15.0","24","<p><img class= 'stimulus' src='images/baseline/house11.jpg'></img></p>","null","","1550608889033","","","","","","",""
"null","","html-keyboard-response","22","1556301","0.0-6.0-16.0","24","<p><img class= 'stimulus' src='images/baseline/pexels-photo-259280.jpeg'></img></p>","null","","1550608889234","","","","","","",""
"null","","html-keyboard-response","23","1556518","0.0-6.0-17.0","24","<p><img class= 'stimulus' src='images/baseline/Street 3.jpg'></img></p>","null","","1550608889434","","","","","","",""
"18996.10000000382","","html-button-response","24","1576518","0.0-6.0-18.0","24","<div class = ""response_question"">WAS THE IMAGE ROTATED...</div>","","2","","","6","8","bas","right","practice","false"
"3701.1999999957625","","html-button-response","25","1580222","0.0-6.0-0.1","24","","","0","","","","","","","",""
"null","","html-keyboard-response","26","1580400","0.0-6.0-1.1","24","<p><img class= 'stimulus' src='images/baseline/landscape35.jpg'></img></p>","null","","1550608913333","","","","","","",""
"null","","html-keyboard-response","27","1580600","0.0-6.0-2.1","24","<p><img class= 'stimulus' src='images/baseline/sunset-over-the-lake.jpg'></img></p>","null","","1550608913532","","","","","","",""
"null","","html-keyboard-response","28","1580800","0.0-6.0-3.1","24","<p><img class= 'stimulus' src='images/baseline/red rocks from afar.jpg'></img></p>","null","","1550608913732","","","","","","",""
"null","","html-keyboard-response","29","1581000","0.0-6.0-4.1","24","<p><img class= 'stimulus' src='images/baseline/building8.jpg'></img></p>","null","","1550608913932","4","","","","","",""
"null","","html-keyboard-response","30","1581200","0.0-6.0-5.1","24","<p><img class= 'stimulus' src='images/baseline/Camping 10.jpg'></img></p>","null","","1550608914132","","","","","","",""
"null","","html-keyboard-response","31","1581401","0.0-6.0-6.1","24","<p><img class= 'stimulus' src='images/baseline/Sailing 3.jpg'></img></p>","null","","1550608914333","6","","","","","",""
"null","","html-keyboard-response","32","1581601","0.0-6.0-7.1","24","<p><img class= 'stimulus' src='images/baseline/building6.jpg'></img></p>","null","","1550608914534","","","","","","",""
"null","","html-keyboard-response","33","1581802","0.0-6.0-8.1","24","<p><img class= 'stimulus' src='images/target/landscape20.jpg'></img></p>","null","","1550608914734","8","","","","","",""
"null","","html-keyboard-response","34","1582001","0.0-6.0-9.1","24","<p><img class= 'stimulus' src='images/baseline/horse_statue.jpg'></img></p>","null","","1550608914934","","","","","","",""
"null","","html-keyboard-response","35","1582202","0.0-6.0-10.1","24","<p><img class= 'stimulus' src='images/baseline/landscape34.jpg'></img></p>","null","","1550608915134","","","","","","",""
"null","","html-keyboard-response","36","1582401","0.0-6.0-11.1","24","<p><img class= 'stimulus' src='images/baseline/farmhouse8.jpg'></img></p>","null","","1550608915334","","","","","","",""
"null","","html-keyboard-response","37","1582601","0.0-6.0-12.1","24","<p><img class= 'stimulus' src='images/baseline/farmhouse6.jpg'></img></p>","null","","1550608915533","12","","","","","",""
"null","","html-keyboard-response","38","1582801","0.0-6.0-13.1","24","<p><img class= 'stimulus' src='images/baseline/hiking-trail.jpg'></img></p>","null","","1550608915735","","","","","","",""
"null","","html-keyboard-response","39","1583000","0.0-6.0-14.1","24","<p><img class= 'stimulus' src='images/baseline/03204v.jpg'></img></p>","null","","1550608915933","14","","","","","",""
"null","","html-keyboard-response","40","1583201","0.0-6.0-15.1","24","<p><img class= 'stimulus' src='images/baseline/house7.jpg'></img></p>","null","","1550608916133","","","","","","",""
"null","","html-keyboard-response","41","1583401","0.0-6.0-16.1","24","<p><img class= 'stimulus' src='images/baseline/trees 23.jpg'></img></p>","null","","1550608916333","","","","","","",""
"null","","html-keyboard-response","42","1583617","0.0-6.0-17.1","24","<p><img class= 'stimulus' src='images/baseline/04222v.jpg'></img></p>","null","","1550608916533","","","","","","",""
"1418.7000000092667","","html-button-response","43","1586054","0.0-6.0-18.1","24","<div class = ""response_question"">WAS THE IMAGE ROTATED...</div>","","3","","","6","2","bas","right","practice","true"
"2374.00000001071","","html-button-response","44","1588429","0.0-6.0-0.2","24","","","0","","","","","","","",""
"null","","html-keyboard-response","45","1588617","0.0-6.0-1.2","24","<p><img class= 'stimulus' src='images/baseline/pexels-photo-440731.jpeg'></img></p>","null","","1550608921549","","","","","","",""
"null","","html-keyboard-response","46","1588816","0.0-6.0-2.2","24","<p><img class= 'stimulus' src='images/baseline/02977v.jpg'></img></p>","null","","1550608921750","","","","","","",""
"null","","html-keyboard-response","47","1589017","0.0-6.0-3.2","24","<p><img class= 'stimulus' src='images/baseline/03075v.jpg'></img></p>","null","","1550608921950","","","","","","",""
"null","","html-keyboard-response","48","1589217","0.0-6.0-4.2","24","<p><img class= 'stimulus' src='images/baseline/river 1.jpg'></img></p>","null","","1550608922150","4","","","","","",""
"null","","html-keyboard-response","49","1589417","0.0-6.0-5.2","24","<p><img class= 'stimulus' src='images/baseline/architecture-956332_1280.jpg'></img></p>","null","","1550608922349","","","","","","",""
"null","","html-keyboard-response","50","1589617","0.0-6.0-6.2","24","<p><img class= 'stimulus' src='images/baseline/lookout_tower.jpg'></img></p>","null","","1550608922549","6","","","","","",""
"null","","html-keyboard-response","51","1589817","0.0-6.0-7.2","24","<p><img class= 'stimulus' src='images/baseline/Nature 1.jpg'></img></p>","null","","1550608922750","","","","","","",""
"null","","html-keyboard-response","52","1590018","0.0-6.0-8.2","24","<p><img class= 'stimulus' src='images/baseline/05198v.jpg'></img></p>","null","","1550608922951","8","","","","","",""
"null","","html-keyboard-response","53","1590218","0.0-6.0-9.2","24","<p><img class= 'stimulus' src='images/baseline/04162v.jpg'></img></p>","null","","1550608923152","","","","","","",""
"null","","html-keyboard-response","54","1590418","0.0-6.0-10.2","24","<p><img class= 'stimulus' src='images/baseline/landscape11.jpg'></img></p>","null","","1550608923350","","","","","","",""
"null","","html-keyboard-response","55","1590620","0.0-6.0-11.2","24","<p><img class= 'stimulus' src='images/baseline/pexels-photo-808465.jpeg'></img></p>","null","","1550608923552","","","","","","",""
"null","","html-keyboard-response","56","1590819","0.0-6.0-12.2","24","<p><img class= 'stimulus' src='images/baseline/cranes 1.jpg'></img></p>","null","","1550608923753","12","","","","","",""
"null","","html-keyboard-response","57","1591019","0.0-6.0-13.2","24","<p><img class= 'stimulus' src='images/baseline/05240v.jpg'></img></p>","null","","1550608923951","","","","","","",""
"null","","html-keyboard-response","58","1591219","0.0-6.0-14.2","24","<p><img class= 'stimulus left-rotate' src='images/target/sand-3339890_640.jpg'></img></p>","null","","1550608924150","14","","","","","",""
"null","","html-keyboard-response","59","1591419","0.0-6.0-15.2","24","<p><img class= 'stimulus' src='images/baseline/landscape3.jpg'></img></p>","null","","1550608924352","","","","","","",""
"null","","html-keyboard-response","60","1591618","0.0-6.0-16.2","24","<p><img class= 'stimulus' src='images/baseline/foreclosed_home.jpg'></img></p>","null","","1550608924551","","","","","","",""
"null","","html-keyboard-response","61","1591835","0.0-6.0-17.2","24","<p><img class= 'stimulus' src='images/baseline/seoul-410266_1920.jpg'></img></p>","null","","1550608924752","","","","","","",""
"1746.899999998277","","html-button-response","62","1594597","0.0-6.0-18.2","24","<div class = ""response_question"">WAS THE IMAGE ROTATED...</div>","","0","","","6","8","bas","left","practice","true"
"3358.3999999975786","","html-button-response","63","1597957","0.0-6.0-0.3","24","","","0","","","","","","","",""
"null","","html-keyboard-response","64","1598134","0.0-6.0-1.3","24","<p><img class= 'stimulus' src='images/baseline/05139v.jpg'></img></p>","null","","1550608931066","","","","","","",""
"null","","html-keyboard-response","65","1598334","0.0-6.0-2.3","24","<p><img class= 'stimulus' src='images/baseline/04196v.jpg'></img></p>","null","","1550608931267","","","","","","",""
"null","","html-keyboard-response","66","1598535","0.0-6.0-3.3","24","<p><img class= 'stimulus' src='images/baseline/pexels-photo-1261728.jpeg'></img></p>","null","","1550608931466","","","","","","",""
"null","","html-keyboard-response","67","1598734","0.0-6.0-4.3","24","<p><img class= 'stimulus' src='images/baseline/building12.jpg'></img></p>","null","","1550608931666","4","","","","","",""
"null","","html-keyboard-response","68","1598934","0.0-6.0-5.3","24","<p><img class= 'stimulus' src='images/baseline/04201v.jpg'></img></p>","null","","1550608931866","","","","","","",""
"null","","html-keyboard-response","69","1599133","0.0-6.0-6.3","24","<p><img class= 'stimulus' src='images/baseline/hills 3.jpg'></img></p>","null","","1550608932067","6","","","","","",""
"null","","html-keyboard-response","70","1599333","0.0-6.0-7.3","24","<p><img class= 'stimulus' src='images/baseline/Desert_View_Indian_Wells.jpg'></img></p>","null","","1550608932267","","","","","","",""
"null","","html-keyboard-response","71","1599534","0.0-6.0-8.3","24","<p><img class= 'stimulus left-rotate' src='images/target/lookout_tower.jpg'></img></p>","null","","1550608932465","8","","","","","",""
"null","","html-keyboard-response","72","1599734","0.0-6.0-9.3","24","<p><img class= 'stimulus' src='images/baseline/Beach 2.jpg'></img></p>","null","","1550608932666","","","","","","",""
"null","","html-keyboard-response","73","1599934","0.0-6.0-10.3","24","<p><img class= 'stimulus' src='images/baseline/pexels-photo-210617.jpeg'></img></p>","null","","1550608932867","","","","","","",""
"null","","html-keyboard-response","74","1600134","0.0-6.0-11.3","24","<p><img class= 'stimulus' src='images/baseline/03220v.jpg'></img></p>","null","","1550608933066","","","","","","",""
"null","","html-keyboard-response","75","1600333","0.0-6.0-12.3","24","<p><img class= 'stimulus' src='images/baseline/landscape37.jpg'></img></p>","null","","1550608933266","12","","","","","",""
"null","","html-keyboard-response","76","1600533","0.0-6.0-13.3","24","<p><img class= 'stimulus' src='images/baseline/04117v.jpg'></img></p>","null","","1550608933465","","","","","","",""
"null","","html-keyboard-response","77","1600733","0.0-6.0-14.3","24","<p><img class= 'stimulus' src='images/baseline/Skyscraper 2.jpg'></img></p>","null","","1550608933665","14","","","","","",""
"null","","html-keyboard-response","78","1600933","0.0-6.0-15.3","24","<p><img class= 'stimulus' src='images/baseline/Linden,_paysage.jpg'></img></p>","null","","1550608933866","","","","","","",""
"null","","html-keyboard-response","79","1601134","0.0-6.0-16.3","24","<p><img class= 'stimulus' src='images/baseline/04031v.jpg'></img></p>","null","","1550608934066","","","","","","",""
"null","","html-keyboard-response","80","1601350","0.0-6.0-17.3","24","<p><img class= 'stimulus' src='images/baseline/road 1(1).jpg'></img></p>","null","","1550608934266","","","","","","",""
"1394.800000009127","","html-button-response","81","1603750","0.0-6.0-18.3","24","<div class = ""response_question"">WAS THE IMAGE ROTATED...</div>","","0","","","6","2","bas","left","practice","true"
"1670.4000000027008","","html-button-response","82","1605421","0.0-6.0-0.4","24","","","0","","","","","","","",""
"null","","html-keyboard-response","83","1605551","0.0-6.0-1.4","24","<p><img class= 'stimulus' src='images/baseline/house2.jpg'></img></p>","null","","1550608938532","","","","","","",""
"null","","html-keyboard-response","84","1605700","0.0-6.0-2.4","24","<p><img class= 'stimulus' src='images/baseline/05167v.jpg'></img></p>","null","","1550608938683","","","","","","",""
"null","","html-keyboard-response","85","1605850","0.0-6.0-3.4","24","<p><img class= 'stimulus' src='images/baseline/Bahia_Onelli_Parque_Nacional_Los_Glaciares_Patagonia_Argentina_Luca_Galuzzi_2005.jpg'></img></p>","null","","1550608938833","","","","","","",""
"null","","html-keyboard-response","86","1606000","0.0-6.0-4.4","24","<p><img class= 'stimulus' src='images/baseline/99_-_Machu_Picchu_-_Juin_2009.edit3.jpg'></img></p>","null","","1550608938983","4","","","","","",""
"null","","html-keyboard-response","87","1606150","0.0-6.0-5.4","24","<p><img class= 'stimulus' src='images/baseline/03114v.jpg'></img></p>","null","","1550608939133","","","","","","",""
"null","","html-keyboard-response","88","1606300","0.0-6.0-6.4","24","<p><img class= 'stimulus' src='images/baseline/03063v.jpg'></img></p>","null","","1550608939283","6","","","","","",""
"null","","html-keyboard-response","89","1606450","0.0-6.0-7.4","24","<p><img class= 'stimulus' src='images/baseline/lake3.jpg'></img></p>","null","","1550608939432","","","","","","",""
"null","","html-keyboard-response","90","1606600","0.0-6.0-8.4","24","<p><img class= 'stimulus' src='images/baseline/architecture_modern_architecture_852928.jpg'></img></p>","null","","1550608939582","8","","","","","",""
"null","","html-keyboard-response","91","1606750","0.0-6.0-9.4","24","<p><img class= 'stimulus' src='images/baseline/church-silhouette-8712964986014Kb.jpg'></img></p>","null","","1550608939734","","","","","","",""
"null","","html-keyboard-response","92","1606899","0.0-6.0-10.4","24","<p><img class= 'stimulus' src='images/baseline/landscape8.jpg'></img></p>","null","","1550608939883","","","","","","",""
"null","","html-keyboard-response","93","1607049","0.0-6.0-11.4","24","<p><img class= 'stimulus' src='images/baseline/autumn-in-red-rocks-park.jpg'></img></p>","null","","1550608940032","","","","","","",""
"null","","html-keyboard-response","94","1607200","0.0-6.0-12.4","24","<p><img class= 'stimulus left-rotate' src='images/target/pexels-photo-1102846.jpeg'></img></p>","null","","1550608940181","12","","","","","",""
"null","","html-keyboard-response","95","1607350","0.0-6.0-13.4","24","<p><img class= 'stimulus' src='images/baseline/04064v.jpg'></img></p>","null","","1550608940332","","","","","","",""
"null","","html-keyboard-response","96","1607501","0.0-6.0-14.4","24","<p><img class= 'stimulus' src='images/baseline/03098v.jpg'></img></p>","null","","1550608940483","14","","","","","",""
"null","","html-keyboard-response","97","1607650","0.0-6.0-15.4","24","<p><img class= 'stimulus' src='images/baseline/architecture-1314416_1920.jpg'></img></p>","null","","1550608940633","","","","","","",""
"null","","html-keyboard-response","98","1607799","0.0-6.0-16.4","24","<p><img class= 'stimulus' src='images/baseline/05179v.jpg'></img></p>","null","","1550608940783","","","","","","",""
"null","","html-keyboard-response","99","1607966","0.0-6.0-17.4","24","<p><img class= 'stimulus' src='images/baseline/Skijump 1.jpg'></img></p>","null","","1550608940933","","","","","","",""
"2265.3999999891967","","html-button-response","100","1611237","0.0-6.0-18.4","24","<div class = ""response_question"">WAS THE IMAGE ROTATED...</div>","","1","","","4","8","bas","left","practice","true"
"966.399999990128","","html-button-response","101","1612205","0.0-6.0-0.5","24","","","0","","","","","","","",""
"null","","html-keyboard-response","102","1612335","0.0-6.0-1.5","24","<p><img class= 'stimulus' src='images/baseline/farmhouse7.jpg'></img></p>","null","","1550608945317","","","","","","",""
"null","","html-keyboard-response","103","1612484","0.0-6.0-2.5","24","<p><img class= 'stimulus' src='images/baseline/Lake 7.jpg'></img></p>","null","","1550608945467","","","","","","",""
"null","","html-keyboard-response","104","1612633","0.0-6.0-3.5","24","<p><img class= 'stimulus' src='images/baseline/Sunset 5.jpg'></img></p>","null","","1550608945616","","","","","","",""
"null","","html-keyboard-response","105","1612784","0.0-6.0-4.5","24","<p><img class= 'stimulus' src='images/baseline/pexels-photo-1287089.jpeg'></img></p>","null","","1550608945766","4","","","","","",""
"null","","html-keyboard-response","106","1612934","0.0-6.0-5.5","24","<p><img class= 'stimulus' src='images/baseline/05280v.jpg'></img></p>","null","","1550608945917","","","","","","",""
"null","","html-keyboard-response","107","1613091","0.0-6.0-6.5","24","<p><img class= 'stimulus' src='images/baseline/Happy pose 3.jpg'></img></p>","null","","1550608946066","6","","","","","",""
"null","","html-keyboard-response","108","1613241","0.0-6.0-7.5","24","<p><img class= 'stimulus' src='images/baseline/04086v.jpg'></img></p>","null","","1550608946224","","","","","","",""
"null","","html-keyboard-response","109","1613390","0.0-6.0-8.5","24","<p><img class= 'stimulus' src='images/baseline/house10.jpg'></img></p>","null","","1550608946374","8","","","","","",""
"null","","html-keyboard-response","110","1613541","0.0-6.0-9.5","24","<p><img class= 'stimulus' src='images/baseline/field 1.jpg'></img></p>","null","","1550608946523","","","","","","",""
"null","","html-keyboard-response","111","1613691","0.0-6.0-10.5","24","<p><img class= 'stimulus' src='images/baseline/Dirt 2.jpg'></img></p>","null","","1550608946674","","","","","","",""
"null","","html-keyboard-response","112","1613841","0.0-6.0-11.5","24","<p><img class= 'stimulus' src='images/baseline/kokkari-1523011968Xfr.jpg'></img></p>","null","","1550608946823","","","","","","",""
"null","","html-keyboard-response","113","1613991","0.0-6.0-12.5","24","<p><img class= 'stimulus' src='images/target/tree-740901_1280.jpg'></img></p>","null","","1550608946973","12","","","","","",""
"null","","html-keyboard-response","114","1614141","0.0-6.0-13.5","24","<p><img class= 'stimulus' src='images/baseline/pexels-photo-59321.jpeg'></img></p>","null","","1550608947123","","","","","","",""
"null","","html-keyboard-response","115","1614290","0.0-6.0-14.5","24","<p><img class= 'stimulus' src='images/baseline/05131v.jpg'></img></p>","null","","1550608947274","14","","","","","",""
"null","","html-keyboard-response","116","1614441","0.0-6.0-15.5","24","<p><img class= 'stimulus' src='images/baseline/Road 1.jpg'></img></p>","null","","1550608947423","","","","","","",""
"null","","html-keyboard-response","117","1614591","0.0-6.0-16.5","24","<p><img class= 'stimulus' src='images/baseline/Lake 4.jpg'></img></p>","null","","1550608947573","","","","","","",""
"null","","html-keyboard-response","118","1614757","0.0-6.0-17.5","24","<p><img class= 'stimulus' src='images/baseline/landscape1.jpg'></img></p>","null","","1550608947723","","","","","","",""
"610.0000000006985","","html-button-response","119","1616374","0.0-6.0-18.5","24","<div class = ""response_question"">WAS THE IMAGE ROTATED...</div>","","3","","","4","8","bas","right","practice","true"
"1574.0000000079162","","html-button-response","120","1617948","0.0-6.0-0.6","24","","","0","","","","","","","",""
"null","","html-keyboard-response","121","1618074","0.0-6.0-1.6","24","<p><img class= 'stimulus' src='images/baseline/Lake 3.jpg'></img></p>","null","","1550608951056","","","","","","",""
"null","","html-keyboard-response","122","1618224","0.0-6.0-2.6","24","<p><img class= 'stimulus' src='images/baseline/agriculture-bright-clouds-440731.jpg'></img></p>","null","","1550608951207","","","","","","",""
"null","","html-keyboard-response","123","1618374","0.0-6.0-3.6","24","<p><img class= 'stimulus' src='images/baseline/02947v.jpg'></img></p>","null","","1550608951356","","","","","","",""
"null","","html-keyboard-response","124","1618524","0.0-6.0-4.6","24","<p><img class= 'stimulus' src='images/baseline/02945v.jpg'></img></p>","null","","1550608951506","4","","","","","",""
"null","","html-keyboard-response","125","1618674","0.0-6.0-5.6","24","<p><img class= 'stimulus' src='images/baseline/03217v.jpg'></img></p>","null","","1550608951657","","","","","","",""
"null","","html-keyboard-response","126","1618824","0.0-6.0-6.6","24","<p><img class= 'stimulus' src='images/target/tree.jpeg'></img></p>","null","","1550608951806","6","","","","","",""
"null","","html-keyboard-response","127","1618973","0.0-6.0-7.6","24","<p><img class= 'stimulus' src='images/baseline/landscape40.jpg'></img></p>","null","","1550608951958","","","","","","",""
"null","","html-keyboard-response","128","1619125","0.0-6.0-8.6","24","<p><img class= 'stimulus' src='images/baseline/landscape38.jpg'></img></p>","null","","1550608952106","8","","","","","",""
"null","","html-keyboard-response","129","1619274","0.0-6.0-9.6","24","<p><img class= 'stimulus' src='images/baseline/pexels-photo-1840893.jpeg'></img></p>","null","","1550608952257","","","","","","",""
"null","","html-keyboard-response","130","1619424","0.0-6.0-10.6","24","<p><img class= 'stimulus' src='images/baseline/pexels-photo-894312.jpeg'></img></p>","null","","1550608952406","","","","","","",""
"null","","html-keyboard-response","131","1619574","0.0-6.0-11.6","24","<p><img class= 'stimulus' src='images/baseline/valley 1.jpg'></img></p>","null","","1550608952556","","","","","","",""
"null","","html-keyboard-response","132","1619724","0.0-6.0-12.6","24","<p><img class= 'stimulus' src='images/baseline/house3.jpg'></img></p>","null","","1550608952707","12","","","","","",""
"null","","html-keyboard-response","133","1619874","0.0-6.0-13.6","24","<p><img class= 'stimulus' src='images/baseline/04130v.jpg'></img></p>","null","","1550608952856","","","","","","",""
"null","","html-keyboard-response","134","1620024","0.0-6.0-14.6","24","<p><img class= 'stimulus' src='images/baseline/Sky 1.jpg'></img></p>","null","","1550608953007","14","","","","","",""
"null","","html-keyboard-response","135","1620173","0.0-6.0-15.6","24","<p><img class= 'stimulus' src='images/baseline/landscape17.jpg'></img></p>","null","","1550608953157","","","","","","",""
"null","","html-keyboard-response","136","1620324","0.0-6.0-16.6","24","<p><img class= 'stimulus' src='images/baseline/Lake 14.jpg'></img></p>","null","","1550608953307","","","","","","",""
"null","","html-keyboard-response","137","1620491","0.0-6.0-17.6","24","<p><img class= 'stimulus' src='images/baseline/hills 1.jpg'></img></p>","null","","1550608953456","","","","","","",""
"1015.0999999898486","","html-button-response","138","1622509","0.0-6.0-18.6","24","<div class = ""response_question"">WAS THE IMAGE ROTATED...</div>","","3","","","4","2","bas","right","practice","true"
"1150.3999999987427","","html-button-response","139","1623661","0.0-6.0-0.7","24","","","0","","","","","","","",""
"null","","html-keyboard-response","140","1623790","0.0-6.0-1.7","24","<p><img class= 'stimulus' src='images/baseline/pexels-photo-414491.jpeg'></img></p>","null","","1550608956773","","","","","","",""
"null","","html-keyboard-response","141","1623941","0.0-6.0-2.7","24","<p><img class= 'stimulus' src='images/baseline/landscape22.jpg'></img></p>","null","","1550608956923","","","","","","",""
"null","","html-keyboard-response","142","1624091","0.0-6.0-3.7","24","<p><img class= 'stimulus' src='images/baseline/Waterfall 1.jpg'></img></p>","null","","1550608957073","","","","","","",""
"null","","html-keyboard-response","143","1624240","0.0-6.0-4.7","24","<p><img class= 'stimulus' src='images/baseline/sunny-landscape-with-dry-brush-and-mountain-background.jpg'></img></p>","null","","1550608957222","4","","","","","",""
"null","","html-keyboard-response","144","1624390","0.0-6.0-5.7","24","<p><img class= 'stimulus' src='images/baseline/road.jpg'></img></p>","null","","1550608957373","","","","","","",""
"null","","html-keyboard-response","145","1624540","0.0-6.0-6.7","24","<p><img class= 'stimulus left-rotate' src='images/target/landscape_1.jpg'></img></p>","null","","1550608957523","6","","","","","",""
"null","","html-keyboard-response","146","1624691","0.0-6.0-7.7","24","<p><img class= 'stimulus' src='images/baseline/farmhouse1.jpg'></img></p>","null","","1550608957672","","","","","","",""
"null","","html-keyboard-response","147","1624841","0.0-6.0-8.7","24","<p><img class= 'stimulus' src='images/baseline/03045v.jpg'></img></p>","null","","1550608957823","8","","","","","",""
"null","","html-keyboard-response","148","1624991","0.0-6.0-9.7","24","<p><img class= 'stimulus' src='images/baseline/05186v.jpg'></img></p>","null","","1550608957973","","","","","","",""
"null","","html-keyboard-response","149","1625140","0.0-6.0-10.7","24","<p><img class= 'stimulus' src='images/baseline/04158v.jpg'></img></p>","null","","1550608958123","","","","","","",""
"null","","html-keyboard-response","150","1625290","0.0-6.0-11.7","24","<p><img class= 'stimulus' src='images/baseline/Street 4.jpg'></img></p>","null","","1550608958274","","","","","","",""
"null","","html-keyboard-response","151","1625440","0.0-6.0-12.7","24","<p><img class= 'stimulus' src='images/baseline/05252v.jpg'></img></p>","null","","1550608958423","12","","","","","",""
"null","","html-keyboard-response","152","1625590","0.0-6.0-13.7","24","<p><img class= 'stimulus' src='images/baseline/Lake 13.jpg'></img></p>","null","","1550608958573","","","","","","",""
"null","","html-keyboard-response","153","1625741","0.0-6.0-14.7","24","<p><img class= 'stimulus' src='images/baseline/scenic-mountain-landscape.jpg'></img></p>","null","","1550608958722","14","","","","","",""
"null","","html-keyboard-response","154","1625890","0.0-6.0-15.7","24","<p><img class= 'stimulus' src='images/baseline/house6.jpg'></img></p>","null","","1550608958873","","","","","","",""
"null","","html-keyboard-response","155","1626040","0.0-6.0-16.7","24","<p><img class= 'stimulus' src='images/baseline/landscape15.jpg'></img></p>","null","","1550608959023","","","","","","",""
"null","","html-keyboard-response","156","1626207","0.0-6.0-17.7","24","<p><img class= 'stimulus' src='images/baseline/04021v.jpg'></img></p>","null","","1550608959173","","","","","","",""
"1568.2999999988824","","html-button-response","157","1628781","0.0-6.0-18.7","24","<div class = ""response_question"">WAS THE IMAGE ROTATED...</div>","","0","","","4","2","bas","left","practice","true"
"1198.499999998603","","html-button-response","158","1629980","0.0-6.0-0.8","24","","","0","","","","","","","",""
"null","","html-keyboard-response","159","1630057","0.0-6.0-1.8","24","<p><img class= 'stimulus' src='images/baseline/farmhouse11.jpg'></img></p>","null","","1550608963090","","","","","","",""
"null","","html-keyboard-response","160","1630157","0.0-6.0-2.8","24","<p><img class= 'stimulus' src='images/baseline/02982v.jpg'></img></p>","null","","1550608963190","","","","","","",""
"null","","html-keyboard-response","161","1630257","0.0-6.0-3.8","24","<p><img class= 'stimulus' src='images/baseline/Niinsaare_jarv.jpg'></img></p>","null","","1550608963290","","","","","","",""
"null","","html-keyboard-response","162","1630358","0.0-6.0-4.8","24","<p><img class= 'stimulus' src='images/baseline/landscape33.jpg'></img></p>","null","","1550608963391","4","","","","","",""
"null","","html-keyboard-response","163","1630458","0.0-6.0-5.8","24","<p><img class= 'stimulus' src='images/baseline/farmhouse9.jpg'></img></p>","null","","1550608963489","","","","","","",""
"null","","html-keyboard-response","164","1630557","0.0-6.0-6.8","24","<p><img class= 'stimulus' src='images/baseline/tennis-court-net-buried-in-snow.jpg'></img></p>","null","","1550608963589","6","","","","","",""
"null","","html-keyboard-response","165","1630657","0.0-6.0-7.8","24","<p><img class= 'stimulus' src='images/baseline/lone-old-cottonwood-tree.jpg'></img></p>","null","","1550608963689","","","","","","",""
"null","","html-keyboard-response","166","1630759","0.0-6.0-8.8","24","<p><img class= 'stimulus' src='images/baseline/pexels-photo-568236.jpeg'></img></p>","null","","1550608963790","8","","","","","",""
"null","","html-keyboard-response","167","1630858","0.0-6.0-9.8","24","<p><img class= 'stimulus' src='images/baseline/04010v.jpg'></img></p>","null","","1550608963890","","","","","","",""
"null","","html-keyboard-response","168","1630957","0.0-6.0-10.8","24","<p><img class= 'stimulus' src='images/baseline/Lake 5.jpg'></img></p>","null","","1550608963991","","","","","","",""
"null","","html-keyboard-response","169","1631057","0.0-6.0-11.8","24","<p><img class= 'stimulus' src='images/baseline/Sidewalk 4.jpg'></img></p>","null","","1550608964091","","","","","","",""
"null","","html-keyboard-response","170","1631158","0.0-6.0-12.8","24","<p><img class= 'stimulus' src='images/baseline/dirt-road-or-trail-through-park.jpg'></img></p>","null","","1550608964190","12","","","","","",""
"null","","html-keyboard-response","171","1631257","0.0-6.0-13.8","24","<p><img class= 'stimulus' src='images/baseline/bird-flying-at-sunset.jpg'></img></p>","null","","1550608964290","","","","","","",""
"null","","html-keyboard-response","172","1631357","0.0-6.0-14.8","24","<p><img class= 'stimulus left-rotate' src='images/target/building17.jpg'></img></p>","null","","1550608964389","14","","","","","",""
"null","","html-keyboard-response","173","1631457","0.0-6.0-15.8","24","<p><img class= 'stimulus' src='images/baseline/Paysage_enneige_02.jpg'></img></p>","null","","1550608964489","","","","","","",""
"null","","html-keyboard-response","174","1631557","0.0-6.0-16.8","24","<p><img class= 'stimulus' src='images/baseline/05255v.jpg'></img></p>","null","","1550608964589","","","","","","",""
"null","","html-keyboard-response","175","1631673","0.0-6.0-17.8","24","<p><img class= 'stimulus' src='images/baseline/Beach 3.jpg'></img></p>","null","","1550608964690","","","","","","",""
"909.5000000088476","","html-button-response","176","1633588","0.0-6.0-18.8","24","<div class = ""response_question"">WAS THE IMAGE ROTATED...</div>","","0","","","6","8","bas","left","practice","true"
"1398.0000000009313","","html-button-response","177","1634989","0.0-6.0-0.9","24","","","0","","","","","","","",""
"null","","html-keyboard-response","178","1635074","0.0-6.0-1.9","24","<p><img class= 'stimulus' src='images/baseline/field 3.jpg'></img></p>","null","","1550608968106","","","","","","",""
"null","","html-keyboard-response","179","1635174","0.0-6.0-2.9","24","<p><img class= 'stimulus' src='images/baseline/02962v.jpg'></img></p>","null","","1550608968207","","","","","","",""
"null","","html-keyboard-response","180","1635274","0.0-6.0-3.9","24","<p><img class= 'stimulus' src='images/baseline/lake 2.jpg'></img></p>","null","","1550608968306","","","","","","",""
"null","","html-keyboard-response","181","1635375","0.0-6.0-4.9","24","<p><img class= 'stimulus' src='images/baseline/landscape36.jpg'></img></p>","null","","1550608968407","4","","","","","",""
"null","","html-keyboard-response","182","1635474","0.0-6.0-5.9","24","<p><img class= 'stimulus' src='images/baseline/03112v.jpg'></img></p>","null","","1550608968506","","","","","","",""
"null","","html-keyboard-response","183","1635574","0.0-6.0-6.9","24","<p><img class= 'stimulus' src='images/target/dreifaltigkeitskirche_sandhausen_837699.jpg'></img></p>","null","","1550608968607","6","","","","","",""
"null","","html-keyboard-response","184","1635674","0.0-6.0-7.9","24","<p><img class= 'stimulus' src='images/baseline/flooded-bridge.jpg'></img></p>","null","","1550608968707","","","","","","",""
"null","","html-keyboard-response","185","1635775","0.0-6.0-8.9","24","<p><img class= 'stimulus' src='images/baseline/pexels-photo-1048039.jpeg'></img></p>","null","","1550608968807","8","","","","","",""
"null","","html-keyboard-response","186","1635873","0.0-6.0-9.9","24","<p><img class= 'stimulus' src='images/baseline/pexels-photo-541101.jpeg'></img></p>","null","","1550608968908","","","","","","",""
"null","","html-keyboard-response","187","1635974","0.0-6.0-10.9","24","<p><img class= 'stimulus' src='images/baseline/pexels-photo-351264.jpeg'></img></p>","null","","1550608969007","","","","","","",""
"null","","html-keyboard-response","188","1636074","0.0-6.0-11.9","24","<p><img class= 'stimulus' src='images/baseline/autumn-landscape-with-lake-fall-trees-mountains.jpg'></img></p>","null","","1550608969106","","","","","","",""
"null","","html-keyboard-response","189","1636174","0.0-6.0-12.9","24","<p><img class= 'stimulus' src='images/baseline/building4.jpg'></img></p>","null","","1550608969206","12","","","","","",""
"null","","html-keyboard-response","190","1636274","0.0-6.0-13.9","24","<p><img class= 'stimulus' src='images/baseline/pexels-photo-459203.jpeg'></img></p>","null","","1550608969307","","","","","","",""
"null","","html-keyboard-response","191","1636374","0.0-6.0-14.9","24","<p><img class= 'stimulus' src='images/baseline/house8.jpg'></img></p>","null","","1550608969407","14","","","","","",""
"null","","html-keyboard-response","192","1636474","0.0-6.0-15.9","24","<p><img class= 'stimulus' src='images/baseline/Sunset 3.jpg'></img></p>","null","","1550608969506","","","","","","",""
"null","","html-keyboard-response","193","1636574","0.0-6.0-16.9","24","<p><img class= 'stimulus' src='images/baseline/05279v.jpg'></img></p>","null","","1550608969606","","","","","","",""
"null","","html-keyboard-response","194","1636690","0.0-6.0-17.9","24","<p><img class= 'stimulus' src='images/baseline/landscape19.jpg'></img></p>","null","","1550608969707","","","","","","",""
"591.70000000461","","html-button-response","195","1638285","0.0-6.0-18.9","24","<div class = ""response_question"">WAS THE IMAGE ROTATED...</div>","","4","","","4","2","bas","right","practice","true"
"2182.3000000005122","","html-button-response","196","1640469","0.0-6.0-0.10","24","","","0","","","","","","","",""
"null","","html-keyboard-response","197","1640541","0.0-6.0-1.10","24","<p><img class= 'stimulus' src='images/baseline/city-silhouette-at-sunset-871291580819Esw.jpg'></img></p>","null","","1550608973573","","","","","","",""
"null","","html-keyboard-response","198","1640641","0.0-6.0-2.10","24","<p><img class= 'stimulus' src='images/baseline/Sunset 4.jpg'></img></p>","null","","1550608973673","","","","","","",""
"null","","html-keyboard-response","199","1640741","0.0-6.0-3.10","24","<p><img class= 'stimulus' src='images/baseline/Nature 2.jpg'></img></p>","null","","1550608973773","","","","","","",""
"null","","html-keyboard-response","200","1640842","0.0-6.0-4.10","24","<p><img class= 'stimulus' src='images/baseline/Lake 8.jpg'></img></p>","null","","1550608973873","4","","","","","",""
"null","","html-keyboard-response","201","1640940","0.0-6.0-5.10","24","<p><img class= 'stimulus' src='images/baseline/03162v.jpg'></img></p>","null","","1550608973974","","","","","","",""
"null","","html-keyboard-response","202","1641041","0.0-6.0-6.10","24","<p><img class= 'stimulus' src='images/baseline/pexels-photo-1837621.jpeg'></img></p>","null","","1550608974073","6","","","","","",""
"null","","html-keyboard-response","203","1641140","0.0-6.0-7.10","24","<p><img class= 'stimulus' src='images/baseline/Bridge 1.jpg'></img></p>","null","","1550608974174","","","","","","",""
"null","","html-keyboard-response","204","1641241","0.0-6.0-8.10","24","<p><img class= 'stimulus' src='images/baseline/Aletschgletscher-Eggishorn.jpg'></img></p>","null","","1550608974274","8","","","","","",""
"null","","html-keyboard-response","205","1641340","0.0-6.0-9.10","24","<p><img class= 'stimulus' src='images/baseline/landscape2.jpg'></img></p>","null","","1550608974373","","","","","","",""
"null","","html-keyboard-response","206","1641440","0.0-6.0-10.10","24","<p><img class= 'stimulus' src='images/baseline/landscape7.jpg'></img></p>","null","","1550608974473","","","","","","",""
"null","","html-keyboard-response","207","1641542","0.0-6.0-11.10","24","<p><img class= 'stimulus' src='images/baseline/04040v.jpg'></img></p>","null","","1550608974572","","","","","","",""
"null","","html-keyboard-response","208","1641641","0.0-6.0-12.10","24","<p><img class= 'stimulus' src='images/target/buildin.png'></img></p>","null","","1550608974673","12","","","","","",""
"null","","html-keyboard-response","209","1641741","0.0-6.0-13.10","24","<p><img class= 'stimulus' src='images/baseline/field 4.jpg'></img></p>","null","","1550608974772","","","","","","",""
"null","","html-keyboard-response","210","1641841","0.0-6.0-14.10","24","<p><img class= 'stimulus' src='images/baseline/farmhouse3.jpg'></img></p>","null","","1550608974873","14","","","","","",""
"null","","html-keyboard-response","211","1641941","0.0-6.0-15.10","24","<p><img class= 'stimulus' src='images/baseline/lake 1.jpg'></img></p>","null","","1550608974973","","","","","","",""
"null","","html-keyboard-response","212","1642040","0.0-6.0-16.10","24","<p><img class= 'stimulus' src='images/baseline/Dock 1.jpg'></img></p>","null","","1550608975074","","","","","","",""
"null","","html-keyboard-response","213","1642158","0.0-6.0-17.10","24","<p><img class= 'stimulus' src='images/baseline/02971v.jpg'></img></p>","null","","1550608975173","","","","","","",""
"1946.2999999958556","","html-button-response","214","1645109","0.0-6.0-18.10","24","<div class = ""response_question"">WAS THE IMAGE ROTATED...</div>","","4","","","4","8","bas","right","practice","true"
"1094.2999999970198","","html-button-response","215","1646204","0.0-6.0-0.11","24","","","0","","","","","","","",""
"null","","html-keyboard-response","216","1646291","0.0-6.0-1.11","24","<p><img class= 'stimulus' src='images/baseline/landscape39.jpg'></img></p>","null","","1550608979323","","","","","","",""
"null","","html-keyboard-response","217","1646390","0.0-6.0-2.11","24","<p><img class= 'stimulus' src='images/baseline/03212v.jpg'></img></p>","null","","1550608979423","","","","","","",""
"null","","html-keyboard-response","218","1646490","0.0-6.0-3.11","24","<p><img class= 'stimulus' src='images/baseline/04193v.jpg'></img></p>","null","","1550608979523","","","","","","",""
"null","","html-keyboard-response","219","1646591","0.0-6.0-4.11","24","<p><img class= 'stimulus' src='images/baseline/building9.jpg'></img></p>","null","","1550608979623","4","","","","","",""
"null","","html-keyboard-response","220","1646691","0.0-6.0-5.11","24","<p><img class= 'stimulus' src='images/baseline/cyrillic.jpg'></img></p>","null","","1550608979723","","","","","","",""
"null","","html-keyboard-response","221","1646790","0.0-6.0-6.11","24","<p><img class= 'stimulus' src='images/baseline/05189v.jpg'></img></p>","null","","1550608979823","6","","","","","",""
"null","","html-keyboard-response","222","1646890","0.0-6.0-7.11","24","<p><img class= 'stimulus' src='images/baseline/landscape6.jpg'></img></p>","null","","1550608979923","","","","","","",""
"null","","html-keyboard-response","223","1646990","0.0-6.0-8.11","24","<p><img class= 'stimulus left-rotate' src='images/target/tree-in-desert-landscape.jpg'></img></p>","null","","1550608980023","8","","","","","",""
"null","","html-keyboard-response","224","1647092","0.0-6.0-9.11","24","<p><img class= 'stimulus' src='images/baseline/Street 2.jpg'></img></p>","null","","1550608980123","","","","","","",""
"null","","html-keyboard-response","225","1647184","0.0-6.0-10.11","24","<p><img class= 'stimulus' src='images/baseline/05203v.jpg'></img></p>","null","","1550608980223","","","","","","",""
"null","","html-keyboard-response","226","1647291","0.0-6.0-11.11","24","<p><img class= 'stimulus' src='images/baseline/04229v.jpg'></img></p>","null","","1550608980317","","","","","","",""
"null","","html-keyboard-response","227","1647391","0.0-6.0-12.11","24","<p><img class= 'stimulus' src='images/baseline/building16.jpg'></img></p>","null","","1550608980423","12","","","","","",""
"null","","html-keyboard-response","228","1647492","0.0-6.0-13.11","24","<p><img class= 'stimulus' src='images/baseline/04063v.jpg'></img></p>","null","","1550608980523","","","","","","",""
"null","","html-keyboard-response","229","1647590","0.0-6.0-14.11","24","<p><img class= 'stimulus' src='images/baseline/pexels-photo-1054289.jpeg'></img></p>","null","","1550608980623","14","","","","","",""
"null","","html-keyboard-response","230","1647692","0.0-6.0-15.11","24","<p><img class= 'stimulus' src='images/baseline/__08_-_ITALY_-_Forli_under_snow_-_winter_landscape_of_city_(christmas).jpg'></img></p>","null","","1550608980724","","","","","","",""
"null","","html-keyboard-response","231","1647790","0.0-6.0-16.11","24","<p><img class= 'stimulus' src='images/baseline/Lake 9.jpg'></img></p>","null","","1550608980823","","","","","","",""
"null","","html-keyboard-response","232","1647907","0.0-6.0-17.11","24","<p><img class= 'stimulus' src='images/baseline/02988v.jpg'></img></p>","null","","1550608980923","","","","","","",""
"1209.5000000118744","","html-button-response","233","1650133","0.0-6.0-18.11","24","<div class = ""response_question"">WAS THE IMAGE ROTATED...</div>","","0","","","6","2","bas","left","practice","true"
"1542.4999999960419","","html-button-response","234","1651677","0.0-6.0-0.12","24","","","0","","","","","","","",""
"null","","html-keyboard-response","235","1651758","0.0-6.0-1.12","24","<p><img class= 'stimulus' src='images/baseline/building_at_national_conservation.jpg'></img></p>","null","","1550608984790","","","","","","",""
"null","","html-keyboard-response","236","1651857","0.0-6.0-2.12","24","<p><img class= 'stimulus' src='images/baseline/Paysage_karabagh_02.jpg'></img></p>","null","","1550608984890","","","","","","",""
"null","","html-keyboard-response","237","1651958","0.0-6.0-3.12","24","<p><img class= 'stimulus' src='images/baseline/04014v.jpg'></img></p>","null","","1550608984990","","","","","","",""
"null","","html-keyboard-response","238","1652057","0.0-6.0-4.12","24","<p><img class= 'stimulus' src='images/baseline/03201v.jpg'></img></p>","null","","1550608985091","4","","","","","",""
"null","","html-keyboard-response","239","1652157","0.0-6.0-5.12","24","<p><img class= 'stimulus' src='images/baseline/05145v.jpg'></img></p>","null","","1550608985190","","","","","","",""
"null","","html-keyboard-response","240","1652257","0.0-6.0-6.12","24","<p><img class= 'stimulus' src='images/baseline/empire-state-building.jpg'></img></p>","null","","1550608985289","6","","","","","",""
"null","","html-keyboard-response","241","1652358","0.0-6.0-7.12","24","<p><img class= 'stimulus' src='images/baseline/04085v.jpg'></img></p>","null","","1550608985389","","","","","","",""
"null","","html-keyboard-response","242","1652458","0.0-6.0-8.12","24","<p><img class= 'stimulus' src='images/baseline/04062v.jpg'></img></p>","null","","1550608985490","8","","","","","",""
"null","","html-keyboard-response","243","1652558","0.0-6.0-9.12","24","<p><img class= 'stimulus' src='images/baseline/sun-through-winter-tree-branches1.jpg'></img></p>","null","","1550608985589","","","","","","",""
"null","","html-keyboard-response","244","1652657","0.0-6.0-10.12","24","<p><img class= 'stimulus' src='images/baseline/landscape23.jpg'></img></p>","null","","1550608985690","","","","","","",""
"null","","html-keyboard-response","245","1652758","0.0-6.0-11.12","24","<p><img class= 'stimulus' src='images/baseline/farmhouse2.jpg'></img></p>","null","","1550608985790","","","","","","",""
"null","","html-keyboard-response","246","1652857","0.0-6.0-12.12","24","<p><img class= 'stimulus' src='images/baseline/03066v.jpg'></img></p>","null","","1550608985890","12","","","","","",""
"null","","html-keyboard-response","247","1652957","0.0-6.0-13.12","24","<p><img class= 'stimulus' src='images/baseline/Path 1.jpg'></img></p>","null","","1550608985990","","","","","","",""
"null","","html-keyboard-response","248","1653058","0.0-6.0-14.12","24","<p><img class= 'stimulus' src='images/target/landscape3.jpg'></img></p>","null","","1550608986090","14","","","","","",""
"null","","html-keyboard-response","249","1653158","0.0-6.0-15.12","24","<p><img class= 'stimulus' src='images/baseline/03056v.jpg'></img></p>","null","","1550608986190","","","","","","",""
"null","","html-keyboard-response","250","1653257","0.0-6.0-16.12","24","<p><img class= 'stimulus' src='images/baseline/Lake 15.jpg'></img></p>","null","","1550608986291","","","","","","",""
"null","","html-keyboard-response","251","1653374","0.0-6.0-17.12","24","<p><img class= 'stimulus' src='images/baseline/building2.jpg'></img></p>","null","","1550608986389","","","","","","",""
"875","","html-button-response","252","1655253","0.0-6.0-18.12","24","<div class = ""response_question"">WAS THE IMAGE ROTATED...</div>","","3","","","6","8","bas","right","practice","true"
"2446.400000000838","","html-button-response","253","1657700","0.0-6.0-0.13","24","","","0","","","","","","","",""
"null","","html-keyboard-response","254","1657774","0.0-6.0-1.13","24","<p><img class= 'stimulus' src='images/baseline/red-rocks-park.jpg'></img></p>","null","","1550608990807","","","","","","",""
"null","","html-keyboard-response","255","1657874","0.0-6.0-2.13","24","<p><img class= 'stimulus' src='images/baseline/Skyscraper 1.jpg'></img></p>","null","","1550608990907","","","","","","",""
"null","","html-keyboard-response","256","1657974","0.0-6.0-3.13","24","<p><img class= 'stimulus' src='images/baseline/agriculture-cereal-clouds-175389.jpg'></img></p>","null","","1550608991007","","","","","","",""
"null","","html-keyboard-response","257","1658074","0.0-6.0-4.13","24","<p><img class= 'stimulus' src='images/baseline/05247v.jpg'></img></p>","null","","1550608991107","4","","","","","",""
"null","","html-keyboard-response","258","1658174","0.0-6.0-5.13","24","<p><img class= 'stimulus' src='images/baseline/geese-flying-over-lake-at-dusk.jpg'></img></p>","null","","1550608991207","","","","","","",""
"null","","html-keyboard-response","259","1658275","0.0-6.0-6.13","24","<p><img class= 'stimulus left-rotate' src='images/target/tree_1.jpg'></img></p>","null","","1550608991306","6","","","","","",""
"null","","html-keyboard-response","260","1658375","0.0-6.0-7.13","24","<p><img class= 'stimulus' src='images/baseline/Street 1.jpg'></img></p>","null","","1550608991407","","","","","","",""
"null","","html-keyboard-response","261","1658473","0.0-6.0-8.13","24","<p><img class= 'stimulus' src='images/baseline/farmhouse4.jpg'></img></p>","null","","1550608991507","8","","","","","",""
"null","","html-keyboard-response","262","1658574","0.0-6.0-9.13","24","<p><img class= 'stimulus' src='images/baseline/snowy tree.jpg'></img></p>","null","","1550608991607","","","","","","",""
"null","","html-keyboard-response","263","1658675","0.0-6.0-10.13","24","<p><img class= 'stimulus' src='images/baseline/Lake 16.jpg'></img></p>","null","","1550608991707","","","","","","",""
"null","","html-keyboard-response","264","1658774","0.0-6.0-11.13","24","<p><img class= 'stimulus' src='images/baseline/agriculture-countryside-crop-259280.jpg'></img></p>","null","","1550608991808","","","","","","",""
"null","","html-keyboard-response","265","1658874","0.0-6.0-12.13","24","<p><img class= 'stimulus' src='images/baseline/05161v.jpg'></img></p>","null","","1550608991906","12","","","","","",""
"null","","html-keyboard-response","266","1658974","0.0-6.0-13.13","24","<p><img class= 'stimulus' src='images/baseline/building3.jpg'></img></p>","null","","1550608992007","","","","","","",""
"null","","html-keyboard-response","267","1659074","0.0-6.0-14.13","24","<p><img class= 'stimulus' src='images/baseline/04098v.jpg'></img></p>","null","","1550608992107","14","","","","","",""
"null","","html-keyboard-response","268","1659174","0.0-6.0-15.13","24","<p><img class= 'stimulus' src='images/baseline/Grass 6.jpg'></img></p>","null","","1550608992207","","","","","","",""
"null","","html-keyboard-response","269","1659274","0.0-6.0-16.13","24","<p><img class= 'stimulus' src='images/baseline/Sunset 6.jpg'></img></p>","null","","1550608992308","","","","","","",""
"null","","html-keyboard-response","270","1659392","0.0-6.0-17.13","24","<p><img class= 'stimulus' src='images/baseline/05303v.jpg'></img></p>","null","","1550608992408","","","","","","",""
"996.1000000040513","","html-button-response","271","1661405","0.0-6.0-18.13","24","<div class = ""response_question"">WAS THE IMAGE ROTATED...</div>","","1","","","4","2","bas","left","practice","true"
"1925.4999999974389","","html-button-response","272","1663333","0.0-6.0-0.14","24","","","0","","","","","","","",""
"null","","html-keyboard-response","273","1663423","0.0-6.0-1.14","24","<p><img class= 'stimulus' src='images/baseline/hills 4.jpg'></img></p>","null","","1550608996457","","","","","","",""
"null","","html-keyboard-response","274","1663525","0.0-6.0-2.14","24","<p><img class= 'stimulus' src='images/baseline/Peyto_Lake-Banff_NP-Canada.jpg'></img></p>","null","","1550608996558","","","","","","",""
"null","","html-keyboard-response","275","1663624","0.0-6.0-3.14","24","<p><img class= 'stimulus' src='images/baseline/chicago-skyline-at-night-1476869511p8U.jpg'></img></p>","null","","1550608996657","","","","","","",""
"null","","html-keyboard-response","276","1663724","0.0-6.0-4.14","24","<p><img class= 'stimulus' src='images/baseline/pexels-photo-280222.jpeg'></img></p>","null","","1550608996757","4","","","","","",""
"null","","html-keyboard-response","277","1663824","0.0-6.0-5.14","24","<p><img class= 'stimulus' src='images/baseline/Freudenberg_sg_Switzerland.jpg'></img></p>","null","","1550608996857","","","","","","",""
"null","","html-keyboard-response","278","1663924","0.0-6.0-6.14","24","<p><img class= 'stimulus' src='images/baseline/landscape14.jpg'></img></p>","null","","1550608996958","6","","","","","",""
"null","","html-keyboard-response","279","1664024","0.0-6.0-7.14","24","<p><img class= 'stimulus' src='images/baseline/grand-teton-mountains.jpg'></img></p>","null","","1550608997056","","","","","","",""
"null","","html-keyboard-response","280","1664124","0.0-6.0-8.14","24","<p><img class= 'stimulus' src='images/baseline/05292v.jpg'></img></p>","null","","1550608997157","8","","","","","",""
"null","","html-keyboard-response","281","1664224","0.0-6.0-9.14","24","<p><img class= 'stimulus' src='images/baseline/pexels-photo-750108.jpeg'></img></p>","null","","1550608997257","","","","","","",""
"null","","html-keyboard-response","282","1664324","0.0-6.0-10.14","24","<p><img class= 'stimulus' src='images/baseline/landscape29.jpg'></img></p>","null","","1550608997356","","","","","","",""
"null","","html-keyboard-response","283","1664425","0.0-6.0-11.14","24","<p><img class= 'stimulus' src='images/baseline/03041v.jpg'></img></p>","null","","1550608997457","","","","","","",""
"null","","html-keyboard-response","284","1664523","0.0-6.0-12.14","24","<p><img class= 'stimulus left-rotate' src='images/target/oak-1913194_640.jpg'></img></p>","null","","1550608997558","12","","","","","",""
"null","","html-keyboard-response","285","1664625","0.0-6.0-13.14","24","<p><img class= 'stimulus' src='images/baseline/valley 2.jpg'></img></p>","null","","1550608997657","","","","","","",""
"null","","html-keyboard-response","286","1664725","0.0-6.0-14.14","24","<p><img class= 'stimulus' src='images/baseline/landscape13.jpg'></img></p>","null","","1550608997757","14","","","","","",""
"null","","html-keyboard-response","287","1664824","0.0-6.0-15.14","24","<p><img class= 'stimulus' src='images/baseline/02960v.jpg'></img></p>","null","","1550608997857","","","","","","",""
"null","","html-keyboard-response","288","1664924","0.0-6.0-16.14","24","<p><img class= 'stimulus' src='images/baseline/pexels-photo-427676.jpeg'></img></p>","null","","1550608997956","","","","","","",""
"null","","html-keyboard-response","289","1665042","0.0-6.0-17.14","24","<p><img class= 'stimulus' src='images/baseline/vintage-art-deco-storefront.jpg'></img></p>","null","","1550608998056","","","","","","",""
"799.4000000036322","","html-button-response","290","1666844","0.0-6.0-18.14","24","<div class = ""response_question"">WAS THE IMAGE ROTATED...</div>","","0","","","4","8","bas","left","practice","true"
"1870.2999999951571","","html-button-response","291","1668717","0.0-6.0-0.15","24","","","0","","","","","","","",""
"null","","html-keyboard-response","292","1668791","0.0-6.0-1.15","24","<p><img class= 'stimulus' src='images/baseline/building5.jpg'></img></p>","null","","1550609001823","","","","","","",""
"null","","html-keyboard-response","293","1668891","0.0-6.0-2.15","24","<p><img class= 'stimulus' src='images/baseline/Cold 7.jpg'></img></p>","null","","1550609001923","","","","","","",""
"null","","html-keyboard-response","294","1668991","0.0-6.0-3.15","24","<p><img class= 'stimulus' src='images/baseline/landscape31.jpg'></img></p>","null","","1550609002023","","","","","","",""
"null","","html-keyboard-response","295","1669091","0.0-6.0-4.15","24","<p><img class= 'stimulus' src='images/baseline/Kocherbaumwald-01.jpg'></img></p>","null","","1550609002123","4","","","","","",""
"null","","html-keyboard-response","296","1669191","0.0-6.0-5.15","24","<p><img class= 'stimulus' src='images/baseline/landscape4.jpg'></img></p>","null","","1550609002224","","","","","","",""
"null","","html-keyboard-response","297","1669290","0.0-6.0-6.15","24","<p><img class= 'stimulus' src='images/baseline/town-square-in-wroclaw-1539098440MZy.jpg'></img></p>","null","","1550609002323","6","","","","","",""
"null","","html-keyboard-response","298","1669391","0.0-6.0-7.15","24","<p><img class= 'stimulus' src='images/baseline/03180v.jpg'></img></p>","null","","1550609002423","","","","","","",""
"null","","html-keyboard-response","299","1669491","0.0-6.0-8.15","24","<p><img class= 'stimulus' src='images/target/lighthouse-843522_640.jpg'></img></p>","null","","1550609002523","8","","","","","",""
"null","","html-keyboard-response","300","1669591","0.0-6.0-9.15","24","<p><img class= 'stimulus' src='images/baseline/landscape16.jpg'></img></p>","null","","1550609002623","","","","","","",""
"null","","html-keyboard-response","301","1669690","0.0-6.0-10.15","24","<p><img class= 'stimulus' src='images/baseline/Beach 8.jpg'></img></p>","null","","1550609002724","","","","","","",""
"null","","html-keyboard-response","302","1669791","0.0-6.0-11.15","24","<p><img class= 'stimulus' src='images/baseline/04060v.jpg'></img></p>","null","","1550609002823","","","","","","",""
"null","","html-keyboard-response","303","1669891","0.0-6.0-12.15","24","<p><img class= 'stimulus' src='images/baseline/04179v.jpg'></img></p>","null","","1550609002924","12","","","","","",""
"null","","html-keyboard-response","304","1669991","0.0-6.0-13.15","24","<p><img class= 'stimulus' src='images/baseline/landscape12.jpg'></img></p>","null","","1550609003022","","","","","","",""
"null","","html-keyboard-response","305","1670091","0.0-6.0-14.15","24","<p><img class= 'stimulus' src='images/baseline/hills 3.jpg'></img></p>","null","","1550609003123","14","","","","","",""
"null","","html-keyboard-response","306","1670191","0.0-6.0-15.15","24","<p><img class= 'stimulus' src='images/baseline/02947v.jpg'></img></p>","null","","1550609003224","","","","","","",""
"null","","html-keyboard-response","307","1670292","0.0-6.0-16.15","24","<p><img class= 'stimulus' src='images/baseline/farmhouse3.jpg'></img></p>","null","","1550609003324","","","","","","",""
"null","","html-keyboard-response","308","1670408","0.0-6.0-17.15","24","<p><img class= 'stimulus' src='images/baseline/landscape6.jpg'></img></p>","null","","1550609003424","","","","","","",""
"1060.4999999923166","","html-button-response","309","1672485","0.0-6.0-18.15","24","<div class = ""response_question"">WAS THE IMAGE ROTATED...</div>","","3","","","6","2","bas","right","practice","true"
"20005.60000000405","","html-button-response","310","1692492","0.0-7.0","24","<p>You have now completed the practice phase. We will now begin the real trials.         This is a reminder that you will be searching for a rotated image among the series of upright images.</p>         <p>Remember, please do not blink or move your eyes while the images are on the screen.</p>         <p>At the end of the experiment, the experimenter will be able to show you how accurate you were.</p>","","0","","","","","","","",""
"8622.799999997485","","html-button-response","311","1701117","0.0-8.0-0.0-0.0","24","","","0","","","","","","","",""
"null","","html-keyboard-response","312","1701192","0.0-8.0-0.0-1.0","24","<p><img class= 'stimulus' src='images/baseline/landscape37.jpg'></img></p>","null","","1550609034224","","","","","","",""
"null","","html-keyboard-response","313","1701291","0.0-8.0-0.0-2.0","24","<p><img class= 'stimulus' src='images/baseline/chicago-skyline-at-night-1476869511p8U.jpg'></img></p>","null","","1550609034324","","","","","","",""
"null","","html-keyboard-response","314","1701391","0.0-8.0-0.0-3.0","24","<p><img class= 'stimulus' src='images/baseline/99_-_Machu_Picchu_-_Juin_2009.edit3.jpg'></img></p>","null","","1550609034424","","","","","","",""
"null","","html-keyboard-response","315","1701491","0.0-8.0-0.0-4.0","24","<p><img class= 'stimulus' src='images/baseline/seoul-410266_1920.jpg'></img></p>","null","","1550609034524","4","","","","","",""
"null","","html-keyboard-response","316","1701591","0.0-8.0-0.0-5.0","24","<p><img class= 'stimulus' src='images/baseline/05203v.jpg'></img></p>","null","","1550609034624","","","","","","",""
"null","","html-keyboard-response","317","1701691","0.0-8.0-0.0-6.0","24","<p><img class= 'stimulus' src='images/baseline/lone-old-cottonwood-tree.jpg'></img></p>","null","","1550609034724","6","","","","","",""
"null","","html-keyboard-response","318","1701791","0.0-8.0-0.0-7.0","24","<p><img class= 'stimulus' src='images/baseline/vintage-art-deco-storefront.jpg'></img></p>","null","","1550609034824","","","","","","",""
"null","","html-keyboard-response","319","1701892","0.0-8.0-0.0-8.0","24","<p><img class= 'stimulus' src='images/target/buildin2.png'></img></p>","null","","1550609034924","8","","","","","",""
"null","","html-keyboard-response","320","1701992","0.0-8.0-0.0-9.0","24","<p><img class= 'stimulus' src='images/baseline/house11.jpg'></img></p>","null","","1550609035024","","","","","","",""
"null","","html-keyboard-response","321","1702092","0.0-8.0-0.0-10.0","24","<p><img class= 'stimulus' src='images/baseline/Freudenberg_sg_Switzerland.jpg'></img></p>","null","","1550609035124","","","","","","",""
"null","","html-keyboard-response","322","1702191","0.0-8.0-0.0-11.0","24","<p><img class= 'stimulus' src='images/baseline/Path 1.jpg'></img></p>","null","","1550609035223","","","","","","",""
"null","","html-keyboard-response","323","1702292","0.0-8.0-0.0-12.0","24","<p><img class= 'stimulus' src='images/baseline/04040v.jpg'></img></p>","null","","1550609035324","12","","","","","",""
"null","","html-keyboard-response","324","1702392","0.0-8.0-0.0-13.0","24","<p><img class= 'stimulus' src='images/baseline/Lake 15.jpg'></img></p>","null","","1550609035423","","","","","","",""
"null","","html-keyboard-response","325","1702491","0.0-8.0-0.0-14.0","24","<p><img class= 'stimulus' src='images/baseline/red-rocks-park.jpg'></img></p>","null","","1550609035524","14","","","","","",""
"null","","html-keyboard-response","326","1702591","0.0-8.0-0.0-15.0","24","<p><img class= 'stimulus' src='images/baseline/Bridge 1.jpg'></img></p>","null","","1550609035624","","","","","","",""
"null","","html-keyboard-response","327","1702691","0.0-8.0-0.0-16.0","24","<p><img class= 'stimulus' src='images/baseline/04158v.jpg'></img></p>","null","","1550609035723","","","","","","",""
"null","","html-keyboard-response","328","1702808","0.0-8.0-0.0-17.0","24","<p><img class= 'stimulus' src='images/baseline/05303v.jpg'></img></p>","null","","1550609035824","","","","","","",""
"885.3999999994412","","html-button-response","329","1704710","0.0-8.0-0.0-18.0","24","<div class = ""response_question"">WAS THE IMAGE ROTATED...</div>","","5","","","6","2","bas","right","test","false"
"1542.000000001397","","html-button-response","330","1706253","0.0-8.0-0.0-0.1","24","","","0","","","","","","","",""
"null","","html-keyboard-response","331","1706325","0.0-8.0-0.0-1.1","24","<p><img class= 'stimulus' src='images/baseline/02945v.jpg'></img></p>","null","","1550609039357","","","","","","",""
"null","","html-keyboard-response","332","1706425","0.0-8.0-0.0-2.1","24","<p><img class= 'stimulus' src='images/baseline/03148v.jpg'></img></p>","null","","1550609039457","","","","","","",""
"null","","html-keyboard-response","333","1706525","0.0-8.0-0.0-3.1","24","<p><img class= 'stimulus' src='images/baseline/pexels-photo-1261728.jpeg'></img></p>","null","","1550609039559","","","","","","",""
"null","","html-keyboard-response","334","1706625","0.0-8.0-0.0-4.1","24","<p><img class= 'stimulus' src='images/baseline/building5.jpg'></img></p>","null","","1550609039657","4","","","","","",""
"null","","html-keyboard-response","335","1706725","0.0-8.0-0.0-5.1","24","<p><img class= 'stimulus' src='images/baseline/04284v.jpg'></img></p>","null","","1550609039757","","","","","","",""
"null","","html-keyboard-response","336","1706825","0.0-8.0-0.0-6.1","24","<p><img class= 'stimulus' src='images/baseline/Sunset 6.jpg'></img></p>","null","","1550609039858","6","","","","","",""
"null","","html-keyboard-response","337","1706925","0.0-8.0-0.0-7.1","24","<p><img class= 'stimulus' src='images/baseline/landscape16.jpg'></img></p>","null","","1550609039956","","","","","","",""
"null","","html-keyboard-response","338","1707024","0.0-8.0-0.0-8.1","24","<p><img class= 'stimulus' src='images/baseline/meadow-with-mountain-in-background.jpg'></img></p>","null","","1550609040056","8","","","","","",""
"null","","html-keyboard-response","339","1707126","0.0-8.0-0.0-9.1","24","<p><img class= 'stimulus' src='images/baseline/landscape17.jpg'></img></p>","null","","1550609040156","","","","","","",""
"null","","html-keyboard-response","340","1707225","0.0-8.0-0.0-10.1","24","<p><img class= 'stimulus' src='images/baseline/04014v.jpg'></img></p>","null","","1550609040258","","","","","","",""
"null","","html-keyboard-response","341","1707324","0.0-8.0-0.0-11.1","24","<p><img class= 'stimulus' src='images/baseline/landscape29.jpg'></img></p>","null","","1550609040357","","","","","","",""
"null","","html-keyboard-response","342","1707425","0.0-8.0-0.0-12.1","24","<p><img class= 'stimulus' src='images/target/house-estate-1100x733.jpg'></img></p>","null","","1550609040457","12","","","","","",""
"null","","html-keyboard-response","343","1707525","0.0-8.0-0.0-13.1","24","<p><img class= 'stimulus' src='images/baseline/Lake 14.jpg'></img></p>","null","","1550609040557","","","","","","",""
"null","","html-keyboard-response","344","1707624","0.0-8.0-0.0-14.1","24","<p><img class= 'stimulus' src='images/baseline/Paysage_enneige_02.jpg'></img></p>","null","","1550609040657","14","","","","","",""
"null","","html-keyboard-response","345","1707724","0.0-8.0-0.0-15.1","24","<p><img class= 'stimulus' src='images/baseline/landscape23.jpg'></img></p>","null","","1550609040758","","","","","","",""
"null","","html-keyboard-response","346","1707825","0.0-8.0-0.0-16.1","24","<p><img class= 'stimulus' src='images/baseline/03162v.jpg'></img></p>","null","","1550609040858","","","","","","",""
"null","","html-keyboard-response","347","1707942","0.0-8.0-0.0-17.1","24","<p><img class= 'stimulus' src='images/baseline/Street 4.jpg'></img></p>","null","","1550609040958","","","","","","",""
"1338.9000000027008","","html-button-response","348","1710285","0.0-8.0-0.0-18.1","24","<div class = ""response_question"">WAS THE IMAGE ROTATED...</div>","","4","","","4","8","bas","right","test","true"
"942.4999999899883","","html-button-response","349","1711229","0.0-8.0-0.0-0.2","24","","","0","","","","","","","",""
"null","","html-keyboard-response","350","1711308","0.0-8.0-0.0-1.2","24","<p><img class= 'stimulus' src='images/baseline/landscape3.jpg'></img></p>","null","","1550609044340","","","","","","",""
"null","","html-keyboard-response","351","1711408","0.0-8.0-0.0-2.2","24","<p><img class= 'stimulus' src='images/baseline/pexels-photo-259280.jpeg'></img></p>","null","","1550609044440","","","","","","",""
"null","","html-keyboard-response","352","1711509","0.0-8.0-0.0-3.2","24","<p><img class= 'stimulus' src='images/baseline/Skijump 1.jpg'></img></p>","null","","1550609044540","","","","","","",""
"null","","html-keyboard-response","353","1711609","0.0-8.0-0.0-4.2","24","<p><img class= 'stimulus' src='images/baseline/03066v.jpg'></img></p>","null","","1550609044640","4","","","","","",""
"null","","html-keyboard-response","354","1711708","0.0-8.0-0.0-5.2","24","<p><img class= 'stimulus' src='images/baseline/cyrillic.jpg'></img></p>","null","","1550609044740","","","","","","",""
"null","","html-keyboard-response","355","1711808","0.0-8.0-0.0-6.2","24","<p><img class= 'stimulus' src='images/baseline/Nature 1.jpg'></img></p>","null","","1550609044842","6","","","","","",""
"null","","html-keyboard-response","356","1711909","0.0-8.0-0.0-7.2","24","<p><img class= 'stimulus' src='images/baseline/geese-flying-over-lake-at-dusk.jpg'></img></p>","null","","1550609044940","","","","","","",""
"null","","html-keyboard-response","357","1712008","0.0-8.0-0.0-8.2","24","<p><img class= 'stimulus' src='images/baseline/architecture-1314416_1920.jpg'></img></p>","null","","1550609045041","8","","","","","",""
"null","","html-keyboard-response","358","1712108","0.0-8.0-0.0-9.2","24","<p><img class= 'stimulus' src='images/baseline/04196v.jpg'></img></p>","null","","1550609045141","","","","","","",""
"null","","html-keyboard-response","359","1712208","0.0-8.0-0.0-10.2","24","<p><img class= 'stimulus' src='images/baseline/Desert_View_Indian_Wells.jpg'></img></p>","null","","1550609045242","","","","","","",""
"null","","html-keyboard-response","360","1712308","0.0-8.0-0.0-11.2","24","<p><img class= 'stimulus' src='images/baseline/Lake 13.jpg'></img></p>","null","","1550609045342","","","","","","",""
"null","","html-keyboard-response","361","1712408","0.0-8.0-0.0-12.2","24","<p><img class= 'stimulus' src='images/baseline/architecture_modern_architecture_852928.jpg'></img></p>","null","","1550609045442","12","","","","","",""
"null","","html-keyboard-response","362","1712508","0.0-8.0-0.0-13.2","24","<p><img class= 'stimulus' src='images/baseline/04117v.jpg'></img></p>","null","","1550609045540","","","","","","",""
"null","","html-keyboard-response","363","1712608","0.0-8.0-0.0-14.2","24","<p><img class= 'stimulus' src='images/baseline/lake 2.jpg'></img></p>","null","","1550609045641","14","","","","","",""
"null","","html-keyboard-response","364","1712708","0.0-8.0-0.0-15.2","24","<p><img class= 'stimulus' src='images/baseline/Street 1.jpg'></img></p>","null","","1550609045741","","","","","","",""
"null","","html-keyboard-response","365","1712809","0.0-8.0-0.0-16.2","24","<p><img class= 'stimulus' src='images/baseline/autumn-in-red-rocks-park.jpg'></img></p>","null","","1550609045840","","","","","","",""
"null","","html-keyboard-response","366","1712925","0.0-8.0-0.0-17.2","24","<p><img class= 'stimulus' src='images/baseline/landscape31.jpg'></img></p>","null","","1550609045942","","","","","","",""
"1363.2999999972526","","html-button-response","367","1715293","0.0-8.0-0.0-18.2","24","<div class = ""response_question"">WAS THE IMAGE ROTATED...</div>","","2","","","null","null","null","null","test","null"
"1486.199999999255","","html-button-response","368","1716781","0.0-8.0-0.0-0.3","24","","","0","","","","","","","",""
"null","","html-keyboard-response","369","1716858","0.0-8.0-0.0-1.3","24","<p><img class= 'stimulus' src='images/baseline/02971v.jpg'></img></p>","null","","1550609049891","","","","","","",""
"null","","html-keyboard-response","370","1716958","0.0-8.0-0.0-2.3","24","<p><img class= 'stimulus' src='images/baseline/pexels-photo-280222.jpeg'></img></p>","null","","1550609049991","","","","","","",""
"null","","html-keyboard-response","371","1717059","0.0-8.0-0.0-3.3","24","<p><img class= 'stimulus' src='images/baseline/Aletschgletscher-Eggishorn.jpg'></img></p>","null","","1550609050090","","","","","","",""
"null","","html-keyboard-response","372","1717159","0.0-8.0-0.0-4.3","24","<p><img class= 'stimulus' src='images/neutral/Meerkat 1.jpg'></img></p>","null","","1550609050190","4","","","","","",""
"null","","html-keyboard-response","373","1717258","0.0-8.0-0.0-5.3","24","<p><img class= 'stimulus' src='images/baseline/Sunset 4.jpg'></img></p>","null","","1550609050291","","","","","","",""
"null","","html-keyboard-response","374","1717358","0.0-8.0-0.0-6.3","24","<p><img class= 'stimulus' src='images/target/oak-456524_640.jpg'></img></p>","null","","1550609050390","6","","","","","",""
"null","","html-keyboard-response","375","1717458","0.0-8.0-0.0-7.3","24","<p><img class= 'stimulus' src='images/baseline/building8.jpg'></img></p>","null","","1550609050490","","","","","","",""
"null","","html-keyboard-response","376","1717559","0.0-8.0-0.0-8.3","24","<p><img class= 'stimulus' src='images/baseline/landscape36.jpg'></img></p>","null","","1550609050591","8","","","","","",""
"null","","html-keyboard-response","377","1717658","0.0-8.0-0.0-9.3","24","<p><img class= 'stimulus' src='images/baseline/building3.jpg'></img></p>","null","","1550609050690","","","","","","",""
"null","","html-keyboard-response","378","1717759","0.0-8.0-0.0-10.3","24","<p><img class= 'stimulus' src='images/baseline/Lake 4.jpg'></img></p>","null","","1550609050792","","","","","","",""
"null","","html-keyboard-response","379","1717859","0.0-8.0-0.0-11.3","24","<p><img class= 'stimulus' src='images/baseline/field 4.jpg'></img></p>","null","","1550609050892","","","","","","",""
"null","","html-keyboard-response","380","1717958","0.0-8.0-0.0-12.3","24","<p><img class= 'stimulus' src='images/baseline/agriculture-countryside-crop-259280.jpg'></img></p>","null","","1550609050992","12","","","","","",""
"null","","html-keyboard-response","381","1718058","0.0-8.0-0.0-13.3","24","<p><img class= 'stimulus' src='images/baseline/05198v.jpg'></img></p>","null","","1550609051090","","","","","","",""
"null","","html-keyboard-response","382","1718159","0.0-8.0-0.0-14.3","24","<p><img class= 'stimulus' src='images/baseline/Nature 2.jpg'></img></p>","null","","1550609051190","14","","","","","",""
"null","","html-keyboard-response","383","1718258","0.0-8.0-0.0-15.3","24","<p><img class= 'stimulus' src='images/baseline/pexels-photo-750108.jpeg'></img></p>","null","","1550609051290","","","","","","",""
"null","","html-keyboard-response","384","1718358","0.0-8.0-0.0-16.3","24","<p><img class= 'stimulus' src='images/baseline/pexels-photo-894312.jpeg'></img></p>","null","","1550609051390","","","","","","",""
"null","","html-keyboard-response","385","1718475","0.0-8.0-0.0-17.3","24","<p><img class= 'stimulus' src='images/baseline/Lake 16.jpg'></img></p>","null","","1550609051491","","","","","","",""
"2004.9999999899883","","html-button-response","386","1721485","0.0-8.0-0.0-18.3","24","<div class = ""response_question"">WAS THE IMAGE ROTATED...</div>","","4","","","4","2","neu","right","test","true"
"1661.3999999973457","","html-button-response","387","1723149","0.0-8.0-0.0-0.4","24","","","0","","","","","","","",""
"null","","html-keyboard-response","388","1723225","0.0-8.0-0.0-1.4","24","<p><img class= 'stimulus' src='images/baseline/Peyto_Lake-Banff_NP-Canada.jpg'></img></p>","null","","1550609056257","","","","","","",""
"null","","html-keyboard-response","389","1723324","0.0-8.0-0.0-2.4","24","<p><img class= 'stimulus' src='images/baseline/04300v.jpg'></img></p>","null","","1550609056357","","","","","","",""
"null","","html-keyboard-response","390","1723425","0.0-8.0-0.0-3.4","24","<p><img class= 'stimulus' src='images/baseline/Skyscraper 2.jpg'></img></p>","null","","1550609056457","","","","","","",""
"null","","html-keyboard-response","391","1723525","0.0-8.0-0.0-4.4","24","<p><img class= 'stimulus' src='images/baseline/landscape13.jpg'></img></p>","null","","1550609056557","4","","","","","",""
"null","","html-keyboard-response","392","1723625","0.0-8.0-0.0-5.4","24","<p><img class= 'stimulus' src='images/baseline/03201v.jpg'></img></p>","null","","1550609056657","","","","","","",""
"null","","html-keyboard-response","393","1723724","0.0-8.0-0.0-6.4","24","<p><img class= 'stimulus left-rotate' src='images/target/tree-197536_640.jpg'></img></p>","null","","1550609056757","6","","","","","",""
"null","","html-keyboard-response","394","1723825","0.0-8.0-0.0-7.4","24","<p><img class= 'stimulus' src='images/baseline/kokkari-1523011968Xfr.jpg'></img></p>","null","","1550609056858","","","","","","",""
"null","","html-keyboard-response","395","1723925","0.0-8.0-0.0-8.4","24","<p><img class= 'stimulus' src='images/baseline/house2.jpg'></img></p>","null","","1550609056959","8","","","","","",""
"null","","html-keyboard-response","396","1724024","0.0-8.0-0.0-9.4","24","<p><img class= 'stimulus' src='images/baseline/03098v.jpg'></img></p>","null","","1550609057058","","","","","","",""
"null","","html-keyboard-response","397","1724125","0.0-8.0-0.0-10.4","24","<p><img class= 'stimulus' src='images/baseline/empire-state-building.jpg'></img></p>","null","","1550609057159","","","","","","",""
"null","","html-keyboard-response","398","1724225","0.0-8.0-0.0-11.4","24","<p><img class= 'stimulus' src='images/baseline/02982v.jpg'></img></p>","null","","1550609057257","","","","","","",""
"null","","html-keyboard-response","399","1724325","0.0-8.0-0.0-12.4","24","<p><img class= 'stimulus' src='images/baseline/Lake 3.jpg'></img></p>","null","","1550609057357","12","","","","","",""
"null","","html-keyboard-response","400","1724425","0.0-8.0-0.0-13.4","24","<p><img class= 'stimulus' src='images/baseline/Road 1.jpg'></img></p>","null","","1550609057457","","","","","","",""
"null","","html-keyboard-response","401","1724525","0.0-8.0-0.0-14.4","24","<p><img class= 'stimulus' src='images/baseline/landscape4.jpg'></img></p>","null","","1550609057557","14","","","","","",""
"null","","html-keyboard-response","402","1724625","0.0-8.0-0.0-15.4","24","<p><img class= 'stimulus' src='images/baseline/pexels-photo-59321.jpeg'></img></p>","null","","1550609057658","","","","","","",""
"null","","html-keyboard-response","403","1724725","0.0-8.0-0.0-16.4","24","<p><img class= 'stimulus' src='images/baseline/Bahia_Onelli_Parque_Nacional_Los_Glaciares_Patagonia_Argentina_Luca_Galuzzi_2005.jpg'></img></p>","null","","1550609057759","","","","","","",""
"null","","html-keyboard-response","404","1724842","0.0-8.0-0.0-17.4","24","<p><img class= 'stimulus' src='images/baseline/pexels-photo-568236.jpeg'></img></p>","null","","1550609057857","","","","","","",""
"2356.8999999989755","","html-button-response","405","1728205","0.0-8.0-0.0-18.4","24","<div class = ""response_question"">WAS THE IMAGE ROTATED...</div>","","3","","","4","2","bas","left","test","false"
"2358.099999997765","","html-button-response","406","1730565","0.0-8.0-0.0-0.5","24","","","0","","","","","","","",""
"null","","html-keyboard-response","407","1730642","0.0-8.0-0.0-1.5","24","<p><img class= 'stimulus' src='images/baseline/landscape7.jpg'></img></p>","null","","1550609063675","","","","","","",""
"null","","html-keyboard-response","408","1730742","0.0-8.0-0.0-2.5","24","<p><img class= 'stimulus' src='images/baseline/Dock 1.jpg'></img></p>","null","","1550609063774","","","","","","",""
"null","","html-keyboard-response","409","1730841","0.0-8.0-0.0-3.5","24","<p><img class= 'stimulus' src='images/baseline/landscape12.jpg'></img></p>","null","","1550609063874","","","","","","",""
"null","","html-keyboard-response","410","1730942","0.0-8.0-0.0-4.5","24","<p><img class= 'stimulus' src='images/negative/Injury 3.jpg'></img></p>","null","","1550609063974","4","","","","","",""
"null","","html-keyboard-response","411","1731042","0.0-8.0-0.0-5.5","24","<p><img class= 'stimulus' src='images/baseline/Kocherbaumwald-01.jpg'></img></p>","null","","1550609064074","","","","","","",""
"null","","html-keyboard-response","412","1731141","0.0-8.0-0.0-6.5","24","<p><img class= 'stimulus' src='images/baseline/Camping 10.jpg'></img></p>","null","","1550609064175","6","","","","","",""
"null","","html-keyboard-response","413","1731242","0.0-8.0-0.0-7.5","24","<p><img class= 'stimulus' src='images/baseline/Beach 2.jpg'></img></p>","null","","1550609064273","","","","","","",""
"null","","html-keyboard-response","414","1731341","0.0-8.0-0.0-8.5","24","<p><img class= 'stimulus' src='images/baseline/farmhouse11.jpg'></img></p>","null","","1550609064374","8","","","","","",""
"null","","html-keyboard-response","415","1731442","0.0-8.0-0.0-9.5","24","<p><img class= 'stimulus' src='images/baseline/building_at_national_conservation.jpg'></img></p>","null","","1550609064474","","","","","","",""
"null","","html-keyboard-response","416","1731542","0.0-8.0-0.0-10.5","24","<p><img class= 'stimulus' src='images/baseline/04031v.jpg'></img></p>","null","","1550609064574","","","","","","",""
"null","","html-keyboard-response","417","1731642","0.0-8.0-0.0-11.5","24","<p><img class= 'stimulus' src='images/baseline/lake3.jpg'></img></p>","null","","1550609064675","","","","","","",""
"null","","html-keyboard-response","418","1731742","0.0-8.0-0.0-12.5","24","<p><img class= 'stimulus left-rotate' src='images/target/building15.jpg'></img></p>","null","","1550609064774","12","","","","","",""
"null","","html-keyboard-response","419","1731842","0.0-8.0-0.0-13.5","24","<p><img class= 'stimulus' src='images/baseline/05186v.jpg'></img></p>","null","","1550609064874","","","","","","",""
"null","","html-keyboard-response","420","1731941","0.0-8.0-0.0-14.5","24","<p><img class= 'stimulus' src='images/baseline/Paysage_karabagh_02.jpg'></img></p>","null","","1550609064974","14","","","","","",""
"null","","html-keyboard-response","421","1732041","0.0-8.0-0.0-15.5","24","<p><img class= 'stimulus' src='images/baseline/03114v.jpg'></img></p>","null","","1550609065074","","","","","","",""
"null","","html-keyboard-response","422","1732142","0.0-8.0-0.0-16.5","24","<p><img class= 'stimulus' src='images/baseline/04098v.jpg'></img></p>","null","","1550609065174","","","","","","",""
"null","","html-keyboard-response","423","1732258","0.0-8.0-0.0-17.5","24","<p><img class= 'stimulus' src='images/baseline/03204v.jpg'></img></p>","null","","1550609065276","","","","","","",""
"3638.100000011036","","html-button-response","424","1736901","0.0-8.0-0.0-18.5","24","<div class = ""response_question"">WAS THE IMAGE ROTATED...</div>","","5","","","4","8","neg","left","test","false"
"5189.500000007451","","html-button-response","425","1742093","0.0-8.0-0.0-0.6","24","","","0","","","","","","","",""
"null","","html-keyboard-response","426","1742175","0.0-8.0-0.0-1.6","24","<p><img class= 'stimulus' src='images/baseline/02960v.jpg'></img></p>","null","","1550609075208","","","","","","",""
"null","","html-keyboard-response","427","1742275","0.0-8.0-0.0-2.6","24","<p><img class= 'stimulus' src='images/baseline/04021v.jpg'></img></p>","null","","1550609075307","","","","","","",""
"null","","html-keyboard-response","428","1742375","0.0-8.0-0.0-3.6","24","<p><img class= 'stimulus' src='images/baseline/pexels-photo-221125.jpeg'></img></p>","null","","1550609075407","","","","","","",""
"null","","html-keyboard-response","429","1742475","0.0-8.0-0.0-4.6","24","<p><img class= 'stimulus' src='images/baseline/04162v.jpg'></img></p>","null","","1550609075507","4","","","","","",""
"null","","html-keyboard-response","430","1742575","0.0-8.0-0.0-5.6","24","<p><img class= 'stimulus' src='images/baseline/valley 1.jpg'></img></p>","null","","1550609075607","","","","","","",""
"null","","html-keyboard-response","431","1742676","0.0-8.0-0.0-6.6","24","<p><img class= 'stimulus' src='images/neutral/Orangutan 1.jpg'></img></p>","null","","1550609075708","6","","","","","",""
"null","","html-keyboard-response","432","1742775","0.0-8.0-0.0-7.6","24","<p><img class= 'stimulus' src='images/baseline/03217v.jpg'></img></p>","null","","1550609075808","","","","","","",""
"null","","html-keyboard-response","433","1742875","0.0-8.0-0.0-8.6","24","<p><img class= 'stimulus' src='images/baseline/05292v.jpg'></img></p>","null","","1550609075908","8","","","","","",""
"null","","html-keyboard-response","434","1742974","0.0-8.0-0.0-9.6","24","<p><img class= 'stimulus' src='images/baseline/hills 4.jpg'></img></p>","null","","1550609076007","","","","","","",""
"null","","html-keyboard-response","435","1743076","0.0-8.0-0.0-10.6","24","<p><img class= 'stimulus' src='images/baseline/04201v.jpg'></img></p>","null","","1550609076107","","","","","","",""
"null","","html-keyboard-response","436","1743175","0.0-8.0-0.0-11.6","24","<p><img class= 'stimulus' src='images/baseline/road.jpg'></img></p>","null","","1550609076208","","","","","","",""
"null","","html-keyboard-response","437","1743275","0.0-8.0-0.0-12.6","24","<p><img class= 'stimulus' src='images/baseline/house1.jpg'></img></p>","null","","1550609076308","12","","","","","",""
"null","","html-keyboard-response","438","1743375","0.0-8.0-0.0-13.6","24","<p><img class= 'stimulus' src='images/baseline/horse_statue.jpg'></img></p>","null","","1550609076407","","","","","","",""
"null","","html-keyboard-response","439","1743476","0.0-8.0-0.0-14.6","24","<p><img class= 'stimulus' src='images/target/petronas-towers-433081_1920.jpg'></img></p>","null","","1550609076507","14","","","","","",""
"null","","html-keyboard-response","440","1743576","0.0-8.0-0.0-15.6","24","<p><img class= 'stimulus' src='images/baseline/hills 1.jpg'></img></p>","null","","1550609076607","","","","","","",""
"null","","html-keyboard-response","441","1743675","0.0-8.0-0.0-16.6","24","<p><img class= 'stimulus' src='images/baseline/tennis-court-net-buried-in-snow.jpg'></img></p>","null","","1550609076707","","","","","","",""
"null","","html-keyboard-response","442","1743793","0.0-8.0-0.0-17.6","24","<p><img class= 'stimulus' src='images/baseline/pexels-photo-808465.jpeg'></img></p>","null","","1550609076807","","","","","","",""
"628.8999999959487","","html-button-response","443","1745429","0.0-8.0-0.0-18.6","24","<div class = ""response_question"">WAS THE IMAGE ROTATED...</div>","","3","","","6","8","neu","right","test","true"
"2446.199999991106","","html-button-response","444","1747877","0.0-8.0-0.0-0.7","24","","","0","","","","","","","",""
"null","","html-keyboard-response","445","1747958","0.0-8.0-0.0-1.7","24","<p><img class= 'stimulus' src='images/baseline/landscape11.jpg'></img></p>","null","","1550609080990","","","","","","",""
"null","","html-keyboard-response","446","1748058","0.0-8.0-0.0-2.7","24","<p><img class= 'stimulus' src='images/baseline/landscape40.jpg'></img></p>","null","","1550609081090","","","","","","",""
"null","","html-keyboard-response","447","1748159","0.0-8.0-0.0-3.7","24","<p><img class= 'stimulus' src='images/baseline/05179v.jpg'></img></p>","null","","1550609081191","","","","","","",""
"null","","html-keyboard-response","448","1748258","0.0-8.0-0.0-4.7","24","<p><img class= 'stimulus' src='images/baseline/03041v.jpg'></img></p>","null","","1550609081291","4","","","","","",""
"null","","html-keyboard-response","449","1748359","0.0-8.0-0.0-5.7","24","<p><img class= 'stimulus' src='images/baseline/snowy tree.jpg'></img></p>","null","","1550609081392","","","","","","",""
"null","","html-keyboard-response","450","1748459","0.0-8.0-0.0-6.7","24","<p><img class= 'stimulus' src='images/baseline/Beach 8.jpg'></img></p>","null","","1550609081491","6","","","","","",""
"null","","html-keyboard-response","451","1748558","0.0-8.0-0.0-7.7","24","<p><img class= 'stimulus' src='images/baseline/pexels-photo-1287089.jpeg'></img></p>","null","","1550609081591","","","","","","",""
"null","","html-keyboard-response","452","1748659","0.0-8.0-0.0-8.7","24","<p><img class= 'stimulus' src='images/baseline/scenic-mountain-landscape.jpg'></img></p>","null","","1550609081692","8","","","","","",""
"null","","html-keyboard-response","453","1748759","0.0-8.0-0.0-9.7","24","<p><img class= 'stimulus' src='images/baseline/house7.jpg'></img></p>","null","","1550609081791","","","","","","",""
"null","","html-keyboard-response","454","1748860","0.0-8.0-0.0-10.7","24","<p><img class= 'stimulus' src='images/baseline/Lake 9.jpg'></img></p>","null","","1550609081892","","","","","","",""
"null","","html-keyboard-response","455","1748960","0.0-8.0-0.0-11.7","24","<p><img class= 'stimulus' src='images/baseline/02962v.jpg'></img></p>","null","","1550609081992","","","","","","",""
"null","","html-keyboard-response","456","1749060","0.0-8.0-0.0-12.7","24","<p><img class= 'stimulus left-rotate' src='images/target/landscape1.jpg'></img></p>","null","","1550609082091","12","","","","","",""
"null","","html-keyboard-response","457","1749158","0.0-8.0-0.0-13.7","24","<p><img class= 'stimulus' src='images/baseline/pexels-photo-440731.jpeg'></img></p>","null","","1550609082191","","","","","","",""
"null","","html-keyboard-response","458","1749259","0.0-8.0-0.0-14.7","24","<p><img class= 'stimulus' src='images/baseline/agriculture-cereal-clouds-175389.jpg'></img></p>","null","","1550609082291","14","","","","","",""
"null","","html-keyboard-response","459","1749359","0.0-8.0-0.0-15.7","24","<p><img class= 'stimulus' src='images/baseline/trees 23.jpg'></img></p>","null","","1550609082391","","","","","","",""
"null","","html-keyboard-response","460","1749458","0.0-8.0-0.0-16.7","24","<p><img class= 'stimulus' src='images/baseline/Street 2.jpg'></img></p>","null","","1550609082492","","","","","","",""
"null","","html-keyboard-response","461","1749575","0.0-8.0-0.0-17.7","24","<p><img class= 'stimulus' src='images/baseline/02977v.jpg'></img></p>","null","","1550609082590","","","","","","",""
"578.3999999985099","","html-button-response","462","1751157","0.0-8.0-0.0-18.7","24","<div class = ""response_question"">WAS THE IMAGE ROTATED...</div>","","0","","","4","8","bas","left","test","true"
"1261.8999999978114","","html-button-response","463","1752415","0.0-8.0-0.0-0.8","24","","","0","","","","","","","",""
"null","","html-keyboard-response","464","1752486","0.0-8.0-0.0-1.8","24","<p><img class= 'stimulus' src='images/baseline/church-silhouette-8712964986014Kb.jpg'></img></p>","null","","1550609085518","","","","","","",""
"null","","html-keyboard-response","465","1752586","0.0-8.0-0.0-2.8","24","<p><img class= 'stimulus' src='images/baseline/landscape39.jpg'></img></p>","null","","1550609085618","","","","","","",""
"null","","html-keyboard-response","466","1752687","0.0-8.0-0.0-3.8","24","<p><img class= 'stimulus' src='images/baseline/landscape35.jpg'></img></p>","null","","1550609085719","","","","","","",""
"null","","html-keyboard-response","467","1752787","0.0-8.0-0.0-4.8","24","<p><img class= 'stimulus' src='images/baseline/05279v.jpg'></img></p>","null","","1550609085819","4","","","","","",""
"null","","html-keyboard-response","468","1752887","0.0-8.0-0.0-5.8","24","<p><img class= 'stimulus' src='images/baseline/Dirt 2.jpg'></img></p>","null","","1550609085920","","","","","","",""
"null","","html-keyboard-response","469","1752987","0.0-8.0-0.0-6.8","24","<p><img class= 'stimulus' src='images/neutral/horse.png'></img></p>","null","","1550609086019","6","","","","","",""
"null","","html-keyboard-response","470","1753088","0.0-8.0-0.0-7.8","24","<p><img class= 'stimulus' src='images/baseline/05131v.jpg'></img></p>","null","","1550609086119","","","","","","",""
"null","","html-keyboard-response","471","1753187","0.0-8.0-0.0-8.8","24","<p><img class= 'stimulus left-rotate' src='images/target/chicago-673558_640.jpg'></img></p>","null","","1550609086219","8","","","","","",""
"null","","html-keyboard-response","472","1753286","0.0-8.0-0.0-9.8","24","<p><img class= 'stimulus' src='images/baseline/farmhouse9.jpg'></img></p>","null","","1550609086320","","","","","","",""
"null","","html-keyboard-response","473","1753386","0.0-8.0-0.0-10.8","24","<p><img class= 'stimulus' src='images/baseline/cranes 1.jpg'></img></p>","null","","1550609086420","","","","","","",""
"null","","html-keyboard-response","474","1753486","0.0-8.0-0.0-11.8","24","<p><img class= 'stimulus' src='images/baseline/Lake 5.jpg'></img></p>","null","","1550609086518","","","","","","",""
"null","","html-keyboard-response","475","1753587","0.0-8.0-0.0-12.8","24","<p><img class= 'stimulus' src='images/baseline/05240v.jpg'></img></p>","null","","1550609086619","12","","","","","",""
"null","","html-keyboard-response","476","1753686","0.0-8.0-0.0-13.8","24","<p><img class= 'stimulus' src='images/baseline/05264v.jpg'></img></p>","null","","1550609086719","","","","","","",""
"null","","html-keyboard-response","477","1753787","0.0-8.0-0.0-14.8","24","<p><img class= 'stimulus' src='images/baseline/04179v.jpg'></img></p>","null","","1550609086818","14","","","","","",""
"null","","html-keyboard-response","478","1753887","0.0-8.0-0.0-15.8","24","<p><img class= 'stimulus' src='images/baseline/03056v.jpg'></img></p>","null","","1550609086920","","","","","","",""
"null","","html-keyboard-response","479","1753987","0.0-8.0-0.0-16.8","24","<p><img class= 'stimulus' src='images/baseline/landscape34.jpg'></img></p>","null","","1550609087019","","","","","","",""
"null","","html-keyboard-response","480","1754103","0.0-8.0-0.0-17.8","24","<p><img class= 'stimulus' src='images/baseline/03112v.jpg'></img></p>","null","","1550609087119","","","","","","",""
"1123.3000000067987","","html-button-response","481","1756232","0.0-8.0-0.0-18.8","24","<div class = ""response_question"">WAS THE IMAGE ROTATED...</div>","","2","","","6","2","neu","left","test","false"
"2029.6000000089407","","html-button-response","482","1758264","0.0-8.0-0.0-0.9","24","","","0","","","","","","","",""
"null","","html-keyboard-response","483","1758337","0.0-8.0-0.0-1.9","24","<p><img class= 'stimulus' src='images/baseline/landscape38.jpg'></img></p>","null","","1550609091369","","","","","","",""
"null","","html-keyboard-response","484","1758437","0.0-8.0-0.0-2.9","24","<p><img class= 'stimulus' src='images/baseline/Linden,_paysage.jpg'></img></p>","null","","1550609091468","","","","","","",""
"null","","html-keyboard-response","485","1758537","0.0-8.0-0.0-3.9","24","<p><img class= 'stimulus' src='images/baseline/farmhouse2.jpg'></img></p>","null","","1550609091569","","","","","","",""
"null","","html-keyboard-response","486","1758636","0.0-8.0-0.0-4.9","24","<p><img class= 'stimulus' src='images/baseline/Street 3.jpg'></img></p>","null","","1550609091668","4","","","","","",""
"null","","html-keyboard-response","487","1758737","0.0-8.0-0.0-5.9","24","<p><img class= 'stimulus' src='images/baseline/04063v.jpg'></img></p>","null","","1550609091769","","","","","","",""
"null","","html-keyboard-response","488","1758838","0.0-8.0-0.0-6.9","24","<p><img class= 'stimulus' src='images/baseline/pexels-photo-459203.jpeg'></img></p>","null","","1550609091870","6","","","","","",""
"null","","html-keyboard-response","489","1758936","0.0-8.0-0.0-7.9","24","<p><img class= 'stimulus' src='images/baseline/04060v.jpg'></img></p>","null","","1550609091970","","","","","","",""
"null","","html-keyboard-response","490","1759038","0.0-8.0-0.0-8.9","24","<p><img class= 'stimulus' src='images/target/landscape32.jpg'></img></p>","null","","1550609092069","8","","","","","",""
"null","","html-keyboard-response","491","1759136","0.0-8.0-0.0-9.9","24","<p><img class= 'stimulus' src='images/baseline/grand-teton-mountains.jpg'></img></p>","null","","1550609092170","","","","","","",""
"null","","html-keyboard-response","492","1759237","0.0-8.0-0.0-10.9","24","<p><img class= 'stimulus' src='images/baseline/pexels-photo-1837621.jpeg'></img></p>","null","","1550609092270","","","","","","",""
"null","","html-keyboard-response","493","1759337","0.0-8.0-0.0-11.9","24","<p><img class= 'stimulus' src='images/baseline/__08_-_ITALY_-_Forli_under_snow_-_winter_landscape_of_city_(christmas).jpg'></img></p>","null","","1550609092369","","","","","","",""
"null","","html-keyboard-response","494","1759436","0.0-8.0-0.0-12.9","24","<p><img class= 'stimulus' src='images/baseline/agriculture-bright-clouds-440731.jpg'></img></p>","null","","1550609092469","12","","","","","",""
"null","","html-keyboard-response","495","1759537","0.0-8.0-0.0-13.9","24","<p><img class= 'stimulus' src='images/baseline/building6.jpg'></img></p>","null","","1550609092568","","","","","","",""
"null","","html-keyboard-response","496","1759637","0.0-8.0-0.0-14.9","24","<p><img class= 'stimulus' src='images/baseline/Waterfall 1.jpg'></img></p>","null","","1550609092669","14","","","","","",""
"null","","html-keyboard-response","497","1759737","0.0-8.0-0.0-15.9","24","<p><img class= 'stimulus' src='images/baseline/Cold 7.jpg'></img></p>","null","","1550609092769","","","","","","",""
"null","","html-keyboard-response","498","1759837","0.0-8.0-0.0-16.9","24","<p><img class= 'stimulus' src='images/baseline/pexels-photo-541101.jpeg'></img></p>","null","","1550609092870","","","","","","",""
"null","","html-keyboard-response","499","1759953","0.0-8.0-0.0-17.9","24","<p><img class= 'stimulus' src='images/baseline/landscape2.jpg'></img></p>","null","","1550609092970","","","","","","",""
"1240.0999999954365","","html-button-response","500","1762200","0.0-8.0-0.0-18.9","24","<div class = ""response_question"">WAS THE IMAGE ROTATED...</div>","","1","","","6","2","bas","right","test","false"
"1478.1000000075437","","html-button-response","501","1763679","0.0-8.0-0.0-0.10","24","","","0","","","","","","","",""
"null","","html-keyboard-response","502","1763771","0.0-8.0-0.0-1.10","24","<p><img class= 'stimulus' src='images/baseline/house3.jpg'></img></p>","null","","1550609096803","","","","","","",""
"null","","html-keyboard-response","503","1763870","0.0-8.0-0.0-2.10","24","<p><img class= 'stimulus' src='images/baseline/dirt-road-or-trail-through-park.jpg'></img></p>","null","","1550609096902","","","","","","",""
"null","","html-keyboard-response","504","1763970","0.0-8.0-0.0-3.10","24","<p><img class= 'stimulus' src='images/baseline/03063v.jpg'></img></p>","null","","1550609097002","","","","","","",""
"null","","html-keyboard-response","505","1764070","0.0-8.0-0.0-4.10","24","<p><img class= 'stimulus' src='images/baseline/landscape8.jpg'></img></p>","null","","1550609097102","4","","","","","",""
"null","","html-keyboard-response","506","1764170","0.0-8.0-0.0-5.10","24","<p><img class= 'stimulus' src='images/baseline/04130v.jpg'></img></p>","null","","1550609097202","","","","","","",""
"null","","html-keyboard-response","507","1764270","0.0-8.0-0.0-6.10","24","<p><img class= 'stimulus' src='images/negative/Shark 5.jpg'></img></p>","null","","1550609097303","6","","","","","",""
