"rt","responses","trial_type","trial_index","time_elapsed","internal_node_id","participant_id","stimulus","key_press","button_pressed","stim_onset","sequence_position","distractor_position","target_lag","distractor_type","target_orientation","phase","correct"
"21107.50000000189","{""Q0"":""03""}","survey-text","0","21111","0.0-0.0","03","","","","","","","","","","",""
"1289777.299999998","","html-keyboard-response","1","1310897","0.0-1.0","03","Welcome to the experiment.","67","","","","","","","","",""
"8410","","html-button-response","2","1319311","0.0-2.0","03","<p>Several images will be presented sequentially.        Each image will only be on the screen for about 100 milliseconds.</p>        <p> One of the images may be rotated 90 degrees right or left.        Watch for this image and remember if it is rotated right or left.</p>               <p>Images of people and animals will appear, and sometimes they will be unpleasant.        These will never be the rotated target image.</p>","","0","","","","","","","",""
"3430.49999999837","","html-button-response","3","1322743","0.0-3.0","03","<p><img class=""stimulus left-rotate"" src=""images/target/tree.jpeg""></img></p><p>This is an example of an image rotated to the left.</p>","","0","","","","","","","",""
"1518.60000000312","","html-button-response","4","1324262","0.0-4.0","03","<p><img class=""stimulus"" src=""images/target/oak-1913194_640.jpg""></img></p><p>This is an example of an image rotated to the right.</p>","","0","","","","","","","",""
"6159.100000000792","","html-button-response","5","1330422","0.0-5.0","03","<p>We will now begin a short practice session.</p>         <p>A + symbol will appear in the middle of the screen. Please fix your gaze on the center of the +, and then click the mouse button to begin the image sequence.</p>         <p>Please avoid blinking or eye movements while the images are on the screen.</p>        <p>The image sequence will start relatively slow. After a few sequences, it will speed up.</p>","","0","","","","","","","",""
"5054.599999999395","","html-button-response","6","1335472","0.0-6.0-0.0","03","","","0","","","","","","","",""
"null","","html-keyboard-response","7","1335650","0.0-6.0-1.0","03","<p><img class= 'stimulus' src='images/baseline/05240v.jpg'></img></p>","null","","1549496080901","","","","","","",""
"null","","html-keyboard-response","8","1335850","0.0-6.0-2.0","03","<p><img class= 'stimulus' src='images/baseline/hills 4.jpg'></img></p>","null","","1549496081098","","","","","","",""
"null","","html-keyboard-response","9","1336050","0.0-6.0-3.0","03","<p><img class= 'stimulus' src='images/baseline/04098v.jpg'></img></p>","null","","1549496081300","","","","","","",""
"null","","html-keyboard-response","10","1336250","0.0-6.0-4.0","03","<p><img class= 'stimulus' src='images/baseline/landscape3.jpg'></img></p>","null","","1549496081499","4","","","","","",""
"null","","html-keyboard-response","11","1336450","0.0-6.0-5.0","03","<p><img class= 'stimulus' src='images/baseline/pexels-photo-210617.jpeg'></img></p>","null","","1549496081699","","","","","","",""
"null","","html-keyboard-response","12","1336650","0.0-6.0-6.0","03","<p><img class= 'stimulus' src='images/baseline/05264v.jpg'></img></p>","null","","1549496081900","6","","","","","",""
"null","","html-keyboard-response","13","1336851","0.0-6.0-7.0","03","<p><img class= 'stimulus' src='images/baseline/04193v.jpg'></img></p>","null","","1549496082102","","","","","","",""
"null","","html-keyboard-response","14","1337051","0.0-6.0-8.0","03","<p><img class= 'stimulus' src='images/target/landscape3.jpg'></img></p>","null","","1549496082300","8","","","","","",""
"null","","html-keyboard-response","15","1337253","0.0-6.0-9.0","03","<p><img class= 'stimulus' src='images/baseline/pexels-photo-1837621.jpeg'></img></p>","null","","1549496082501","","","","","","",""
"null","","html-keyboard-response","16","1337452","0.0-6.0-10.0","03","<p><img class= 'stimulus' src='images/baseline/04010v.jpg'></img></p>","null","","1549496082703","","","","","","",""
"null","","html-keyboard-response","17","1337653","0.0-6.0-11.0","03","<p><img class= 'stimulus' src='images/baseline/pexels-photo-1840893.jpeg'></img></p>","null","","1549496082901","","","","","","",""
"null","","html-keyboard-response","18","1337852","0.0-6.0-12.0","03","<p><img class= 'stimulus' src='images/baseline/04063v.jpg'></img></p>","null","","1549496083101","12","","","","","",""
"null","","html-keyboard-response","19","1338051","0.0-6.0-13.0","03","<p><img class= 'stimulus' src='images/baseline/05145v.jpg'></img></p>","null","","1549496083302","","","","","","",""
"null","","html-keyboard-response","20","1338252","0.0-6.0-14.0","03","<p><img class= 'stimulus' src='images/baseline/road 1(1).jpg'></img></p>","null","","1549496083501","14","","","","","",""
"null","","html-keyboard-response","21","1338452","0.0-6.0-15.0","03","<p><img class= 'stimulus' src='images/baseline/building3.jpg'></img></p>","null","","1549496083701","","","","","","",""
"null","","html-keyboard-response","22","1338652","0.0-6.0-16.0","03","<p><img class= 'stimulus' src='images/baseline/house1.jpg'></img></p>","null","","1549496083902","","","","","","",""
"null","","html-keyboard-response","23","1338871","0.0-6.0-17.0","03","<p><img class= 'stimulus' src='images/baseline/05242v.jpg'></img></p>","null","","1549496084101","","","","","","",""
"4437.299999997951","","html-button-response","24","1344313","0.0-6.0-18.0","03","<div class = ""response_question"">WAS THE IMAGE ROTATED...</div>","","3","","","6","2","bas","right","practice","true"
"8949.800000002142","","html-button-response","25","1353264","0.0-6.0-0.1","03","","","0","","","","","","","",""
"null","","html-keyboard-response","26","1353452","0.0-6.0-1.1","03","<p><img class= 'stimulus' src='images/baseline/house7.jpg'></img></p>","null","","1549496098702","","","","","","",""
"null","","html-keyboard-response","27","1353652","0.0-6.0-2.1","03","<p><img class= 'stimulus' src='images/baseline/landscape15.jpg'></img></p>","null","","1549496098901","","","","","","",""
"null","","html-keyboard-response","28","1353851","0.0-6.0-3.1","03","<p><img class= 'stimulus' src='images/baseline/03075v.jpg'></img></p>","null","","1549496099100","","","","","","",""
"null","","html-keyboard-response","29","1354051","0.0-6.0-4.1","03","<p><img class= 'stimulus' src='images/baseline/05139v.jpg'></img></p>","null","","1549496099301","4","","","","","",""
"null","","html-keyboard-response","30","1354252","0.0-6.0-5.1","03","<p><img class= 'stimulus' src='images/baseline/Lake 14.jpg'></img></p>","null","","1549496099501","","","","","","",""
"null","","html-keyboard-response","31","1354452","0.0-6.0-6.1","03","<p><img class= 'stimulus' src='images/baseline/seoul-410266_1920.jpg'></img></p>","null","","1549496099701","6","","","","","",""
"null","","html-keyboard-response","32","1354652","0.0-6.0-7.1","03","<p><img class= 'stimulus' src='images/baseline/Street 2.jpg'></img></p>","null","","1549496099901","","","","","","",""
"null","","html-keyboard-response","33","1354853","0.0-6.0-8.1","03","<p><img class= 'stimulus' src='images/baseline/farmhouse6.jpg'></img></p>","null","","1549496100102","8","","","","","",""
"null","","html-keyboard-response","34","1355053","0.0-6.0-9.1","03","<p><img class= 'stimulus' src='images/baseline/Grass 6.jpg'></img></p>","null","","1549496100301","","","","","","",""
"null","","html-keyboard-response","35","1355252","0.0-6.0-10.1","03","<p><img class= 'stimulus' src='images/baseline/city-silhouette-at-sunset-871291580819Esw.jpg'></img></p>","null","","1549496100502","","","","","","",""
"null","","html-keyboard-response","36","1355452","0.0-6.0-11.1","03","<p><img class= 'stimulus' src='images/baseline/pexels-photo-541101.jpeg'></img></p>","null","","1549496100702","","","","","","",""
"null","","html-keyboard-response","37","1355652","0.0-6.0-12.1","03","<p><img class= 'stimulus' src='images/baseline/town-square-in-wroclaw-1539098440MZy.jpg'></img></p>","null","","1549496100902","12","","","","","",""
"null","","html-keyboard-response","38","1355852","0.0-6.0-13.1","03","<p><img class= 'stimulus' src='images/baseline/field 2.jpg'></img></p>","null","","1549496101102","","","","","","",""
"null","","html-keyboard-response","39","1356053","0.0-6.0-14.1","03","<p><img class= 'stimulus left-rotate' src='images/target/dubai-1113262_640.jpg'></img></p>","null","","1549496101303","14","","","","","",""
"null","","html-keyboard-response","40","1356252","0.0-6.0-15.1","03","<p><img class= 'stimulus' src='images/baseline/pexels-photo-894312.jpeg'></img></p>","null","","1549496101502","","","","","","",""
"null","","html-keyboard-response","41","1356452","0.0-6.0-16.1","03","<p><img class= 'stimulus' src='images/baseline/pexels-photo-1048039.jpeg'></img></p>","null","","1549496101701","","","","","","",""
"null","","html-keyboard-response","42","1356669","0.0-6.0-17.1","03","<p><img class= 'stimulus' src='images/baseline/02988v.jpg'></img></p>","null","","1549496101902","","","","","","",""
"2205.6999999985565","","html-button-response","43","1359880","0.0-6.0-18.1","03","<div class = ""response_question"">WAS THE IMAGE ROTATED...</div>","","0","","","6","8","bas","left","practice","true"
"1846.6000000007916","","html-button-response","44","1361729","0.0-6.0-0.2","03","","","0","","","","","","","",""
"null","","html-keyboard-response","45","1361901","0.0-6.0-1.2","03","<p><img class= 'stimulus' src='images/baseline/04021v.jpg'></img></p>","null","","1549496107151","","","","","","",""
"null","","html-keyboard-response","46","1362102","0.0-6.0-2.2","03","<p><img class= 'stimulus' src='images/baseline/architecture-1314416_1920.jpg'></img></p>","null","","1549496107351","","","","","","",""
"null","","html-keyboard-response","47","1362301","0.0-6.0-3.2","03","<p><img class= 'stimulus' src='images/baseline/foreclosed_home.jpg'></img></p>","null","","1549496107552","","","","","","",""
"null","","html-keyboard-response","48","1362501","0.0-6.0-4.2","03","<p><img class= 'stimulus' src='images/baseline/red-rocks-park.jpg'></img></p>","null","","1549496107752","4","","","","","",""
"null","","html-keyboard-response","49","1362702","0.0-6.0-5.2","03","<p><img class= 'stimulus' src='images/baseline/05189v.jpg'></img></p>","null","","1549496107951","","","","","","",""
"null","","html-keyboard-response","50","1362902","0.0-6.0-6.2","03","<p><img class= 'stimulus' src='images/target/building3.jpg'></img></p>","null","","1549496108151","6","","","","","",""
"null","","html-keyboard-response","51","1363102","0.0-6.0-7.2","03","<p><img class= 'stimulus' src='images/baseline/Niinsaare_jarv.jpg'></img></p>","null","","1549496108351","","","","","","",""
"null","","html-keyboard-response","52","1363302","0.0-6.0-8.2","03","<p><img class= 'stimulus' src='images/baseline/hills 1.jpg'></img></p>","null","","1549496108552","8","","","","","",""
"null","","html-keyboard-response","53","1363503","0.0-6.0-9.2","03","<p><img class= 'stimulus' src='images/baseline/04086v.jpg'></img></p>","null","","1549496108751","","","","","","",""
"null","","html-keyboard-response","54","1363702","0.0-6.0-10.2","03","<p><img class= 'stimulus' src='images/baseline/horse_statue.jpg'></img></p>","null","","1549496108952","","","","","","",""
"null","","html-keyboard-response","55","1363901","0.0-6.0-11.2","03","<p><img class= 'stimulus' src='images/baseline/lone-old-cottonwood-tree.jpg'></img></p>","null","","1549496109152","","","","","","",""
"null","","html-keyboard-response","56","1364102","0.0-6.0-12.2","03","<p><img class= 'stimulus' src='images/baseline/03056v.jpg'></img></p>","null","","1549496109353","12","","","","","",""
"null","","html-keyboard-response","57","1364302","0.0-6.0-13.2","03","<p><img class= 'stimulus' src='images/baseline/Peyto_Lake-Banff_NP-Canada.jpg'></img></p>","null","","1549496109551","","","","","","",""
"null","","html-keyboard-response","58","1364501","0.0-6.0-14.2","03","<p><img class= 'stimulus' src='images/baseline/house3.jpg'></img></p>","null","","1549496109751","14","","","","","",""
"null","","html-keyboard-response","59","1364702","0.0-6.0-15.2","03","<p><img class= 'stimulus' src='images/baseline/pexels-photo-351264.jpeg'></img></p>","null","","1549496109952","","","","","","",""
"null","","html-keyboard-response","60","1364903","0.0-6.0-16.2","03","<p><img class= 'stimulus' src='images/baseline/meadow-with-mountain-in-background.jpg'></img></p>","null","","1549496110151","","","","","","",""
"null","","html-keyboard-response","61","1365118","0.0-6.0-17.2","03","<p><img class= 'stimulus' src='images/baseline/03066v.jpg'></img></p>","null","","1549496110352","","","","","","",""
"2267.400000000838","","html-button-response","62","1368393","0.0-6.0-18.2","03","<div class = ""response_question"">WAS THE IMAGE ROTATED...</div>","","4","","","4","2","bas","right","practice","true"
"1590.1999999985565","","html-button-response","63","1369984","0.0-6.0-0.3","03","","","0","","","","","","","",""
"null","","html-keyboard-response","64","1370167","0.0-6.0-1.3","03","<p><img class= 'stimulus' src='images/baseline/05247v.jpg'></img></p>","null","","1549496115418","","","","","","",""
"null","","html-keyboard-response","65","1370368","0.0-6.0-2.3","03","<p><img class= 'stimulus' src='images/baseline/grand-teton-mountains.jpg'></img></p>","null","","1549496115619","","","","","","",""
"null","","html-keyboard-response","66","1370568","0.0-6.0-3.3","03","<p><img class= 'stimulus' src='images/baseline/snowy tree.jpg'></img></p>","null","","1549496115817","","","","","","",""
"null","","html-keyboard-response","67","1370769","0.0-6.0-4.3","03","<p><img class= 'stimulus' src='images/baseline/kokkari-1523011968Xfr.jpg'></img></p>","null","","1549496116017","4","","","","","",""
"null","","html-keyboard-response","68","1370969","0.0-6.0-5.3","03","<p><img class= 'stimulus' src='images/baseline/pexels-photo-750108.jpeg'></img></p>","null","","1549496116218","","","","","","",""
"null","","html-keyboard-response","69","1371169","0.0-6.0-6.3","03","<p><img class= 'stimulus' src='images/baseline/house11.jpg'></img></p>","null","","1549496116418","6","","","","","",""
"null","","html-keyboard-response","70","1371369","0.0-6.0-7.3","03","<p><img class= 'stimulus' src='images/baseline/Sky 1.jpg'></img></p>","null","","1549496116618","","","","","","",""
"null","","html-keyboard-response","71","1371569","0.0-6.0-8.3","03","<p><img class= 'stimulus' src='images/baseline/landscape7.jpg'></img></p>","null","","1549496116818","8","","","","","",""
"null","","html-keyboard-response","72","1371771","0.0-6.0-9.3","03","<p><img class= 'stimulus' src='images/baseline/Sailing 3.jpg'></img></p>","null","","1549496117019","","","","","","",""
"null","","html-keyboard-response","73","1371969","0.0-6.0-10.3","03","<p><img class= 'stimulus' src='images/baseline/Bridge 1.jpg'></img></p>","null","","1549496117219","","","","","","",""
"null","","html-keyboard-response","74","1372170","0.0-6.0-11.3","03","<p><img class= 'stimulus' src='images/baseline/landscape34.jpg'></img></p>","null","","1549496117419","","","","","","",""
"null","","html-keyboard-response","75","1372369","0.0-6.0-12.3","03","<p><img class= 'stimulus left-rotate' src='images/target/lighthouse-843522_640.jpg'></img></p>","null","","1549496117619","12","","","","","",""
"null","","html-keyboard-response","76","1372569","0.0-6.0-13.3","03","<p><img class= 'stimulus' src='images/baseline/Street 1.jpg'></img></p>","null","","1549496117818","","","","","","",""
"null","","html-keyboard-response","77","1372769","0.0-6.0-14.3","03","<p><img class= 'stimulus' src='images/baseline/02962v.jpg'></img></p>","null","","1549496118020","14","","","","","",""
"null","","html-keyboard-response","78","1372969","0.0-6.0-15.3","03","<p><img class= 'stimulus' src='images/baseline/red rocks from afar.jpg'></img></p>","null","","1549496118218","","","","","","",""
"null","","html-keyboard-response","79","1373169","0.0-6.0-16.3","03","<p><img class= 'stimulus' src='images/baseline/building4.jpg'></img></p>","null","","1549496118419","","","","","","",""
"null","","html-keyboard-response","80","1373387","0.0-6.0-17.3","03","<p><img class= 'stimulus' src='images/baseline/05255v.jpg'></img></p>","null","","1549496118619","","","","","","",""
"1873.1999999983236","","html-button-response","81","1376264","0.0-6.0-18.3","03","<div class = ""response_question"">WAS THE IMAGE ROTATED...</div>","","0","","","4","8","bas","left","practice","true"
"1102.5999999984633","","html-button-response","82","1377368","0.0-6.0-0.4","03","","","0","","","","","","","",""
"null","","html-keyboard-response","83","1377501","0.0-6.0-1.4","03","<p><img class= 'stimulus' src='images/baseline/landscape11.jpg'></img></p>","null","","1549496122803","","","","","","",""
"null","","html-keyboard-response","84","1377651","0.0-6.0-2.4","03","<p><img class= 'stimulus' src='images/baseline/house8.jpg'></img></p>","null","","1549496122952","","","","","","",""
"null","","html-keyboard-response","85","1377802","0.0-6.0-3.4","03","<p><img class= 'stimulus' src='images/baseline/sunset-over-the-lake.jpg'></img></p>","null","","1549496123101","","","","","","",""
"null","","html-keyboard-response","86","1377952","0.0-6.0-4.4","03","<p><img class= 'stimulus' src='images/baseline/lake 2.jpg'></img></p>","null","","1549496123251","4","","","","","",""
"null","","html-keyboard-response","87","1378102","0.0-6.0-5.4","03","<p><img class= 'stimulus' src='images/baseline/04179v.jpg'></img></p>","null","","1549496123401","","","","","","",""
"null","","html-keyboard-response","88","1378251","0.0-6.0-6.4","03","<p><img class= 'stimulus' src='images/baseline/tennis-court-net-buried-in-snow.jpg'></img></p>","null","","1549496123551","6","","","","","",""
"null","","html-keyboard-response","89","1378401","0.0-6.0-7.4","03","<p><img class= 'stimulus' src='images/baseline/Kocherbaumwald-01.jpg'></img></p>","null","","1549496123701","","","","","","",""
"null","","html-keyboard-response","90","1378552","0.0-6.0-8.4","03","<p><img class= 'stimulus left-rotate' src='images/target/dreifaltigkeitskirche_sandhausen_837699.jpg'></img></p>","null","","1549496123850","8","","","","","",""
"null","","html-keyboard-response","91","1378702","0.0-6.0-9.4","03","<p><img class= 'stimulus' src='images/baseline/02945v.jpg'></img></p>","null","","1549496124002","","","","","","",""
"null","","html-keyboard-response","92","1378851","0.0-6.0-10.4","03","<p><img class= 'stimulus' src='images/baseline/05292v.jpg'></img></p>","null","","1549496124151","","","","","","",""
"null","","html-keyboard-response","93","1379001","0.0-6.0-11.4","03","<p><img class= 'stimulus' src='images/baseline/Nature 1.jpg'></img></p>","null","","1549496124301","","","","","","",""
"null","","html-keyboard-response","94","1379151","0.0-6.0-12.4","03","<p><img class= 'stimulus' src='images/baseline/04158v.jpg'></img></p>","null","","1549496124452","12","","","","","",""
"null","","html-keyboard-response","95","1379301","0.0-6.0-13.4","03","<p><img class= 'stimulus' src='images/baseline/Desert_View_Indian_Wells.jpg'></img></p>","null","","1549496124600","","","","","","",""
"null","","html-keyboard-response","96","1379451","0.0-6.0-14.4","03","<p><img class= 'stimulus' src='images/baseline/Lake 5.jpg'></img></p>","null","","1549496124751","14","","","","","",""
"null","","html-keyboard-response","97","1379602","0.0-6.0-15.4","03","<p><img class= 'stimulus' src='images/baseline/Beach 3.jpg'></img></p>","null","","1549496124900","","","","","","",""
"null","","html-keyboard-response","98","1379751","0.0-6.0-16.4","03","<p><img class= 'stimulus' src='images/baseline/building9.jpg'></img></p>","null","","1549496125051","","","","","","",""
"null","","html-keyboard-response","99","1379917","0.0-6.0-17.4","03","<p><img class= 'stimulus' src='images/baseline/landscape16.jpg'></img></p>","null","","1549496125201","","","","","","",""
"1364.9000000006054","","html-button-response","100","1382289","0.0-6.0-18.4","03","<div class = ""response_question"">WAS THE IMAGE ROTATED...</div>","","0","","","6","2","bas","left","practice","true"
"2886.600000001723","","html-button-response","101","1385176","0.0-6.0-0.5","03","","","0","","","","","","","",""
"null","","html-keyboard-response","102","1385301","0.0-6.0-1.5","03","<p><img class= 'stimulus' src='images/baseline/valley 1.jpg'></img></p>","null","","1549496130600","","","","","","",""
"null","","html-keyboard-response","103","1385451","0.0-6.0-2.5","03","<p><img class= 'stimulus' src='images/baseline/05203v.jpg'></img></p>","null","","1549496130750","","","","","","",""
"null","","html-keyboard-response","104","1385601","0.0-6.0-3.5","03","<p><img class= 'stimulus' src='images/baseline/landscape6.jpg'></img></p>","null","","1549496130900","","","","","","",""
"null","","html-keyboard-response","105","1385751","0.0-6.0-4.5","03","<p><img class= 'stimulus' src='images/baseline/03162v.jpg'></img></p>","null","","1549496131050","4","","","","","",""
"null","","html-keyboard-response","106","1385900","0.0-6.0-5.5","03","<p><img class= 'stimulus' src='images/baseline/Lake 7.jpg'></img></p>","null","","1549496131201","","","","","","",""
"null","","html-keyboard-response","107","1386050","0.0-6.0-6.5","03","<p><img class= 'stimulus' src='images/baseline/building_at_national_conservation.jpg'></img></p>","null","","1549496131351","6","","","","","",""
"null","","html-keyboard-response","108","1386201","0.0-6.0-7.5","03","<p><img class= 'stimulus' src='images/baseline/farmhouse8.jpg'></img></p>","null","","1549496131500","","","","","","",""
"null","","html-keyboard-response","109","1386351","0.0-6.0-8.5","03","<p><img class= 'stimulus' src='images/baseline/Nature 2.jpg'></img></p>","null","","1549496131651","8","","","","","",""
"null","","html-keyboard-response","110","1386501","0.0-6.0-9.5","03","<p><img class= 'stimulus' src='images/baseline/landscape22.jpg'></img></p>","null","","1549496131800","","","","","","",""
"null","","html-keyboard-response","111","1386651","0.0-6.0-10.5","03","<p><img class= 'stimulus' src='images/baseline/04130v.jpg'></img></p>","null","","1549496131950","","","","","","",""
"null","","html-keyboard-response","112","1386801","0.0-6.0-11.5","03","<p><img class= 'stimulus' src='images/baseline/05161v.jpg'></img></p>","null","","1549496132100","","","","","","",""
"null","","html-keyboard-response","113","1386951","0.0-6.0-12.5","03","<p><img class= 'stimulus' src='images/baseline/landscape35.jpg'></img></p>","null","","1549496132250","12","","","","","",""
"null","","html-keyboard-response","114","1387100","0.0-6.0-13.5","03","<p><img class= 'stimulus' src='images/baseline/03041v.jpg'></img></p>","null","","1549496132400","","","","","","",""
"null","","html-keyboard-response","115","1387250","0.0-6.0-14.5","03","<p><img class= 'stimulus' src='images/target/palm-trees-1209125_640.jpg'></img></p>","null","","1549496132551","14","","","","","",""
"null","","html-keyboard-response","116","1387400","0.0-6.0-15.5","03","<p><img class= 'stimulus' src='images/baseline/lake3.jpg'></img></p>","null","","1549496132701","","","","","","",""
"null","","html-keyboard-response","117","1387551","0.0-6.0-16.5","03","<p><img class= 'stimulus' src='images/baseline/Skyscraper 1.jpg'></img></p>","null","","1549496132850","","","","","","",""
"null","","html-keyboard-response","118","1387717","0.0-6.0-17.5","03","<p><img class= 'stimulus' src='images/baseline/04162v.jpg'></img></p>","null","","1549496132999","","","","","","",""
"1291.699999997858","","html-button-response","119","1390025","0.0-6.0-18.5","03","<div class = ""response_question"">WAS THE IMAGE ROTATED...</div>","","3","","","6","8","bas","right","practice","true"
"1022.3000000005122","","html-button-response","120","1391048","0.0-6.0-0.6","03","","","0","","","","","","","",""
"null","","html-keyboard-response","121","1391185","0.0-6.0-1.6","03","<p><img class= 'stimulus' src='images/baseline/farmhouse1.jpg'></img></p>","null","","1549496136484","","","","","","",""
"null","","html-keyboard-response","122","1391335","0.0-6.0-2.6","03","<p><img class= 'stimulus' src='images/baseline/dirt-road-or-trail-through-park.jpg'></img></p>","null","","1549496136635","","","","","","",""
"null","","html-keyboard-response","123","1391485","0.0-6.0-3.6","03","<p><img class= 'stimulus' src='images/baseline/Street 4.jpg'></img></p>","null","","1549496136784","","","","","","",""
"null","","html-keyboard-response","124","1391635","0.0-6.0-4.6","03","<p><img class= 'stimulus' src='images/baseline/02977v.jpg'></img></p>","null","","1549496136934","4","","","","","",""
"null","","html-keyboard-response","125","1391784","0.0-6.0-5.6","03","<p><img class= 'stimulus' src='images/baseline/05167v.jpg'></img></p>","null","","1549496137084","","","","","","",""
"null","","html-keyboard-response","126","1391935","0.0-6.0-6.6","03","<p><img class= 'stimulus left-rotate' src='images/target/cactus1.jpg'></img></p>","null","","1549496137233","6","","","","","",""
"null","","html-keyboard-response","127","1392085","0.0-6.0-7.6","03","<p><img class= 'stimulus' src='images/baseline/Sunset 4.jpg'></img></p>","null","","1549496137383","","","","","","",""
"null","","html-keyboard-response","128","1392235","0.0-6.0-8.6","03","<p><img class= 'stimulus' src='images/baseline/05186v.jpg'></img></p>","null","","1549496137533","8","","","","","",""
"null","","html-keyboard-response","129","1392384","0.0-6.0-9.6","03","<p><img class= 'stimulus' src='images/baseline/farmhouse4.jpg'></img></p>","null","","1549496137683","","","","","","",""
"null","","html-keyboard-response","130","1392534","0.0-6.0-10.6","03","<p><img class= 'stimulus' src='images/baseline/Street 5.jpg'></img></p>","null","","1549496137834","","","","","","",""
"null","","html-keyboard-response","131","1392684","0.0-6.0-11.6","03","<p><img class= 'stimulus' src='images/baseline/Skijump 1.jpg'></img></p>","null","","1549496137984","","","","","","",""
"null","","html-keyboard-response","132","1392834","0.0-6.0-12.6","03","<p><img class= 'stimulus' src='images/baseline/Paysage_enneige_02.jpg'></img></p>","null","","1549496138134","12","","","","","",""
"null","","html-keyboard-response","133","1392985","0.0-6.0-13.6","03","<p><img class= 'stimulus' src='images/baseline/04196v.jpg'></img></p>","null","","1549496138283","","","","","","",""
"null","","html-keyboard-response","134","1393135","0.0-6.0-14.6","03","<p><img class= 'stimulus' src='images/baseline/farmhouse11.jpg'></img></p>","null","","1549496138433","14","","","","","",""
"null","","html-keyboard-response","135","1393285","0.0-6.0-15.6","03","<p><img class= 'stimulus' src='images/baseline/Happy pose 3.jpg'></img></p>","null","","1549496138584","","","","","","",""
"null","","html-keyboard-response","136","1393434","0.0-6.0-16.6","03","<p><img class= 'stimulus' src='images/baseline/Beach 8.jpg'></img></p>","null","","1549496138734","","","","","","",""
"null","","html-keyboard-response","137","1393601","0.0-6.0-17.6","03","<p><img class= 'stimulus' src='images/baseline/landscape4.jpg'></img></p>","null","","1549496138884","","","","","","",""
"1072.799999997951","","html-button-response","138","1395682","0.0-6.0-18.6","03","<div class = ""response_question"">WAS THE IMAGE ROTATED...</div>","","0","","","4","2","bas","left","practice","true"
"3014.499999997439","","html-button-response","139","1398697","0.0-6.0-0.7","03","","","0","","","","","","","",""
"null","","html-keyboard-response","140","1398834","0.0-6.0-1.7","03","<p><img class= 'stimulus' src='images/baseline/architecture-956332_1280.jpg'></img></p>","null","","1549496144135","","","","","","",""
"null","","html-keyboard-response","141","1398985","0.0-6.0-2.7","03","<p><img class= 'stimulus' src='images/baseline/Bahia_Onelli_Parque_Nacional_Los_Glaciares_Patagonia_Argentina_Luca_Galuzzi_2005.jpg'></img></p>","null","","1549496144286","","","","","","",""
"null","","html-keyboard-response","142","1399135","0.0-6.0-3.7","03","<p><img class= 'stimulus' src='images/baseline/house6.jpg'></img></p>","null","","1549496144434","","","","","","",""
"null","","html-keyboard-response","143","1399285","0.0-6.0-4.7","03","<p><img class= 'stimulus' src='images/baseline/Cold 7.jpg'></img></p>","null","","1549496144583","4","","","","","",""
"null","","html-keyboard-response","144","1399435","0.0-6.0-5.7","03","<p><img class= 'stimulus' src='images/baseline/scenic-mountain-landscape.jpg'></img></p>","null","","1549496144734","","","","","","",""
"null","","html-keyboard-response","145","1399585","0.0-6.0-6.7","03","<p><img class= 'stimulus' src='images/baseline/farmhouse7.jpg'></img></p>","null","","1549496144885","6","","","","","",""
"null","","html-keyboard-response","146","1399735","0.0-6.0-7.7","03","<p><img class= 'stimulus' src='images/baseline/05279v.jpg'></img></p>","null","","1549496145034","","","","","","",""
"null","","html-keyboard-response","147","1399885","0.0-6.0-8.7","03","<p><img class= 'stimulus' src='images/baseline/02982v.jpg'></img></p>","null","","1549496145186","8","","","","","",""
"null","","html-keyboard-response","148","1400035","0.0-6.0-9.7","03","<p><img class= 'stimulus' src='images/baseline/04064v.jpg'></img></p>","null","","1549496145335","","","","","","",""
"null","","html-keyboard-response","149","1400185","0.0-6.0-10.7","03","<p><img class= 'stimulus' src='images/baseline/field 3.jpg'></img></p>","null","","1549496145485","","","","","","",""
"null","","html-keyboard-response","150","1400335","0.0-6.0-11.7","03","<p><img class= 'stimulus' src='images/baseline/farmhouse9.jpg'></img></p>","null","","1549496145635","","","","","","",""
"null","","html-keyboard-response","151","1400485","0.0-6.0-12.7","03","<p><img class= 'stimulus' src='images/target/torrotito-375925_640.jpg'></img></p>","null","","1549496145784","12","","","","","",""
"null","","html-keyboard-response","152","1400635","0.0-6.0-13.7","03","<p><img class= 'stimulus' src='images/baseline/field 4.jpg'></img></p>","null","","1549496145935","","","","","","",""
"null","","html-keyboard-response","153","1400785","0.0-6.0-14.7","03","<p><img class= 'stimulus' src='images/baseline/flooded-bridge.jpg'></img></p>","null","","1549496146085","14","","","","","",""
"null","","html-keyboard-response","154","1400935","0.0-6.0-15.7","03","<p><img class= 'stimulus' src='images/baseline/landscape31.jpg'></img></p>","null","","1549496146235","","","","","","",""
"null","","html-keyboard-response","155","1401084","0.0-6.0-16.7","03","<p><img class= 'stimulus' src='images/baseline/landscape12.jpg'></img></p>","null","","1549496146384","","","","","","",""
"null","","html-keyboard-response","156","1401252","0.0-6.0-17.7","03","<p><img class= 'stimulus' src='images/baseline/pexels-photo-459203.jpeg'></img></p>","null","","1549496146534","","","","","","",""
"1623.7000000001863","","html-button-response","157","1403890","0.0-6.0-18.7","03","<div class = ""response_question"">WAS THE IMAGE ROTATED...</div>","","3","","","4","8","bas","right","practice","true"
"966.400000001071","","html-button-response","158","1404857","0.0-6.0-0.8","03","","","0","","","","","","","",""
"null","","html-keyboard-response","159","1404935","0.0-6.0-1.8","03","<p><img class= 'stimulus' src='images/baseline/house2.jpg'></img></p>","null","","1549496150286","","","","","","",""
"null","","html-keyboard-response","160","1405035","0.0-6.0-2.8","03","<p><img class= 'stimulus' src='images/baseline/03045v.jpg'></img></p>","null","","1549496150384","","","","","","",""
"null","","html-keyboard-response","161","1405135","0.0-6.0-3.8","03","<p><img class= 'stimulus' src='images/baseline/pexels-photo-440731.jpeg'></img></p>","null","","1549496150486","","","","","","",""
"null","","html-keyboard-response","162","1405235","0.0-6.0-4.8","03","<p><img class= 'stimulus' src='images/baseline/building12.jpg'></img></p>","null","","1549496150584","4","","","","","",""
"null","","html-keyboard-response","163","1405335","0.0-6.0-5.8","03","<p><img class= 'stimulus' src='images/baseline/landscape38.jpg'></img></p>","null","","1549496150684","","","","","","",""
"null","","html-keyboard-response","164","1405435","0.0-6.0-6.8","03","<p><img class= 'stimulus' src='images/baseline/autumn-in-red-rocks-park.jpg'></img></p>","null","","1549496150785","6","","","","","",""
"null","","html-keyboard-response","165","1405535","0.0-6.0-7.8","03","<p><img class= 'stimulus' src='images/baseline/Sunset 5.jpg'></img></p>","null","","1549496150884","","","","","","",""
"null","","html-keyboard-response","166","1405636","0.0-6.0-8.8","03","<p><img class= 'stimulus left-rotate' src='images/target/lone-tree-1934897_640.jpg'></img></p>","null","","1549496150984","8","","","","","",""
"null","","html-keyboard-response","167","1405735","0.0-6.0-9.8","03","<p><img class= 'stimulus' src='images/baseline/cyrillic.jpg'></img></p>","null","","1549496151085","","","","","","",""
"null","","html-keyboard-response","168","1405834","0.0-6.0-10.8","03","<p><img class= 'stimulus' src='images/baseline/chicago-skyline-at-night-1476869511p8U.jpg'></img></p>","null","","1549496151184","","","","","","",""
"null","","html-keyboard-response","169","1405934","0.0-6.0-11.8","03","<p><img class= 'stimulus' src='images/baseline/pexels-photo-414491.jpeg'></img></p>","null","","1549496151284","","","","","","",""
"null","","html-keyboard-response","170","1406036","0.0-6.0-12.8","03","<p><img class= 'stimulus' src='images/baseline/building8.jpg'></img></p>","null","","1549496151385","12","","","","","",""
"null","","html-keyboard-response","171","1406134","0.0-6.0-13.8","03","<p><img class= 'stimulus' src='images/baseline/pexels-photo-221125.jpeg'></img></p>","null","","1549496151485","","","","","","",""
"null","","html-keyboard-response","172","1406234","0.0-6.0-14.8","03","<p><img class= 'stimulus' src='images/baseline/Lake 15.jpg'></img></p>","null","","1549496151585","14","","","","","",""
"null","","html-keyboard-response","173","1406335","0.0-6.0-15.8","03","<p><img class= 'stimulus' src='images/baseline/landscape39.jpg'></img></p>","null","","1549496151684","","","","","","",""
"null","","html-keyboard-response","174","1406435","0.0-6.0-16.8","03","<p><img class= 'stimulus' src='images/baseline/valley 2.jpg'></img></p>","null","","1549496151783","","","","","","",""
"null","","html-keyboard-response","175","1406552","0.0-6.0-17.8","03","<p><img class= 'stimulus' src='images/baseline/landscape2.jpg'></img></p>","null","","1549496151885","","","","","","",""
"1532.9999999995343","","html-button-response","176","1409090","0.0-6.0-18.8","03","<div class = ""response_question"">WAS THE IMAGE ROTATED...</div>","","0","","","6","2","bas","left","practice","true"
"1022.4999999990687","","html-button-response","177","1410113","0.0-6.0-0.9","03","","","0","","","","","","","",""
"null","","html-keyboard-response","178","1410186","0.0-6.0-1.9","03","<p><img class= 'stimulus' src='images/baseline/Freudenberg_sg_Switzerland.jpg'></img></p>","null","","1549496155535","","","","","","",""
"null","","html-keyboard-response","179","1410286","0.0-6.0-2.9","03","<p><img class= 'stimulus' src='images/baseline/autumn-landscape-with-lake-fall-trees-mountains.jpg'></img></p>","null","","1549496155635","","","","","","",""
"null","","html-keyboard-response","180","1410385","0.0-6.0-3.9","03","<p><img class= 'stimulus' src='images/baseline/pexels-photo-808465.jpeg'></img></p>","null","","1549496155735","","","","","","",""
"null","","html-keyboard-response","181","1410485","0.0-6.0-4.9","03","<p><img class= 'stimulus' src='images/baseline/Aletschgletscher-Eggishorn.jpg'></img></p>","null","","1549496155834","4","","","","","",""
"null","","html-keyboard-response","182","1410585","0.0-6.0-5.9","03","<p><img class= 'stimulus' src='images/baseline/field 1.jpg'></img></p>","null","","1549496155935","","","","","","",""
"null","","html-keyboard-response","183","1410685","0.0-6.0-6.9","03","<p><img class= 'stimulus left-rotate' src='images/target/tree_2.jpg'></img></p>","null","","1549496156035","6","","","","","",""
"null","","html-keyboard-response","184","1410785","0.0-6.0-7.9","03","<p><img class= 'stimulus' src='images/baseline/Beach 2.jpg'></img></p>","null","","1549496156135","","","","","","",""
"null","","html-keyboard-response","185","1410885","0.0-6.0-8.9","03","<p><img class= 'stimulus' src='images/baseline/trees 23.jpg'></img></p>","null","","1549496156234","8","","","","","",""
"null","","html-keyboard-response","186","1410986","0.0-6.0-9.9","03","<p><img class= 'stimulus' src='images/baseline/02947v.jpg'></img></p>","null","","1549496156336","","","","","","",""
"null","","html-keyboard-response","187","1411086","0.0-6.0-10.9","03","<p><img class= 'stimulus' src='images/baseline/Street 3.jpg'></img></p>","null","","1549496156435","","","","","","",""
"null","","html-keyboard-response","188","1411185","0.0-6.0-11.9","03","<p><img class= 'stimulus' src='images/baseline/sun-through-winter-tree-branches1.jpg'></img></p>","null","","1549496156536","","","","","","",""
"null","","html-keyboard-response","189","1411286","0.0-6.0-12.9","03","<p><img class= 'stimulus' src='images/baseline/river 1.jpg'></img></p>","null","","1549496156635","12","","","","","",""
"null","","html-keyboard-response","190","1411385","0.0-6.0-13.9","03","<p><img class= 'stimulus' src='images/baseline/vintage-art-deco-storefront.jpg'></img></p>","null","","1549496156735","","","","","","",""
"null","","html-keyboard-response","191","1411485","0.0-6.0-14.9","03","<p><img class= 'stimulus' src='images/baseline/farmhouse3.jpg'></img></p>","null","","1549496156834","14","","","","","",""
"null","","html-keyboard-response","192","1411585","0.0-6.0-15.9","03","<p><img class= 'stimulus' src='images/baseline/Paysage_karabagh_02.jpg'></img></p>","null","","1549496156934","","","","","","",""
"null","","html-keyboard-response","193","1411685","0.0-6.0-16.9","03","<p><img class= 'stimulus' src='images/baseline/landscape37.jpg'></img></p>","null","","1549496157035","","","","","","",""
"null","","html-keyboard-response","194","1411802","0.0-6.0-17.9","03","<p><img class= 'stimulus' src='images/baseline/04014v.jpg'></img></p>","null","","1549496157133","","","","","","",""
"1963.299999999348","","html-button-response","195","1414769","0.0-6.0-18.9","03","<div class = ""response_question"">WAS THE IMAGE ROTATED...</div>","","0","","","4","2","bas","left","practice","true"
"958.6999999992549","","html-button-response","196","1415729","0.0-6.0-0.10","03","","","0","","","","","","","",""
"null","","html-keyboard-response","197","1415801","0.0-6.0-1.10","03","<p><img class= 'stimulus' src='images/baseline/pexels-photo-1054289.jpeg'></img></p>","null","","1549496161151","","","","","","",""
"null","","html-keyboard-response","198","1415901","0.0-6.0-2.10","03","<p><img class= 'stimulus' src='images/baseline/landscape17.jpg'></img></p>","null","","1549496161250","","","","","","",""
"null","","html-keyboard-response","199","1416002","0.0-6.0-3.10","03","<p><img class= 'stimulus' src='images/baseline/04062v.jpg'></img></p>","null","","1549496161351","","","","","","",""
"null","","html-keyboard-response","200","1416102","0.0-6.0-4.10","03","<p><img class= 'stimulus' src='images/baseline/building16.jpg'></img></p>","null","","1549496161451","4","","","","","",""
"null","","html-keyboard-response","201","1416203","0.0-6.0-5.10","03","<p><img class= 'stimulus' src='images/baseline/bird-flying-at-sunset.jpg'></img></p>","null","","1549496161551","","","","","","",""
"null","","html-keyboard-response","202","1416301","0.0-6.0-6.10","03","<p><img class= 'stimulus' src='images/baseline/__08_-_ITALY_-_Forli_under_snow_-_winter_landscape_of_city_(christmas).jpg'></img></p>","null","","1549496161652","6","","","","","",""
"null","","html-keyboard-response","203","1416401","0.0-6.0-7.10","03","<p><img class= 'stimulus' src='images/baseline/pexels-photo-280222.jpeg'></img></p>","null","","1549496161751","","","","","","",""
"null","","html-keyboard-response","204","1416503","0.0-6.0-8.10","03","<p><img class= 'stimulus' src='images/baseline/04229v.jpg'></img></p>","null","","1549496161851","8","","","","","",""
"null","","html-keyboard-response","205","1416601","0.0-6.0-9.10","03","<p><img class= 'stimulus' src='images/baseline/farmhouse2.jpg'></img></p>","null","","1549496161951","","","","","","",""
"null","","html-keyboard-response","206","1416701","0.0-6.0-10.10","03","<p><img class= 'stimulus' src='images/baseline/Sidewalk 4.jpg'></img></p>","null","","1549496162052","","","","","","",""
"null","","html-keyboard-response","207","1416801","0.0-6.0-11.10","03","<p><img class= 'stimulus' src='images/baseline/Skyscraper 2.jpg'></img></p>","null","","1549496162152","","","","","","",""
"null","","html-keyboard-response","208","1416902","0.0-6.0-12.10","03","<p><img class= 'stimulus left-rotate' src='images/target/Wild-West-South-West-Usa-Landscape-America-1663497.jpg'></img></p>","null","","1549496162251","12","","","","","",""
"null","","html-keyboard-response","209","1417001","0.0-6.0-13.10","03","<p><img class= 'stimulus' src='images/baseline/building6.jpg'></img></p>","null","","1549496162351","","","","","","",""
"null","","html-keyboard-response","210","1417102","0.0-6.0-14.10","03","<p><img class= 'stimulus' src='images/baseline/building5.jpg'></img></p>","null","","1549496162451","14","","","","","",""
"null","","html-keyboard-response","211","1417202","0.0-6.0-15.10","03","<p><img class= 'stimulus' src='images/baseline/05252v.jpg'></img></p>","null","","1549496162551","","","","","","",""
"null","","html-keyboard-response","212","1417302","0.0-6.0-16.10","03","<p><img class= 'stimulus' src='images/baseline/05179v.jpg'></img></p>","null","","1549496162651","","","","","","",""
"null","","html-keyboard-response","213","1417418","0.0-6.0-17.10","03","<p><img class= 'stimulus' src='images/baseline/04085v.jpg'></img></p>","null","","1549496162752","","","","","","",""
"2473.99999999837","","html-button-response","214","1420897","0.0-6.0-18.10","03","<div class = ""response_question"">WAS THE IMAGE ROTATED...</div>","","0","","","4","8","bas","left","practice","true"
"1638.399999999674","","html-button-response","215","1422537","0.0-6.0-0.11","03","","","0","","","","","","","",""
"null","","html-keyboard-response","216","1422619","0.0-6.0-1.11","03","<p><img class= 'stimulus' src='images/baseline/03204v.jpg'></img></p>","null","","1549496167967","","","","","","",""
"null","","html-keyboard-response","217","1422718","0.0-6.0-2.11","03","<p><img class= 'stimulus' src='images/baseline/05198v.jpg'></img></p>","null","","1549496168069","","","","","","",""
"null","","html-keyboard-response","218","1422819","0.0-6.0-3.11","03","<p><img class= 'stimulus' src='images/baseline/pexels-photo-259280.jpeg'></img></p>","null","","1549496168168","","","","","","",""
"null","","html-keyboard-response","219","1422919","0.0-6.0-4.11","03","<p><img class= 'stimulus' src='images/baseline/building2.jpg'></img></p>","null","","1549496168268","4","","","","","",""
"null","","html-keyboard-response","220","1423018","0.0-6.0-5.11","03","<p><img class= 'stimulus' src='images/baseline/04031v.jpg'></img></p>","null","","1549496168368","","","","","","",""
"null","","html-keyboard-response","221","1423119","0.0-6.0-6.11","03","<p><img class= 'stimulus' src='images/baseline/landscape40.jpg'></img></p>","null","","1549496168470","6","","","","","",""
"null","","html-keyboard-response","222","1423219","0.0-6.0-7.11","03","<p><img class= 'stimulus' src='images/baseline/03112v.jpg'></img></p>","null","","1549496168570","","","","","","",""
"null","","html-keyboard-response","223","1423319","0.0-6.0-8.11","03","<p><img class= 'stimulus' src='images/baseline/03220v.jpg'></img></p>","null","","1549496168670","8","","","","","",""
"null","","html-keyboard-response","224","1423420","0.0-6.0-9.11","03","<p><img class= 'stimulus' src='images/baseline/05303v.jpg'></img></p>","null","","1549496168768","","","","","","",""
"null","","html-keyboard-response","225","1423518","0.0-6.0-10.11","03","<p><img class= 'stimulus' src='images/baseline/Road 1.jpg'></img></p>","null","","1549496168868","","","","","","",""
"null","","html-keyboard-response","226","1423619","0.0-6.0-11.11","03","<p><img class= 'stimulus' src='images/baseline/architecture_modern_architecture_852928.jpg'></img></p>","null","","1549496168967","","","","","","",""
"null","","html-keyboard-response","227","1423719","0.0-6.0-12.11","03","<p><img class= 'stimulus' src='images/baseline/05280v.jpg'></img></p>","null","","1549496169067","12","","","","","",""
"null","","html-keyboard-response","228","1423819","0.0-6.0-13.11","03","<p><img class= 'stimulus' src='images/baseline/empire-state-building.jpg'></img></p>","null","","1549496169169","","","","","","",""
"null","","html-keyboard-response","229","1423919","0.0-6.0-14.11","03","<p><img class= 'stimulus left-rotate' src='images/target/house-estate-1100x733.jpg'></img></p>","null","","1549496169267","14","","","","","",""
"null","","html-keyboard-response","230","1424019","0.0-6.0-15.11","03","<p><img class= 'stimulus' src='images/baseline/landscape1.jpg'></img></p>","null","","1549496169368","","","","","","",""
"null","","html-keyboard-response","231","1424118","0.0-6.0-16.11","03","<p><img class= 'stimulus' src='images/baseline/Dock 1.jpg'></img></p>","null","","1549496169468","","","","","","",""
"null","","html-keyboard-response","232","1424235","0.0-6.0-17.11","03","<p><img class= 'stimulus' src='images/baseline/house10.jpg'></img></p>","null","","1549496169569","","","","","","",""
"1121.2999999988824","","html-button-response","233","1426362","0.0-6.0-18.11","03","<div class = ""response_question"">WAS THE IMAGE ROTATED...</div>","","0","","","6","8","bas","left","practice","true"
"3614.499999999767","","html-button-response","234","1429977","0.0-6.0-0.12","03","","","0","","","","","","","",""
"null","","html-keyboard-response","235","1430052","0.0-6.0-1.12","03","<p><img class= 'stimulus' src='images/baseline/03148v.jpg'></img></p>","null","","1549496175401","","","","","","",""
"null","","html-keyboard-response","236","1430152","0.0-6.0-2.12","03","<p><img class= 'stimulus' src='images/baseline/pexels-photo-568236.jpeg'></img></p>","null","","1549496175501","","","","","","",""
"null","","html-keyboard-response","237","1430252","0.0-6.0-3.12","03","<p><img class= 'stimulus' src='images/baseline/landscape23.jpg'></img></p>","null","","1549496175601","","","","","","",""
"null","","html-keyboard-response","238","1430352","0.0-6.0-4.12","03","<p><img class= 'stimulus' src='images/baseline/Lake 4.jpg'></img></p>","null","","1549496175702","4","","","","","",""
"null","","html-keyboard-response","239","1430452","0.0-6.0-5.12","03","<p><img class= 'stimulus' src='images/baseline/Lake 3.jpg'></img></p>","null","","1549496175801","","","","","","",""
"null","","html-keyboard-response","240","1430552","0.0-6.0-6.12","03","<p><img class= 'stimulus' src='images/baseline/Linden,_paysage.jpg'></img></p>","null","","1549496175900","6","","","","","",""
"null","","html-keyboard-response","241","1430652","0.0-6.0-7.12","03","<p><img class= 'stimulus' src='images/baseline/landscape36.jpg'></img></p>","null","","1549496176001","","","","","","",""
"null","","html-keyboard-response","242","1430752","0.0-6.0-8.12","03","<p><img class= 'stimulus' src='images/baseline/Waterfall 1.jpg'></img></p>","null","","1549496176101","8","","","","","",""
"null","","html-keyboard-response","243","1430851","0.0-6.0-9.12","03","<p><img class= 'stimulus' src='images/baseline/agriculture-cereal-clouds-175389.jpg'></img></p>","null","","1549496176201","","","","","","",""
"null","","html-keyboard-response","244","1430952","0.0-6.0-10.12","03","<p><img class= 'stimulus' src='images/baseline/Lake 9.jpg'></img></p>","null","","1549496176301","","","","","","",""
"null","","html-keyboard-response","245","1431053","0.0-6.0-11.12","03","<p><img class= 'stimulus' src='images/baseline/03063v.jpg'></img></p>","null","","1549496176402","","","","","","",""
"null","","html-keyboard-response","246","1431152","0.0-6.0-12.12","03","<p><img class= 'stimulus' src='images/target/landscape1.jpg'></img></p>","null","","1549496176502","12","","","","","",""
"null","","html-keyboard-response","247","1431252","0.0-6.0-13.12","03","<p><img class= 'stimulus' src='images/baseline/landscape8.jpg'></img></p>","null","","1549496176601","","","","","","",""
"null","","html-keyboard-response","248","1431352","0.0-6.0-14.12","03","<p><img class= 'stimulus' src='images/baseline/04201v.jpg'></img></p>","null","","1549496176700","14","","","","","",""
"null","","html-keyboard-response","249","1431452","0.0-6.0-15.12","03","<p><img class= 'stimulus' src='images/baseline/03098v.jpg'></img></p>","null","","1549496176801","","","","","","",""
"null","","html-keyboard-response","250","1431552","0.0-6.0-16.12","03","<p><img class= 'stimulus' src='images/baseline/sunny-landscape-with-dry-brush-and-mountain-background.jpg'></img></p>","null","","1549496176901","","","","","","",""
"null","","html-keyboard-response","251","1431668","0.0-6.0-17.12","03","<p><img class= 'stimulus' src='images/baseline/pexels-photo-427676.jpeg'></img></p>","null","","1549496177001","","","","","","",""
"944.2999999991152","","html-button-response","252","1433618","0.0-6.0-18.12","03","<div class = ""response_question"">WAS THE IMAGE ROTATED...</div>","","4","","","4","8","bas","right","practice","true"
"822.0000000002328","","html-button-response","253","1434441","0.0-6.0-0.13","03","","","0","","","","","","","",""
"null","","html-keyboard-response","254","1434519","0.0-6.0-1.13","03","<p><img class= 'stimulus' src='images/baseline/agriculture-countryside-crop-259280.jpg'></img></p>","null","","1549496179868","","","","","","",""
"null","","html-keyboard-response","255","1434619","0.0-6.0-2.13","03","<p><img class= 'stimulus' src='images/baseline/04060v.jpg'></img></p>","null","","1549496179969","","","","","","",""
"null","","html-keyboard-response","256","1434719","0.0-6.0-3.13","03","<p><img class= 'stimulus' src='images/baseline/lake 1.jpg'></img></p>","null","","1549496180069","","","","","","",""
"null","","html-keyboard-response","257","1434818","0.0-6.0-4.13","03","<p><img class= 'stimulus' src='images/baseline/02960v.jpg'></img></p>","null","","1549496180168","4","","","","","",""
"null","","html-keyboard-response","258","1434919","0.0-6.0-5.13","03","<p><img class= 'stimulus' src='images/baseline/landscape14.jpg'></img></p>","null","","1549496180268","","","","","","",""
"null","","html-keyboard-response","259","1435018","0.0-6.0-6.13","03","<p><img class= 'stimulus' src='images/baseline/landscape13.jpg'></img></p>","null","","1549496180369","6","","","","","",""
"null","","html-keyboard-response","260","1435119","0.0-6.0-7.13","03","<p><img class= 'stimulus' src='images/baseline/03114v.jpg'></img></p>","null","","1549496180468","","","","","","",""
"null","","html-keyboard-response","261","1435219","0.0-6.0-8.13","03","<p><img class= 'stimulus' src='images/target/chicago-673558_640.jpg'></img></p>","null","","1549496180569","8","","","","","",""
"null","","html-keyboard-response","262","1435318","0.0-6.0-9.13","03","<p><img class= 'stimulus' src='images/baseline/02971v.jpg'></img></p>","null","","1549496180668","","","","","","",""
"null","","html-keyboard-response","263","1435419","0.0-6.0-10.13","03","<p><img class= 'stimulus' src='images/baseline/03217v.jpg'></img></p>","null","","1549496180767","","","","","","",""
"null","","html-keyboard-response","264","1435519","0.0-6.0-11.13","03","<p><img class= 'stimulus' src='images/baseline/Lake 16.jpg'></img></p>","null","","1549496180868","","","","","","",""
"null","","html-keyboard-response","265","1435619","0.0-6.0-12.13","03","<p><img class= 'stimulus' src='images/baseline/pexels-photo-59321.jpeg'></img></p>","null","","1549496180968","12","","","","","",""
"null","","html-keyboard-response","266","1435719","0.0-6.0-13.13","03","<p><img class= 'stimulus' src='images/baseline/landscape29.jpg'></img></p>","null","","1549496181069","","","","","","",""
"null","","html-keyboard-response","267","1435819","0.0-6.0-14.13","03","<p><img class= 'stimulus' src='images/baseline/03201v.jpg'></img></p>","null","","1549496181168","14","","","","","",""
"null","","html-keyboard-response","268","1435919","0.0-6.0-15.13","03","<p><img class= 'stimulus' src='images/baseline/landscape19.jpg'></img></p>","null","","1549496181269","","","","","","",""
"null","","html-keyboard-response","269","1436019","0.0-6.0-16.13","03","<p><img class= 'stimulus' src='images/baseline/Sunset 6.jpg'></img></p>","null","","1549496181368","","","","","","",""
"null","","html-keyboard-response","270","1436135","0.0-6.0-17.13","03","<p><img class= 'stimulus' src='images/baseline/99_-_Machu_Picchu_-_Juin_2009.edit3.jpg'></img></p>","null","","1549496181468","","","","","","",""
"987.4999999990687","","html-button-response","271","1438137","0.0-6.0-18.13","03","<div class = ""response_question"">WAS THE IMAGE ROTATED...</div>","","2","","","6","2","bas","right","practice","false"
"870.399999999674","","html-button-response","272","1439010","0.0-6.0-0.14","03","","","0","","","","","","","",""
"null","","html-keyboard-response","273","1439086","0.0-6.0-1.14","03","<p><img class= 'stimulus' src='images/baseline/pexels-photo-1287089.jpeg'></img></p>","null","","1549496184435","","","","","","",""
"null","","html-keyboard-response","274","1439185","0.0-6.0-2.14","03","<p><img class= 'stimulus' src='images/baseline/landscape33.jpg'></img></p>","null","","1549496184534","","","","","","",""
"null","","html-keyboard-response","275","1439285","0.0-6.0-3.14","03","<p><img class= 'stimulus' src='images/baseline/pexels-photo-534164.jpeg'></img></p>","null","","1549496184635","","","","","","",""
"null","","html-keyboard-response","276","1439386","0.0-6.0-4.14","03","<p><img class= 'stimulus' src='images/baseline/pexels-photo-1261728.jpeg'></img></p>","null","","1549496184735","4","","","","","",""
"null","","html-keyboard-response","277","1439485","0.0-6.0-5.14","03","<p><img class= 'stimulus' src='images/baseline/Lake 8.jpg'></img></p>","null","","1549496184835","","","","","","",""
"null","","html-keyboard-response","278","1439586","0.0-6.0-6.14","03","<p><img class= 'stimulus' src='images/target/pexels-photo-1102846.jpeg'></img></p>","null","","1549496184935","6","","","","","",""
"null","","html-keyboard-response","279","1439686","0.0-6.0-7.14","03","<p><img class= 'stimulus' src='images/baseline/Camping 10.jpg'></img></p>","null","","1549496185034","","","","","","",""
"null","","html-keyboard-response","280","1439785","0.0-6.0-8.14","03","<p><img class= 'stimulus' src='images/baseline/05131v.jpg'></img></p>","null","","1549496185136","8","","","","","",""
"null","","html-keyboard-response","281","1439886","0.0-6.0-9.14","03","<p><img class= 'stimulus' src='images/baseline/03180v.jpg'></img></p>","null","","1549496185234","","","","","","",""
"null","","html-keyboard-response","282","1439986","0.0-6.0-10.14","03","<p><img class= 'stimulus' src='images/baseline/04040v.jpg'></img></p>","null","","1549496185334","","","","","","",""
"null","","html-keyboard-response","283","1440086","0.0-6.0-11.14","03","<p><img class= 'stimulus' src='images/baseline/church-silhouette-8712964986014Kb.jpg'></img></p>","null","","1549496185434","","","","","","",""
"null","","html-keyboard-response","284","1440186","0.0-6.0-12.14","03","<p><img class= 'stimulus' src='images/baseline/04222v.jpg'></img></p>","null","","1549496185536","12","","","","","",""
"null","","html-keyboard-response","285","1440286","0.0-6.0-13.14","03","<p><img class= 'stimulus' src='images/baseline/agriculture-bright-clouds-440731.jpg'></img></p>","null","","1549496185634","","","","","","",""
"null","","html-keyboard-response","286","1440385","0.0-6.0-14.14","03","<p><img class= 'stimulus' src='images/baseline/Path 1.jpg'></img></p>","null","","1549496185735","14","","","","","",""
"null","","html-keyboard-response","287","1440486","0.0-6.0-15.14","03","<p><img class= 'stimulus' src='images/baseline/03212v.jpg'></img></p>","null","","1549496185835","","","","","","",""
"null","","html-keyboard-response","288","1440586","0.0-6.0-16.14","03","<p><img class= 'stimulus' src='images/baseline/04117v.jpg'></img></p>","null","","1549496185935","","","","","","",""
"null","","html-keyboard-response","289","1440702","0.0-6.0-17.14","03","<p><img class= 'stimulus' src='images/baseline/04300v.jpg'></img></p>","null","","1549496186035","","","","","","",""
"815.0999999998603","","html-button-response","290","1442521","0.0-6.0-18.14","03","<div class = ""response_question"">WAS THE IMAGE ROTATED...</div>","","4","","","4","2","bas","right","practice","true"
"838.2999999995809","","html-button-response","291","1443361","0.0-6.0-0.15","03","","","0","","","","","","","",""
"null","","html-keyboard-response","292","1443436","0.0-6.0-1.15","03","<p><img class= 'stimulus' src='images/baseline/geese-flying-over-lake-at-dusk.jpg'></img></p>","null","","1549496188785","","","","","","",""
"null","","html-keyboard-response","293","1443535","0.0-6.0-2.15","03","<p><img class= 'stimulus' src='images/baseline/cranes 1.jpg'></img></p>","null","","1549496188884","","","","","","",""
"null","","html-keyboard-response","294","1443636","0.0-6.0-3.15","03","<p><img class= 'stimulus' src='images/baseline/05158v.jpg'></img></p>","null","","1549496188985","","","","","","",""
"null","","html-keyboard-response","295","1443735","0.0-6.0-4.15","03","<p><img class= 'stimulus' src='images/baseline/Dirt 2.jpg'></img></p>","null","","1549496189085","4","","","","","",""
"null","","html-keyboard-response","296","1443837","0.0-6.0-5.15","03","<p><img class= 'stimulus' src='images/baseline/hills 3.jpg'></img></p>","null","","1549496189185","","","","","","",""
"null","","html-keyboard-response","297","1443935","0.0-6.0-6.15","03","<p><img class= 'stimulus' src='images/baseline/04284v.jpg'></img></p>","null","","1549496189285","6","","","","","",""
"null","","html-keyboard-response","298","1444036","0.0-6.0-7.15","03","<p><img class= 'stimulus' src='images/baseline/4k-wallpaper-agriculture-clouds-842711.jpg'></img></p>","null","","1549496189385","","","","","","",""
"null","","html-keyboard-response","299","1444136","0.0-6.0-8.15","03","<p><img class= 'stimulus' src='images/baseline/Sunset 3.jpg'></img></p>","null","","1549496189485","8","","","","","",""
"null","","html-keyboard-response","300","1444235","0.0-6.0-9.15","03","<p><img class= 'stimulus' src='images/baseline/Lake 13.jpg'></img></p>","null","","1549496189586","","","","","","",""
"null","","html-keyboard-response","301","1444336","0.0-6.0-10.15","03","<p><img class= 'stimulus' src='images/baseline/hiking-trail.jpg'></img></p>","null","","1549496189685","","","","","","",""
"null","","html-keyboard-response","302","1444436","0.0-6.0-11.15","03","<p><img class= 'stimulus' src='images/baseline/road.jpg'></img></p>","null","","1549496189785","","","","","","",""
"null","","html-keyboard-response","303","1444536","0.0-6.0-12.15","03","<p><img class= 'stimulus' src='images/baseline/lookout_tower.jpg'></img></p>","null","","1549496189886","12","","","","","",""
"null","","html-keyboard-response","304","1444635","0.0-6.0-13.15","03","<p><img class= 'stimulus' src='images/baseline/05189v.jpg'></img></p>","null","","1549496189984","","","","","","",""
"null","","html-keyboard-response","305","1444735","0.0-6.0-14.15","03","<p><img class= 'stimulus' src='images/target/petronas-towers-433081_1920.jpg'></img></p>","null","","1549496190085","14","","","","","",""
"null","","html-keyboard-response","306","1444834","0.0-6.0-15.15","03","<p><img class= 'stimulus' src='images/baseline/04284v.jpg'></img></p>","null","","1549496190185","","","","","","",""
"null","","html-keyboard-response","307","1444935","0.0-6.0-16.15","03","<p><img class= 'stimulus' src='images/baseline/pexels-photo-1054289.jpeg'></img></p>","null","","1549496190285","","","","","","",""
"null","","html-keyboard-response","308","1445052","0.0-6.0-17.15","03","<p><img class= 'stimulus' src='images/baseline/lake 2.jpg'></img></p>","null","","1549496190385","","","","","","",""
"961.4000000001397","","html-button-response","309","1447018","0.0-6.0-18.15","03","<div class = ""response_question"">WAS THE IMAGE ROTATED...</div>","","5","","","6","8","bas","right","practice","false"
"53325.999999997206","","html-button-response","310","1500352","0.0-7.0","03","<p>You have now completed the practice phase. We will now begin the real trials.         This is a reminder that you will be searching for a rotated image among the series of upright images.</p>         <p>Remember, please do not blink or move your eyes while the images are on the screen.</p>         <p>At the end of the experiment, the experimenter will be able to show you how accurate you were.</p>","","0","","","","","","","",""
"1078.799999999348","","html-button-response","311","1501431","0.0-8.0-0.0-0.0","03","","","0","","","","","","","",""
"null","","html-keyboard-response","312","1501508","0.0-8.0-0.0-1.0","03","<p><img class= 'stimulus' src='images/baseline/landscape8.jpg'></img></p>","null","","1549496246858","","","","","","",""
"null","","html-keyboard-response","313","1501609","0.0-8.0-0.0-2.0","03","<p><img class= 'stimulus' src='images/baseline/pexels-photo-541101.jpeg'></img></p>","null","","1549496246958","","","","","","",""
"null","","html-keyboard-response","314","1501709","0.0-8.0-0.0-3.0","03","<p><img class= 'stimulus' src='images/baseline/pexels-photo-259280.jpeg'></img></p>","null","","1549496247058","","","","","","",""
"null","","html-keyboard-response","315","1501810","0.0-8.0-0.0-4.0","03","<p><img class= 'stimulus' src='images/baseline/03056v.jpg'></img></p>","null","","1549496247157","4","","","","","",""
"null","","html-keyboard-response","316","1501908","0.0-8.0-0.0-5.0","03","<p><img class= 'stimulus' src='images/baseline/farmhouse9.jpg'></img></p>","null","","1549496247258","","","","","","",""
"null","","html-keyboard-response","317","1502009","0.0-8.0-0.0-6.0","03","<p><img class= 'stimulus' src='images/baseline/pexels-photo-280222.jpeg'></img></p>","null","","1549496247359","6","","","","","",""
"null","","html-keyboard-response","318","1502110","0.0-8.0-0.0-7.0","03","<p><img class= 'stimulus' src='images/baseline/04098v.jpg'></img></p>","null","","1549496247459","","","","","","",""
"null","","html-keyboard-response","319","1502208","0.0-8.0-0.0-8.0","03","<p><img class= 'stimulus' src='images/baseline/05158v.jpg'></img></p>","null","","1549496247559","8","","","","","",""
"null","","html-keyboard-response","320","1502309","0.0-8.0-0.0-9.0","03","<p><img class= 'stimulus' src='images/baseline/landscape7.jpg'></img></p>","null","","1549496247658","","","","","","",""
"null","","html-keyboard-response","321","1502408","0.0-8.0-0.0-10.0","03","<p><img class= 'stimulus' src='images/baseline/meadow-with-mountain-in-background.jpg'></img></p>","null","","1549496247757","","","","","","",""
"null","","html-keyboard-response","322","1502508","0.0-8.0-0.0-11.0","03","<p><img class= 'stimulus' src='images/baseline/church-silhouette-8712964986014Kb.jpg'></img></p>","null","","1549496247859","","","","","","",""
"null","","html-keyboard-response","323","1502609","0.0-8.0-0.0-12.0","03","<p><img class= 'stimulus' src='images/baseline/pexels-photo-1840893.jpeg'></img></p>","null","","1549496247958","12","","","","","",""
"null","","html-keyboard-response","324","1502708","0.0-8.0-0.0-13.0","03","<p><img class= 'stimulus' src='images/baseline/04193v.jpg'></img></p>","null","","1549496248059","","","","","","",""
"null","","html-keyboard-response","325","1502809","0.0-8.0-0.0-14.0","03","<p><img class= 'stimulus' src='images/baseline/Desert_View_Indian_Wells.jpg'></img></p>","null","","1549496248158","14","","","","","",""
"null","","html-keyboard-response","326","1502909","0.0-8.0-0.0-15.0","03","<p><img class= 'stimulus' src='images/baseline/trees 23.jpg'></img></p>","null","","1549496248259","","","","","","",""
"null","","html-keyboard-response","327","1503008","0.0-8.0-0.0-16.0","03","<p><img class= 'stimulus' src='images/baseline/field 2.jpg'></img></p>","null","","1549496248358","","","","","","",""
"null","","html-keyboard-response","328","1503125","0.0-8.0-0.0-17.0","03","<p><img class= 'stimulus' src='images/baseline/Bridge 1.jpg'></img></p>","null","","1549496248458","","","","","","",""
"1196.8000000014435","","html-button-response","329","1505327","0.0-8.0-0.0-18.0","03","<div class = ""response_question"">WAS THE IMAGE ROTATED...</div>","","2","","","null","null","null","null","test","null"
"734.1999999990221","","html-button-response","330","1506063","0.0-8.0-0.0-0.1","03","","","0","","","","","","","",""
"null","","html-keyboard-response","331","1506143","0.0-8.0-0.0-1.1","03","<p><img class= 'stimulus' src='images/baseline/hills 4.jpg'></img></p>","null","","1549496251492","","","","","","",""
"null","","html-keyboard-response","332","1506242","0.0-8.0-0.0-2.1","03","<p><img class= 'stimulus' src='images/baseline/landscape16.jpg'></img></p>","null","","1549496251591","","","","","","",""
"null","","html-keyboard-response","333","1506342","0.0-8.0-0.0-3.1","03","<p><img class= 'stimulus' src='images/baseline/02977v.jpg'></img></p>","null","","1549496251691","","","","","","",""
"null","","html-keyboard-response","334","1506442","0.0-8.0-0.0-4.1","03","<p><img class= 'stimulus' src='images/baseline/04179v.jpg'></img></p>","null","","1549496251791","4","","","","","",""
"null","","html-keyboard-response","335","1506542","0.0-8.0-0.0-5.1","03","<p><img class= 'stimulus' src='images/baseline/landscape1.jpg'></img></p>","null","","1549496251891","","","","","","",""
"null","","html-keyboard-response","336","1506642","0.0-8.0-0.0-6.1","03","<p><img class= 'stimulus' src='images/baseline/pexels-photo-1287089.jpeg'></img></p>","null","","1549496251991","6","","","","","",""
"null","","html-keyboard-response","337","1506742","0.0-8.0-0.0-7.1","03","<p><img class= 'stimulus' src='images/baseline/05280v.jpg'></img></p>","null","","1549496252091","","","","","","",""
"null","","html-keyboard-response","338","1506842","0.0-8.0-0.0-8.1","03","<p><img class= 'stimulus' src='images/baseline/valley 2.jpg'></img></p>","null","","1549496252193","8","","","","","",""
"null","","html-keyboard-response","339","1506943","0.0-8.0-0.0-9.1","03","<p><img class= 'stimulus' src='images/baseline/05292v.jpg'></img></p>","null","","1549496252291","","","","","","",""
"null","","html-keyboard-response","340","1507042","0.0-8.0-0.0-10.1","03","<p><img class= 'stimulus' src='images/baseline/pexels-photo-414491.jpeg'></img></p>","null","","1549496252391","","","","","","",""
"null","","html-keyboard-response","341","1507141","0.0-8.0-0.0-11.1","03","<p><img class= 'stimulus' src='images/baseline/04130v.jpg'></img></p>","null","","1549496252491","","","","","","",""
"null","","html-keyboard-response","342","1507243","0.0-8.0-0.0-12.1","03","<p><img class= 'stimulus' src='images/baseline/building6.jpg'></img></p>","null","","1549496252591","12","","","","","",""
"null","","html-keyboard-response","343","1507342","0.0-8.0-0.0-13.1","03","<p><img class= 'stimulus' src='images/baseline/landscape3.jpg'></img></p>","null","","1549496252692","","","","","","",""
"null","","html-keyboard-response","344","1507442","0.0-8.0-0.0-14.1","03","<p><img class= 'stimulus' src='images/baseline/04062v.jpg'></img></p>","null","","1549496252792","14","","","","","",""
"null","","html-keyboard-response","345","1507542","0.0-8.0-0.0-15.1","03","<p><img class= 'stimulus' src='images/baseline/Street 5.jpg'></img></p>","null","","1549496252891","","","","","","",""
"null","","html-keyboard-response","346","1507642","0.0-8.0-0.0-16.1","03","<p><img class= 'stimulus' src='images/baseline/autumn-in-red-rocks-park.jpg'></img></p>","null","","1549496252991","","","","","","",""
"null","","html-keyboard-response","347","1507759","0.0-8.0-0.0-17.1","03","<p><img class= 'stimulus' src='images/baseline/farmhouse3.jpg'></img></p>","null","","1549496253092","","","","","","",""
"2188.200000000419","","html-button-response","348","1510952","0.0-8.0-0.0-18.1","03","<div class = ""response_question"">WAS THE IMAGE ROTATED...</div>","","5","","","null","null","null","null","test","null"
"734.400000001071","","html-button-response","349","1511688","0.0-8.0-0.0-0.2","03","","","0","","","","","","","",""
"null","","html-keyboard-response","350","1511758","0.0-8.0-0.0-1.2","03","<p><img class= 'stimulus' src='images/baseline/Peyto_Lake-Banff_NP-Canada.jpg'></img></p>","null","","1549496257109","","","","","","",""
"null","","html-keyboard-response","351","1511859","0.0-8.0-0.0-2.2","03","<p><img class= 'stimulus' src='images/baseline/landscape37.jpg'></img></p>","null","","1549496257208","","","","","","",""
"null","","html-keyboard-response","352","1511959","0.0-8.0-0.0-3.2","03","<p><img class= 'stimulus' src='images/baseline/house2.jpg'></img></p>","null","","1549496257308","","","","","","",""
"null","","html-keyboard-response","353","1512059","0.0-8.0-0.0-4.2","03","<p><img class= 'stimulus' src='images/baseline/04040v.jpg'></img></p>","null","","1549496257408","4","","","","","",""
"null","","html-keyboard-response","354","1512159","0.0-8.0-0.0-5.2","03","<p><img class= 'stimulus' src='images/baseline/geese-flying-over-lake-at-dusk.jpg'></img></p>","null","","1549496257508","","","","","","",""
"null","","html-keyboard-response","355","1512258","0.0-8.0-0.0-6.2","03","<p><img class= 'stimulus' src='images/neutral/Dancing 3.jpg'></img></p>","null","","1549496257609","6","","","","","",""
"null","","html-keyboard-response","356","1512358","0.0-8.0-0.0-7.2","03","<p><img class= 'stimulus' src='images/baseline/05303v.jpg'></img></p>","null","","1549496257709","","","","","","",""
"null","","html-keyboard-response","357","1512460","0.0-8.0-0.0-8.2","03","<p><img class= 'stimulus' src='images/baseline/farmhouse1.jpg'></img></p>","null","","1549496257810","8","","","","","",""
"null","","html-keyboard-response","358","1512559","0.0-8.0-0.0-9.2","03","<p><img class= 'stimulus' src='images/baseline/03212v.jpg'></img></p>","null","","1549496257908","","","","","","",""
"null","","html-keyboard-response","359","1512658","0.0-8.0-0.0-10.2","03","<p><img class= 'stimulus' src='images/baseline/04229v.jpg'></img></p>","null","","1549496258010","","","","","","",""
"null","","html-keyboard-response","360","1512759","0.0-8.0-0.0-11.2","03","<p><img class= 'stimulus' src='images/baseline/03041v.jpg'></img></p>","null","","1549496258107","","","","","","",""
"null","","html-keyboard-response","361","1512859","0.0-8.0-0.0-12.2","03","<p><img class= 'stimulus' src='images/baseline/landscape36.jpg'></img></p>","null","","1549496258208","12","","","","","",""
"null","","html-keyboard-response","362","1512959","0.0-8.0-0.0-13.2","03","<p><img class= 'stimulus' src='images/baseline/landscape33.jpg'></img></p>","null","","1549496258307","","","","","","",""
"null","","html-keyboard-response","363","1513059","0.0-8.0-0.0-14.2","03","<p><img class= 'stimulus left-rotate' src='images/target/tree-3563269_640.jpg'></img></p>","null","","1549496258408","14","","","","","",""
"null","","html-keyboard-response","364","1513159","0.0-8.0-0.0-15.2","03","<p><img class= 'stimulus' src='images/baseline/red rocks from afar.jpg'></img></p>","null","","1549496258508","","","","","","",""
"null","","html-keyboard-response","365","1513259","0.0-8.0-0.0-16.2","03","<p><img class= 'stimulus' src='images/baseline/pexels-photo-1048039.jpeg'></img></p>","null","","1549496258608","","","","","","",""
"null","","html-keyboard-response","366","1513375","0.0-8.0-0.0-17.2","03","<p><img class= 'stimulus' src='images/baseline/Sunset 5.jpg'></img></p>","null","","1549496258708","","","","","","",""
"1251.799999998184","","html-button-response","367","1515632","0.0-8.0-0.0-18.2","03","<div class = ""response_question"">WAS THE IMAGE ROTATED...</div>","","0","","","6","8","neu","left","test","true"
"734.5000000023283","","html-button-response","368","1516367","0.0-8.0-0.0-0.3","03","","","0","","","","","","","",""
"null","","html-keyboard-response","369","1516443","0.0-8.0-0.0-1.3","03","<p><img class= 'stimulus' src='images/baseline/Paysage_enneige_02.jpg'></img></p>","null","","1549496261792","","","","","","",""
"null","","html-keyboard-response","370","1516542","0.0-8.0-0.0-2.3","03","<p><img class= 'stimulus' src='images/baseline/chicago-skyline-at-night-1476869511p8U.jpg'></img></p>","null","","1549496261892","","","","","","",""
"null","","html-keyboard-response","371","1516642","0.0-8.0-0.0-3.3","03","<p><img class= 'stimulus' src='images/baseline/pexels-photo-351264.jpeg'></img></p>","null","","1549496261992","","","","","","",""
"null","","html-keyboard-response","372","1516742","0.0-8.0-0.0-4.3","03","<p><img class= 'stimulus' src='images/baseline/Lake 9.jpg'></img></p>","null","","1549496262092","4","","","","","",""
"null","","html-keyboard-response","373","1516843","0.0-8.0-0.0-5.3","03","<p><img class= 'stimulus' src='images/baseline/03045v.jpg'></img></p>","null","","1549496262191","","","","","","",""
"null","","html-keyboard-response","374","1516942","0.0-8.0-0.0-6.3","03","<p><img class= 'stimulus' src='images/negative/Tumor 1.jpg'></img></p>","null","","1549496262291","6","","","","","",""
"null","","html-keyboard-response","375","1517043","0.0-8.0-0.0-7.3","03","<p><img class= 'stimulus' src='images/baseline/building3.jpg'></img></p>","null","","1549496262392","","","","","","",""
"null","","html-keyboard-response","376","1517142","0.0-8.0-0.0-8.3","03","<p><img class= 'stimulus' src='images/target/lone-tree.png'></img></p>","null","","1549496262491","8","","","","","",""
"null","","html-keyboard-response","377","1517243","0.0-8.0-0.0-9.3","03","<p><img class= 'stimulus' src='images/baseline/hills 1.jpg'></img></p>","null","","1549496262591","","","","","","",""
"null","","html-keyboard-response","378","1517342","0.0-8.0-0.0-10.3","03","<p><img class= 'stimulus' src='images/baseline/flooded-bridge.jpg'></img></p>","null","","1549496262692","","","","","","",""
"null","","html-keyboard-response","379","1517442","0.0-8.0-0.0-11.3","03","<p><img class= 'stimulus' src='images/baseline/04060v.jpg'></img></p>","null","","1549496262792","","","","","","",""
"null","","html-keyboard-response","380","1517543","0.0-8.0-0.0-12.3","03","<p><img class= 'stimulus' src='images/baseline/04063v.jpg'></img></p>","null","","1549496262891","12","","","","","",""
"null","","html-keyboard-response","381","1517643","0.0-8.0-0.0-13.3","03","<p><img class= 'stimulus' src='images/baseline/house11.jpg'></img></p>","null","","1549496262992","","","","","","",""
"null","","html-keyboard-response","382","1517741","0.0-8.0-0.0-14.3","03","<p><img class= 'stimulus' src='images/baseline/architecture_modern_architecture_852928.jpg'></img></p>","null","","1549496263091","14","","","","","",""
"null","","html-keyboard-response","383","1517841","0.0-8.0-0.0-15.3","03","<p><img class= 'stimulus' src='images/baseline/road.jpg'></img></p>","null","","1549496263191","","","","","","",""
"null","","html-keyboard-response","384","1517942","0.0-8.0-0.0-16.3","03","<p><img class= 'stimulus' src='images/baseline/house10.jpg'></img></p>","null","","1549496263291","","","","","","",""
"null","","html-keyboard-response","385","1518059","0.0-8.0-0.0-17.3","03","<p><img class= 'stimulus' src='images/baseline/Beach 2.jpg'></img></p>","null","","1549496263392","","","","","","",""
"1063.6999999987893","","html-button-response","386","1520128","0.0-8.0-0.0-18.3","03","<div class = ""response_question"">WAS THE IMAGE ROTATED...</div>","","3","","","6","2","neg","right","test","true"
"3470.300000000745","","html-button-response","387","1523599","0.0-8.0-0.0-0.4","03","","","0","","","","","","","",""
"null","","html-keyboard-response","388","1523675","0.0-8.0-0.0-1.4","03","<p><img class= 'stimulus' src='images/baseline/Sunset 4.jpg'></img></p>","null","","1549496269025","","","","","","",""
"null","","html-keyboard-response","389","1523775","0.0-8.0-0.0-2.4","03","<p><img class= 'stimulus' src='images/baseline/landscape11.jpg'></img></p>","null","","1549496269127","","","","","","",""
"null","","html-keyboard-response","390","1523876","0.0-8.0-0.0-3.4","03","<p><img class= 'stimulus' src='images/baseline/farmhouse8.jpg'></img></p>","null","","1549496269225","","","","","","",""
"null","","html-keyboard-response","391","1523975","0.0-8.0-0.0-4.4","03","<p><img class= 'stimulus' src='images/negative/Dog attack 3.jpg'></img></p>","null","","1549496269325","4","","","","","",""
"null","","html-keyboard-response","392","1524076","0.0-8.0-0.0-5.4","03","<p><img class= 'stimulus' src='images/baseline/house8.jpg'></img></p>","null","","1549496269425","","","","","","",""
"null","","html-keyboard-response","393","1524176","0.0-8.0-0.0-6.4","03","<p><img class= 'stimulus' src='images/baseline/02945v.jpg'></img></p>","null","","1549496269526","6","","","","","",""
"null","","html-keyboard-response","394","1524275","0.0-8.0-0.0-7.4","03","<p><img class= 'stimulus' src='images/baseline/pexels-photo-59321.jpeg'></img></p>","null","","1549496269626","","","","","","",""
"null","","html-keyboard-response","395","1524376","0.0-8.0-0.0-8.4","03","<p><img class= 'stimulus' src='images/baseline/05167v.jpg'></img></p>","null","","1549496269725","8","","","","","",""
"null","","html-keyboard-response","396","1524475","0.0-8.0-0.0-9.4","03","<p><img class= 'stimulus' src='images/baseline/pexels-photo-440731.jpeg'></img></p>","null","","1549496269825","","","","","","",""
"null","","html-keyboard-response","397","1524576","0.0-8.0-0.0-10.4","03","<p><img class= 'stimulus' src='images/baseline/04064v.jpg'></img></p>","null","","1549496269925","","","","","","",""
"null","","html-keyboard-response","398","1524676","0.0-8.0-0.0-11.4","03","<p><img class= 'stimulus' src='images/baseline/agriculture-bright-clouds-440731.jpg'></img></p>","null","","1549496270026","","","","","","",""
"null","","html-keyboard-response","399","1524775","0.0-8.0-0.0-12.4","03","<p><img class= 'stimulus left-rotate' src='images/target/landscape20.jpg'></img></p>","null","","1549496270125","12","","","","","",""
"null","","html-keyboard-response","400","1524875","0.0-8.0-0.0-13.4","03","<p><img class= 'stimulus' src='images/baseline/Grass 6.jpg'></img></p>","null","","1549496270226","","","","","","",""
"null","","html-keyboard-response","401","1524976","0.0-8.0-0.0-14.4","03","<p><img class= 'stimulus' src='images/baseline/Lake 3.jpg'></img></p>","null","","1549496270325","14","","","","","",""
"null","","html-keyboard-response","402","1525076","0.0-8.0-0.0-15.4","03","<p><img class= 'stimulus' src='images/baseline/house3.jpg'></img></p>","null","","1549496270425","","","","","","",""
"null","","html-keyboard-response","403","1525175","0.0-8.0-0.0-16.4","03","<p><img class= 'stimulus' src='images/baseline/bird-flying-at-sunset.jpg'></img></p>","null","","1549496270525","","","","","","",""
"null","","html-keyboard-response","404","1525292","0.0-8.0-0.0-17.4","03","<p><img class= 'stimulus' src='images/baseline/sunset-over-the-lake.jpg'></img></p>","null","","1549496270625","","","","","","",""
"1686.099999998929","","html-button-response","405","1527984","0.0-8.0-0.0-18.4","03","<div class = ""response_question"">WAS THE IMAGE ROTATED...</div>","","0","","","4","8","neg","left","test","true"
"878.5000000025611","","html-button-response","406","1528864","0.0-8.0-0.0-0.5","03","","","0","","","","","","","",""
"null","","html-keyboard-response","407","1528941","0.0-8.0-0.0-1.5","03","<p><img class= 'stimulus' src='images/baseline/landscape38.jpg'></img></p>","null","","1549496274292","","","","","","",""
"null","","html-keyboard-response","408","1529042","0.0-8.0-0.0-2.5","03","<p><img class= 'stimulus' src='images/baseline/landscape23.jpg'></img></p>","null","","1549496274392","","","","","","",""
"null","","html-keyboard-response","409","1529142","0.0-8.0-0.0-3.5","03","<p><img class= 'stimulus' src='images/baseline/05252v.jpg'></img></p>","null","","1549496274492","","","","","","",""
"null","","html-keyboard-response","410","1529242","0.0-8.0-0.0-4.5","03","<p><img class= 'stimulus' src='images/negative/Injury 4.jpg'></img></p>","null","","1549496274592","4","","","","","",""
"null","","html-keyboard-response","411","1529343","0.0-8.0-0.0-5.5","03","<p><img class= 'stimulus' src='images/baseline/cranes 1.jpg'></img></p>","null","","1549496274692","","","","","","",""
"null","","html-keyboard-response","412","1529443","0.0-8.0-0.0-6.5","03","<p><img class= 'stimulus' src='images/target/building5.jpg'></img></p>","null","","1549496274791","6","","","","","",""
"null","","html-keyboard-response","413","1529543","0.0-8.0-0.0-7.5","03","<p><img class= 'stimulus' src='images/baseline/03162v.jpg'></img></p>","null","","1549496274891","","","","","","",""
"null","","html-keyboard-response","414","1529642","0.0-8.0-0.0-8.5","03","<p><img class= 'stimulus' src='images/baseline/Sky 1.jpg'></img></p>","null","","1549496274992","8","","","","","",""
"null","","html-keyboard-response","415","1529743","0.0-8.0-0.0-9.5","03","<p><img class= 'stimulus' src='images/baseline/scenic-mountain-landscape.jpg'></img></p>","null","","1549496275093","","","","","","",""
"null","","html-keyboard-response","416","1529842","0.0-8.0-0.0-10.5","03","<p><img class= 'stimulus' src='images/baseline/pexels-photo-1261728.jpeg'></img></p>","null","","1549496275191","","","","","","",""
"null","","html-keyboard-response","417","1529942","0.0-8.0-0.0-11.5","03","<p><img class= 'stimulus' src='images/baseline/tennis-court-net-buried-in-snow.jpg'></img></p>","null","","1549496275292","","","","","","",""
"null","","html-keyboard-response","418","1530041","0.0-8.0-0.0-12.5","03","<p><img class= 'stimulus' src='images/baseline/04014v.jpg'></img></p>","null","","1549496275392","12","","","","","",""
"null","","html-keyboard-response","419","1530142","0.0-8.0-0.0-13.5","03","<p><img class= 'stimulus' src='images/baseline/05179v.jpg'></img></p>","null","","1549496275492","","","","","","",""
"null","","html-keyboard-response","420","1530243","0.0-8.0-0.0-14.5","03","<p><img class= 'stimulus' src='images/baseline/02988v.jpg'></img></p>","null","","1549496275591","14","","","","","",""
"null","","html-keyboard-response","421","1530341","0.0-8.0-0.0-15.5","03","<p><img class= 'stimulus' src='images/baseline/Skyscraper 1.jpg'></img></p>","null","","1549496275692","","","","","","",""
"null","","html-keyboard-response","422","1530442","0.0-8.0-0.0-16.5","03","<p><img class= 'stimulus' src='images/baseline/empire-state-building.jpg'></img></p>","null","","1549496275791","","","","","","",""
"null","","html-keyboard-response","423","1530559","0.0-8.0-0.0-17.5","03","<p><img class= 'stimulus' src='images/baseline/05131v.jpg'></img></p>","null","","1549496275891","","","","","","",""
"6292.89999999688","","html-button-response","424","1537847","0.0-8.0-0.0-18.5","03","<div class = ""response_question"">WAS THE IMAGE ROTATED...</div>","","4","","","4","2","neg","right","test","true"
"3622.199999998091","","html-button-response","425","1541470","0.0-8.0-0.0-0.6","03","","","0","","","","","","","",""
"null","","html-keyboard-response","426","1541551","0.0-8.0-0.0-1.6","03","<p><img class= 'stimulus' src='images/baseline/03098v.jpg'></img></p>","null","","1549496286900","","","","","","",""
"null","","html-keyboard-response","427","1541651","0.0-8.0-0.0-2.6","03","<p><img class= 'stimulus' src='images/baseline/house6.jpg'></img></p>","null","","1549496287000","","","","","","",""
"null","","html-keyboard-response","428","1541750","0.0-8.0-0.0-3.6","03","<p><img class= 'stimulus' src='images/baseline/landscape13.jpg'></img></p>","null","","1549496287100","","","","","","",""
"null","","html-keyboard-response","429","1541850","0.0-8.0-0.0-4.6","03","<p><img class= 'stimulus' src='images/baseline/03217v.jpg'></img></p>","null","","1549496287200","4","","","","","",""
"null","","html-keyboard-response","430","1541950","0.0-8.0-0.0-5.6","03","<p><img class= 'stimulus' src='images/baseline/pexels-photo-894312.jpeg'></img></p>","null","","1549496287300","","","","","","",""
"null","","html-keyboard-response","431","1542050","0.0-8.0-0.0-6.6","03","<p><img class= 'stimulus' src='images/neutral/Picnic 2.jpg'></img></p>","null","","1549496287401","6","","","","","",""
"null","","html-keyboard-response","432","1542150","0.0-8.0-0.0-7.6","03","<p><img class= 'stimulus' src='images/baseline/03220v.jpg'></img></p>","null","","1549496287499","","","","","","",""
"null","","html-keyboard-response","433","1542251","0.0-8.0-0.0-8.6","03","<p><img class= 'stimulus' src='images/baseline/kokkari-1523011968Xfr.jpg'></img></p>","null","","1549496287599","8","","","","","",""
"null","","html-keyboard-response","434","1542351","0.0-8.0-0.0-9.6","03","<p><img class= 'stimulus' src='images/baseline/field 3.jpg'></img></p>","null","","1549496287700","","","","","","",""
"null","","html-keyboard-response","435","1542451","0.0-8.0-0.0-10.6","03","<p><img class= 'stimulus' src='images/baseline/architecture-1314416_1920.jpg'></img></p>","null","","1549496287801","","","","","","",""
"null","","html-keyboard-response","436","1542551","0.0-8.0-0.0-11.6","03","<p><img class= 'stimulus' src='images/baseline/field 4.jpg'></img></p>","null","","1549496287900","","","","","","",""
"null","","html-keyboard-response","437","1542651","0.0-8.0-0.0-12.6","03","<p><img class= 'stimulus' src='images/baseline/landscape35.jpg'></img></p>","null","","1549496288000","12","","","","","",""
"null","","html-keyboard-response","438","1542750","0.0-8.0-0.0-13.6","03","<p><img class= 'stimulus' src='images/baseline/pexels-photo-568236.jpeg'></img></p>","null","","1549496288100","","","","","","",""
"null","","html-keyboard-response","439","1542850","0.0-8.0-0.0-14.6","03","<p><img class= 'stimulus left-rotate' src='images/target/landscape_1.jpg'></img></p>","null","","1549496288200","14","","","","","",""
"null","","html-keyboard-response","440","1542950","0.0-8.0-0.0-15.6","03","<p><img class= 'stimulus' src='images/baseline/04117v.jpg'></img></p>","null","","1549496288299","","","","","","",""
"null","","html-keyboard-response","441","1543051","0.0-8.0-0.0-16.6","03","<p><img class= 'stimulus' src='images/baseline/farmhouse7.jpg'></img></p>","null","","1549496288400","","","","","","",""
"null","","html-keyboard-response","442","1543167","0.0-8.0-0.0-17.6","03","<p><img class= 'stimulus' src='images/baseline/pexels-photo-750108.jpeg'></img></p>","null","","1549496288499","","","","","","",""
"1377.8999999994412","","html-button-response","443","1545550","0.0-8.0-0.0-18.6","03","<div class = ""response_question"">WAS THE IMAGE ROTATED...</div>","","0","","","6","8","neu","left","test","true"
"2870.2999999986496","","html-button-response","444","1548423","0.0-8.0-0.0-0.7","03","","","0","","","","","","","",""
"null","","html-keyboard-response","445","1548501","0.0-8.0-0.0-1.7","03","<p><img class= 'stimulus' src='images/baseline/03148v.jpg'></img></p>","null","","1549496293850","","","","","","",""
"null","","html-keyboard-response","446","1548601","0.0-8.0-0.0-2.7","03","<p><img class= 'stimulus' src='images/baseline/05279v.jpg'></img></p>","null","","1549496293951","","","","","","",""
"null","","html-keyboard-response","447","1548700","0.0-8.0-0.0-3.7","03","<p><img class= 'stimulus' src='images/baseline/lake3.jpg'></img></p>","null","","1549496294050","","","","","","",""
"null","","html-keyboard-response","448","1548800","0.0-8.0-0.0-4.7","03","<p><img class= 'stimulus' src='images/baseline/05161v.jpg'></img></p>","null","","1549496294149","4","","","","","",""
"null","","html-keyboard-response","449","1548900","0.0-8.0-0.0-5.7","03","<p><img class= 'stimulus' src='images/baseline/landscape2.jpg'></img></p>","null","","1549496294249","","","","","","",""
"null","","html-keyboard-response","450","1549000","0.0-8.0-0.0-6.7","03","<p><img class= 'stimulus' src='images/neutral/dog.jpg'></img></p>","null","","1549496294349","6","","","","","",""
"null","","html-keyboard-response","451","1549100","0.0-8.0-0.0-7.7","03","<p><img class= 'stimulus' src='images/baseline/05139v.jpg'></img></p>","null","","1549496294449","","","","","","",""
"null","","html-keyboard-response","452","1549201","0.0-8.0-0.0-8.7","03","<p><img class= 'stimulus' src='images/target/building1.jpg'></img></p>","null","","1549496294550","8","","","","","",""
"null","","html-keyboard-response","453","1549300","0.0-8.0-0.0-9.7","03","<p><img class= 'stimulus' src='images/baseline/building5.jpg'></img></p>","null","","1549496294650","","","","","","",""
"null","","html-keyboard-response","454","1549401","0.0-8.0-0.0-10.7","03","<p><img class= 'stimulus' src='images/baseline/sunny-landscape-with-dry-brush-and-mountain-background.jpg'></img></p>","null","","1549496294750","","","","","","",""
"null","","html-keyboard-response","455","1549500","0.0-8.0-0.0-11.7","03","<p><img class= 'stimulus' src='images/baseline/horse_statue.jpg'></img></p>","null","","1549496294849","","","","","","",""
"null","","html-keyboard-response","456","1549600","0.0-8.0-0.0-12.7","03","<p><img class= 'stimulus' src='images/baseline/Bahia_Onelli_Parque_Nacional_Los_Glaciares_Patagonia_Argentina_Luca_Galuzzi_2005.jpg'></img></p>","null","","1549496294949","12","","","","","",""
"null","","html-keyboard-response","457","1549700","0.0-8.0-0.0-13.7","03","<p><img class= 'stimulus' src='images/baseline/04031v.jpg'></img></p>","null","","1549496295050","","","","","","",""
"null","","html-keyboard-response","458","1549800","0.0-8.0-0.0-14.7","03","<p><img class= 'stimulus' src='images/baseline/Linden,_paysage.jpg'></img></p>","null","","1549496295150","14","","","","","",""
"null","","html-keyboard-response","459","1549900","0.0-8.0-0.0-15.7","03","<p><img class= 'stimulus' src='images/baseline/farmhouse2.jpg'></img></p>","null","","1549496295250","","","","","","",""
"null","","html-keyboard-response","460","1550000","0.0-8.0-0.0-16.7","03","<p><img class= 'stimulus' src='images/baseline/04010v.jpg'></img></p>","null","","1549496295350","","","","","","",""
"null","","html-keyboard-response","461","1550117","0.0-8.0-0.0-17.7","03","<p><img class= 'stimulus' src='images/baseline/03075v.jpg'></img></p>","null","","1549496295450","","","","","","",""
"870.499999997206","","html-button-response","462","1551991","0.0-8.0-0.0-18.7","03","<div class = ""response_question"">WAS THE IMAGE ROTATED...</div>","","3","","","6","2","neu","right","test","true"
"766.1999999980908","","html-button-response","463","1552759","0.0-8.0-0.0-0.8","03","","","0","","","","","","","",""
"null","","html-keyboard-response","464","1552833","0.0-8.0-0.0-1.8","03","<p><img class= 'stimulus' src='images/baseline/hiking-trail.jpg'></img></p>","null","","1549496298182","","","","","","",""
"null","","html-keyboard-response","465","1552934","0.0-8.0-0.0-2.8","03","<p><img class= 'stimulus' src='images/baseline/04196v.jpg'></img></p>","null","","1549496298284","","","","","","",""
"null","","html-keyboard-response","466","1553034","0.0-8.0-0.0-3.8","03","<p><img class= 'stimulus' src='images/baseline/building12.jpg'></img></p>","null","","1549496298383","","","","","","",""
"null","","html-keyboard-response","467","1553134","0.0-8.0-0.0-4.8","03","<p><img class= 'stimulus' src='images/negative/Injury 1.jpg'></img></p>","null","","1549496298483","4","","","","","",""
"null","","html-keyboard-response","468","1553234","0.0-8.0-0.0-5.8","03","<p><img class= 'stimulus' src='images/baseline/landscape31.jpg'></img></p>","null","","1549496298583","","","","","","",""
"null","","html-keyboard-response","469","1553333","0.0-8.0-0.0-6.8","03","<p><img class= 'stimulus' src='images/target/landscape32.jpg'></img></p>","null","","1549496298683","6","","","","","",""
"null","","html-keyboard-response","470","1553434","0.0-8.0-0.0-7.8","03","<p><img class= 'stimulus' src='images/baseline/Skyscraper 2.jpg'></img></p>","null","","1549496298783","","","","","","",""
"null","","html-keyboard-response","471","1553533","0.0-8.0-0.0-8.8","03","<p><img class= 'stimulus' src='images/baseline/04086v.jpg'></img></p>","null","","1549496298883","8","","","","","",""
"null","","html-keyboard-response","472","1553633","0.0-8.0-0.0-9.8","03","<p><img class= 'stimulus' src='images/baseline/99_-_Machu_Picchu_-_Juin_2009.edit3.jpg'></img></p>","null","","1549496298984","","","","","","",""
"null","","html-keyboard-response","473","1553734","0.0-8.0-0.0-10.8","03","<p><img class= 'stimulus' src='images/baseline/farmhouse4.jpg'></img></p>","null","","1549496299084","","","","","","",""
"null","","html-keyboard-response","474","1553833","0.0-8.0-0.0-11.8","03","<p><img class= 'stimulus' src='images/baseline/Lake 15.jpg'></img></p>","null","","1549496299182","","","","","","",""
"null","","html-keyboard-response","475","1553934","0.0-8.0-0.0-12.8","03","<p><img class= 'stimulus' src='images/baseline/lake 1.jpg'></img></p>","null","","1549496299283","12","","","","","",""
"null","","html-keyboard-response","476","1554033","0.0-8.0-0.0-13.8","03","<p><img class= 'stimulus' src='images/baseline/field 1.jpg'></img></p>","null","","1549496299383","","","","","","",""
"null","","html-keyboard-response","477","1554134","0.0-8.0-0.0-14.8","03","<p><img class= 'stimulus' src='images/baseline/05203v.jpg'></img></p>","null","","1549496299484","14","","","","","",""
"null","","html-keyboard-response","478","1554234","0.0-8.0-0.0-15.8","03","<p><img class= 'stimulus' src='images/baseline/lookout_tower.jpg'></img></p>","null","","1549496299583","","","","","","",""
"null","","html-keyboard-response","479","1554334","0.0-8.0-0.0-16.8","03","<p><img class= 'stimulus' src='images/baseline/Beach 3.jpg'></img></p>","null","","1549496299683","","","","","","",""
"null","","html-keyboard-response","480","1554451","0.0-8.0-0.0-17.8","03","<p><img class= 'stimulus' src='images/baseline/Happy pose 3.jpg'></img></p>","null","","1549496299784","","","","","","",""
"1583.3999999994412","","html-button-response","481","1557039","0.0-8.0-0.0-18.8","03","<div class = ""response_question"">WAS THE IMAGE ROTATED...</div>","","5","","","4","2","neg","right","test","false"
"869.9000000015367","","html-button-response","482","1557911","0.0-8.0-0.0-0.9","03","","","0","","","","","","","",""
"null","","html-keyboard-response","483","1557984","0.0-8.0-0.0-1.9","03","<p><img class= 'stimulus' src='images/baseline/Skijump 1.jpg'></img></p>","null","","1549496303333","","","","","","",""
"null","","html-keyboard-response","484","1558084","0.0-8.0-0.0-2.9","03","<p><img class= 'stimulus' src='images/baseline/foreclosed_home.jpg'></img></p>","null","","1549496303433","","","","","","",""
"null","","html-keyboard-response","485","1558184","0.0-8.0-0.0-3.9","03","<p><img class= 'stimulus' src='images/baseline/pexels-photo-427676.jpeg'></img></p>","null","","1549496303533","","","","","","",""
"null","","html-keyboard-response","486","1558284","0.0-8.0-0.0-4.9","03","<p><img class= 'stimulus' src='images/baseline/building9.jpg'></img></p>","null","","1549496303633","4","","","","","",""
"null","","html-keyboard-response","487","1558384","0.0-8.0-0.0-5.9","03","<p><img class= 'stimulus' src='images/baseline/Lake 4.jpg'></img></p>","null","","1549496303733","","","","","","",""
"null","","html-keyboard-response","488","1558483","0.0-8.0-0.0-6.9","03","<p><img class= 'stimulus' src='images/baseline/snowy tree.jpg'></img></p>","null","","1549496303834","6","","","","","",""
"null","","html-keyboard-response","489","1558584","0.0-8.0-0.0-7.9","03","<p><img class= 'stimulus' src='images/baseline/05145v.jpg'></img></p>","null","","1549496303935","","","","","","",""
"null","","html-keyboard-response","490","1558684","0.0-8.0-0.0-8.9","03","<p><img class= 'stimulus' src='images/baseline/pexels-photo-459203.jpeg'></img></p>","null","","1549496304033","8","","","","","",""
"null","","html-keyboard-response","491","1558783","0.0-8.0-0.0-9.9","03","<p><img class= 'stimulus' src='images/baseline/05186v.jpg'></img></p>","null","","1549496304134","","","","","","",""
"null","","html-keyboard-response","492","1558884","0.0-8.0-0.0-10.9","03","<p><img class= 'stimulus' src='images/baseline/landscape6.jpg'></img></p>","null","","1549496304233","","","","","","",""
"null","","html-keyboard-response","493","1558983","0.0-8.0-0.0-11.9","03","<p><img class= 'stimulus' src='images/baseline/05264v.jpg'></img></p>","null","","1549496304333","","","","","","",""
"null","","html-keyboard-response","494","1559083","0.0-8.0-0.0-12.9","03","<p><img class= 'stimulus' src='images/target/building17.jpg'></img></p>","null","","1549496304433","12","","","","","",""
"null","","html-keyboard-response","495","1559184","0.0-8.0-0.0-13.9","03","<p><img class= 'stimulus' src='images/baseline/Niinsaare_jarv.jpg'></img></p>","null","","1549496304534","","","","","","",""
"null","","html-keyboard-response","496","1559284","0.0-8.0-0.0-14.9","03","<p><img class= 'stimulus' src='images/baseline/sun-through-winter-tree-branches1.jpg'></img></p>","null","","1549496304634","14","","","","","",""
"null","","html-keyboard-response","497","1559384","0.0-8.0-0.0-15.9","03","<p><img class= 'stimulus' src='images/baseline/lone-old-cottonwood-tree.jpg'></img></p>","null","","1549496304734","","","","","","",""
"null","","html-keyboard-response","498","1559485","0.0-8.0-0.0-16.9","03","<p><img class= 'stimulus' src='images/baseline/building16.jpg'></img></p>","null","","1549496304833","","","","","","",""
"null","","html-keyboard-response","499","1559600","0.0-8.0-0.0-17.9","03","<p><img class= 'stimulus' src='images/baseline/Street 3.jpg'></img></p>","null","","1549496304934","","","","","","",""
"1122.4000000003725","","html-button-response","500","1561727","0.0-8.0-0.0-18.9","03","<div class = ""response_question"">WAS THE IMAGE ROTATED...</div>","","1","","","4","8","bas","right","test","false"
"806.0000000004657","","html-button-response","501","1562534","0.0-8.0-0.0-0.10","03","","","0","","","","","","","",""
"null","","html-keyboard-response","502","1562618","0.0-8.0-0.0-1.10","03","<p><img class= 'stimulus' src='images/baseline/Aletschgletscher-Eggishorn.jpg'></img></p>","null","","1549496307967","","","","","","",""
"null","","html-keyboard-response","503","1562717","0.0-8.0-0.0-2.10","03","<p><img class= 'stimulus' src='images/baseline/landscape40.jpg'></img></p>","null","","1549496308067","","","","","","",""
"null","","html-keyboard-response","504","1562817","0.0-8.0-0.0-3.10","03","<p><img class= 'stimulus' src='images/baseline/Sunset 3.jpg'></img></p>","null","","1549496308166","","","","","","",""
"null","","html-keyboard-response","505","1562917","0.0-8.0-0.0-4.10","03","<p><img class= 'stimulus' src='images/baseline/autumn-landscape-with-lake-fall-trees-mountains.jpg'></img></p>","null","","1549496308266","4","","","","","",""
"null","","html-keyboard-response","506","1563017","0.0-8.0-0.0-5.10","03","<p><img class= 'stimulus' src='images/baseline/04300v.jpg'></img></p>","null","","1549496308368","","","","","","",""
"null","","html-keyboard-response","507","1563119","0.0-8.0-0.0-6.10","03","<p><img class= 'stimulus' src='images/negative/Fire 7.jpg'></img></p>","null","","1549496308467","6","","","","","",""
