"rt","responses","trial_type","trial_index","time_elapsed","internal_node_id","participant_id","stimulus","key_press","button_pressed","stim_onset","sequence_position","distractor_position","target_lag","distractor_type","target_orientation","phase","correct"
"14018.499999991036","{""Q0"":""COGS219_2019_37""}","survey-text","0","14024","0.0-0.0","COGS219_2019_37","","","","","","","","","","",""
"2699724.7999999966","","html-keyboard-response","1","2713758","0.0-1.0","COGS219_2019_37","Welcome to the experiment.","67","","","","","","","","",""
"17575.200000006706","","html-button-response","2","2731340","0.0-2.0","COGS219_2019_37","<p>Several images will be presented sequentially.        Each image will only be on the screen for about 100 milliseconds.</p>        <p> One of the images may be rotated 90 degrees right or left.        Watch for this image and remember if it is rotated right or left.</p>               <p>Images of people and animals will appear, and sometimes they will be unpleasant.        These will never be the rotated target image.</p>","","0","","","","","","","",""
"2854.3999999961816","","html-button-response","3","2734195","0.0-3.0","COGS219_2019_37","<p><img class=""stimulus left-rotate"" src=""images/target/petronas-towers-433081_1920.jpg""></img></p><p>This is an example of an image rotated to the left.</p>","","0","","","","","","","",""
"1638.5000000009313","","html-button-response","4","2735834","0.0-4.0","COGS219_2019_37","<p><img class=""stimulus"" src=""images/target/building4.jpg""></img></p><p>This is an example of an image rotated to the right.</p>","","0","","","","","","","",""
"12430.99999999674","","html-button-response","5","2748266","0.0-5.0","COGS219_2019_37","<p>We will now begin a short practice session.</p>         <p>A + symbol will appear in the middle of the screen. Please fix your gaze on the center of the +, and then click the mouse button to begin the image sequence.</p>         <p>Please avoid blinking or eye movements while the images are on the screen.</p>        <p>The image sequence will start relatively slow. After a few sequences, it will speed up.</p>","","0","","","","","","","",""
"3702.4999999990687","","html-button-response","6","2751964","0.0-6.0-0.0","COGS219_2019_37","","","0","","","","","","","",""
"null","","html-keyboard-response","7","2752145","0.0-6.0-1.0","COGS219_2019_37","<p><img class= 'stimulus' src='images/baseline/04196v.jpg'></img></p>","null","","1551126839122","","","","","","",""
"null","","html-keyboard-response","8","2752345","0.0-6.0-2.0","COGS219_2019_37","<p><img class= 'stimulus' src='images/baseline/grand-teton-mountains.jpg'></img></p>","null","","1551126839322","","","","","","",""
"null","","html-keyboard-response","9","2752543","0.0-6.0-3.0","COGS219_2019_37","<p><img class= 'stimulus' src='images/baseline/03204v.jpg'></img></p>","null","","1551126839524","","","","","","",""
"null","","html-keyboard-response","10","2752744","0.0-6.0-4.0","COGS219_2019_37","<p><img class= 'stimulus' src='images/baseline/04158v.jpg'></img></p>","null","","1551126839723","4","","","","","",""
"null","","html-keyboard-response","11","2752944","0.0-6.0-5.0","COGS219_2019_37","<p><img class= 'stimulus' src='images/baseline/04085v.jpg'></img></p>","null","","1551126839923","","","","","","",""
"null","","html-keyboard-response","12","2753145","0.0-6.0-6.0","COGS219_2019_37","<p><img class= 'stimulus' src='images/baseline/landscape13.jpg'></img></p>","null","","1551126840122","6","","","","","",""
"null","","html-keyboard-response","13","2753345","0.0-6.0-7.0","COGS219_2019_37","<p><img class= 'stimulus' src='images/baseline/dirt-road-or-trail-through-park.jpg'></img></p>","null","","1551126840323","","","","","","",""
"null","","html-keyboard-response","14","2753545","0.0-6.0-8.0","COGS219_2019_37","<p><img class= 'stimulus' src='images/baseline/Cold 7.jpg'></img></p>","null","","1551126840523","8","","","","","",""
"null","","html-keyboard-response","15","2753745","0.0-6.0-9.0","COGS219_2019_37","<p><img class= 'stimulus' src='images/baseline/05179v.jpg'></img></p>","null","","1551126840723","","","","","","",""
"null","","html-keyboard-response","16","2753944","0.0-6.0-10.0","COGS219_2019_37","<p><img class= 'stimulus' src='images/baseline/03217v.jpg'></img></p>","null","","1551126840923","","","","","","",""
"null","","html-keyboard-response","17","2754144","0.0-6.0-11.0","COGS219_2019_37","<p><img class= 'stimulus' src='images/baseline/empire-state-building.jpg'></img></p>","null","","1551126841123","","","","","","",""
"null","","html-keyboard-response","18","2754344","0.0-6.0-12.0","COGS219_2019_37","<p><img class= 'stimulus' src='images/baseline/Beach 8.jpg'></img></p>","null","","1551126841322","12","","","","","",""
"null","","html-keyboard-response","19","2754545","0.0-6.0-13.0","COGS219_2019_37","<p><img class= 'stimulus' src='images/baseline/agriculture-cereal-clouds-175389.jpg'></img></p>","null","","1551126841523","","","","","","",""
"null","","html-keyboard-response","20","2754745","0.0-6.0-14.0","COGS219_2019_37","<p><img class= 'stimulus left-rotate' src='images/target/Tree-Landscape-Winter-Nature-Winter-Trees-Snow-2117951.jpg'></img></p>","null","","1551126841722","14","","","","","",""
"null","","html-keyboard-response","21","2754945","0.0-6.0-15.0","COGS219_2019_37","<p><img class= 'stimulus' src='images/baseline/farmhouse6.jpg'></img></p>","null","","1551126841923","","","","","","",""
"null","","html-keyboard-response","22","2755145","0.0-6.0-16.0","COGS219_2019_37","<p><img class= 'stimulus' src='images/baseline/pexels-photo-808465.jpeg'></img></p>","null","","1551126842124","","","","","","",""
"null","","html-keyboard-response","23","2755363","0.0-6.0-17.0","COGS219_2019_37","<p><img class= 'stimulus' src='images/baseline/Beach 3.jpg'></img></p>","null","","1551126842323","","","","","","",""
"2455.3000000016764","","html-button-response","24","2758827","0.0-6.0-18.0","COGS219_2019_37","<div class = ""response_question"">WAS THE IMAGE ROTATED...</div>","","0","","","6","8","bas","left","practice","true"
"2270.0000000037253","","html-button-response","25","2761099","0.0-6.0-0.1","COGS219_2019_37","","","0","","","","","","","",""
"null","","html-keyboard-response","26","2761278","0.0-6.0-1.1","COGS219_2019_37","<p><img class= 'stimulus' src='images/baseline/building6.jpg'></img></p>","null","","1551126848258","","","","","","",""
"null","","html-keyboard-response","27","2761479","0.0-6.0-2.1","COGS219_2019_37","<p><img class= 'stimulus' src='images/baseline/lake 2.jpg'></img></p>","null","","1551126848457","","","","","","",""
"null","","html-keyboard-response","28","2761679","0.0-6.0-3.1","COGS219_2019_37","<p><img class= 'stimulus' src='images/baseline/architecture-956332_1280.jpg'></img></p>","null","","1551126848658","","","","","","",""
"null","","html-keyboard-response","29","2761879","0.0-6.0-4.1","COGS219_2019_37","<p><img class= 'stimulus' src='images/baseline/Sunset 6.jpg'></img></p>","null","","1551126848856","4","","","","","",""
"null","","html-keyboard-response","30","2762080","0.0-6.0-5.1","COGS219_2019_37","<p><img class= 'stimulus' src='images/baseline/03066v.jpg'></img></p>","null","","1551126849058","","","","","","",""
"null","","html-keyboard-response","31","2762279","0.0-6.0-6.1","COGS219_2019_37","<p><img class= 'stimulus left-rotate' src='images/target/mexico_tower_latin_american.jpg'></img></p>","null","","1551126849258","6","","","","","",""
"null","","html-keyboard-response","32","2762479","0.0-6.0-7.1","COGS219_2019_37","<p><img class= 'stimulus' src='images/baseline/04222v.jpg'></img></p>","null","","1551126849459","","","","","","",""
"null","","html-keyboard-response","33","2762678","0.0-6.0-8.1","COGS219_2019_37","<p><img class= 'stimulus' src='images/baseline/chicago-skyline-at-night-1476869511p8U.jpg'></img></p>","null","","1551126849658","8","","","","","",""
"null","","html-keyboard-response","34","2762879","0.0-6.0-9.1","COGS219_2019_37","<p><img class= 'stimulus' src='images/baseline/Skijump 1.jpg'></img></p>","null","","1551126849859","","","","","","",""
"null","","html-keyboard-response","35","2763079","0.0-6.0-10.1","COGS219_2019_37","<p><img class= 'stimulus' src='images/baseline/Paysage_karabagh_02.jpg'></img></p>","null","","1551126850057","","","","","","",""
"null","","html-keyboard-response","36","2763278","0.0-6.0-11.1","COGS219_2019_37","<p><img class= 'stimulus' src='images/baseline/05280v.jpg'></img></p>","null","","1551126850257","","","","","","",""
"null","","html-keyboard-response","37","2763478","0.0-6.0-12.1","COGS219_2019_37","<p><img class= 'stimulus' src='images/baseline/04179v.jpg'></img></p>","null","","1551126850457","12","","","","","",""
"null","","html-keyboard-response","38","2763679","0.0-6.0-13.1","COGS219_2019_37","<p><img class= 'stimulus' src='images/baseline/05279v.jpg'></img></p>","null","","1551126850656","","","","","","",""
"null","","html-keyboard-response","39","2763879","0.0-6.0-14.1","COGS219_2019_37","<p><img class= 'stimulus' src='images/baseline/landscape31.jpg'></img></p>","null","","1551126850857","14","","","","","",""
"null","","html-keyboard-response","40","2764079","0.0-6.0-15.1","COGS219_2019_37","<p><img class= 'stimulus' src='images/baseline/Bridge 1.jpg'></img></p>","null","","1551126851057","","","","","","",""
"null","","html-keyboard-response","41","2764279","0.0-6.0-16.1","COGS219_2019_37","<p><img class= 'stimulus' src='images/baseline/05161v.jpg'></img></p>","null","","1551126851258","","","","","","",""
"null","","html-keyboard-response","42","2764496","0.0-6.0-17.1","COGS219_2019_37","<p><img class= 'stimulus' src='images/baseline/tennis-court-net-buried-in-snow.jpg'></img></p>","null","","1551126851459","","","","","","",""
"2180.100000012666","","html-button-response","43","2767692","0.0-6.0-18.1","COGS219_2019_37","<div class = ""response_question"">WAS THE IMAGE ROTATED...</div>","","0","","","4","2","bas","left","practice","true"
"3350.4000000101514","","html-button-response","44","2771043","0.0-6.0-0.2","COGS219_2019_37","","","0","","","","","","","",""
"null","","html-keyboard-response","45","2771229","0.0-6.0-1.2","COGS219_2019_37","<p><img class= 'stimulus' src='images/baseline/05198v.jpg'></img></p>","null","","1551126858207","","","","","","",""
"null","","html-keyboard-response","46","2771429","0.0-6.0-2.2","COGS219_2019_37","<p><img class= 'stimulus' src='images/baseline/04284v.jpg'></img></p>","null","","1551126858407","","","","","","",""
"null","","html-keyboard-response","47","2771629","0.0-6.0-3.2","COGS219_2019_37","<p><img class= 'stimulus' src='images/baseline/road 1(1).jpg'></img></p>","null","","1551126858607","","","","","","",""
"null","","html-keyboard-response","48","2771829","0.0-6.0-4.2","COGS219_2019_37","<p><img class= 'stimulus' src='images/baseline/pexels-photo-280222.jpeg'></img></p>","null","","1551126858807","4","","","","","",""
"null","","html-keyboard-response","49","2772029","0.0-6.0-5.2","COGS219_2019_37","<p><img class= 'stimulus' src='images/baseline/landscape40.jpg'></img></p>","null","","1551126859008","","","","","","",""
"null","","html-keyboard-response","50","2772228","0.0-6.0-6.2","COGS219_2019_37","<p><img class= 'stimulus' src='images/baseline/landscape38.jpg'></img></p>","null","","1551126859206","6","","","","","",""
"null","","html-keyboard-response","51","2772428","0.0-6.0-7.2","COGS219_2019_37","<p><img class= 'stimulus' src='images/baseline/03114v.jpg'></img></p>","null","","1551126859406","","","","","","",""
"null","","html-keyboard-response","52","2772631","0.0-6.0-8.2","COGS219_2019_37","<p><img class= 'stimulus' src='images/baseline/landscape29.jpg'></img></p>","null","","1551126859606","8","","","","","",""
"null","","html-keyboard-response","53","2772829","0.0-6.0-9.2","COGS219_2019_37","<p><img class= 'stimulus' src='images/baseline/Nature 2.jpg'></img></p>","null","","1551126859809","","","","","","",""
"null","","html-keyboard-response","54","2773029","0.0-6.0-10.2","COGS219_2019_37","<p><img class= 'stimulus' src='images/baseline/sun-through-winter-tree-branches1.jpg'></img></p>","null","","1551126860007","","","","","","",""
"null","","html-keyboard-response","55","2773228","0.0-6.0-11.2","COGS219_2019_37","<p><img class= 'stimulus' src='images/baseline/Sunset 4.jpg'></img></p>","null","","1551126860209","","","","","","",""
"null","","html-keyboard-response","56","2773428","0.0-6.0-12.2","COGS219_2019_37","<p><img class= 'stimulus' src='images/baseline/03056v.jpg'></img></p>","null","","1551126860408","12","","","","","",""
"null","","html-keyboard-response","57","2773628","0.0-6.0-13.2","COGS219_2019_37","<p><img class= 'stimulus' src='images/baseline/church-silhouette-8712964986014Kb.jpg'></img></p>","null","","1551126860607","","","","","","",""
"null","","html-keyboard-response","58","2773827","0.0-6.0-14.2","COGS219_2019_37","<p><img class= 'stimulus' src='images/target/oak-456524_640.jpg'></img></p>","null","","1551126860806","14","","","","","",""
"null","","html-keyboard-response","59","2774029","0.0-6.0-15.2","COGS219_2019_37","<p><img class= 'stimulus' src='images/baseline/04117v.jpg'></img></p>","null","","1551126861008","","","","","","",""
"null","","html-keyboard-response","60","2774229","0.0-6.0-16.2","COGS219_2019_37","<p><img class= 'stimulus' src='images/baseline/pexels-photo-414491.jpeg'></img></p>","null","","1551126861206","","","","","","",""
"null","","html-keyboard-response","61","2774445","0.0-6.0-17.2","COGS219_2019_37","<p><img class= 'stimulus' src='images/baseline/Dirt 2.jpg'></img></p>","null","","1551126861407","","","","","","",""
"2713.6000000024214","","html-button-response","62","2778164","0.0-6.0-18.2","COGS219_2019_37","<div class = ""response_question"">WAS THE IMAGE ROTATED...</div>","","3","","","6","8","bas","right","practice","true"
"2118.4999999967404","","html-button-response","63","2780284","0.0-6.0-0.3","COGS219_2019_37","","","0","","","","","","","",""
"null","","html-keyboard-response","64","2780461","0.0-6.0-1.3","COGS219_2019_37","<p><img class= 'stimulus' src='images/baseline/03180v.jpg'></img></p>","null","","1551126867440","","","","","","",""
"null","","html-keyboard-response","65","2780662","0.0-6.0-2.3","COGS219_2019_37","<p><img class= 'stimulus' src='images/baseline/05189v.jpg'></img></p>","null","","1551126867641","","","","","","",""
"null","","html-keyboard-response","66","2780862","0.0-6.0-3.3","COGS219_2019_37","<p><img class= 'stimulus' src='images/baseline/house8.jpg'></img></p>","null","","1551126867841","","","","","","",""
"null","","html-keyboard-response","67","2781062","0.0-6.0-4.3","COGS219_2019_37","<p><img class= 'stimulus' src='images/baseline/05255v.jpg'></img></p>","null","","1551126868041","4","","","","","",""
"null","","html-keyboard-response","68","2781263","0.0-6.0-5.3","COGS219_2019_37","<p><img class= 'stimulus' src='images/baseline/building5.jpg'></img></p>","null","","1551126868240","","","","","","",""
"null","","html-keyboard-response","69","2781463","0.0-6.0-6.3","COGS219_2019_37","<p><img class= 'stimulus' src='images/baseline/agriculture-countryside-crop-259280.jpg'></img></p>","null","","1551126868441","6","","","","","",""
"null","","html-keyboard-response","70","2781663","0.0-6.0-7.3","COGS219_2019_37","<p><img class= 'stimulus' src='images/baseline/landscape39.jpg'></img></p>","null","","1551126868641","","","","","","",""
"null","","html-keyboard-response","71","2781863","0.0-6.0-8.3","COGS219_2019_37","<p><img class= 'stimulus' src='images/target/shotstash_0036-1-1100x734.jpg'></img></p>","null","","1551126868841","8","","","","","",""
"null","","html-keyboard-response","72","2782062","0.0-6.0-9.3","COGS219_2019_37","<p><img class= 'stimulus' src='images/baseline/05242v.jpg'></img></p>","null","","1551126869041","","","","","","",""
"null","","html-keyboard-response","73","2782263","0.0-6.0-10.3","COGS219_2019_37","<p><img class= 'stimulus' src='images/baseline/03063v.jpg'></img></p>","null","","1551126869241","","","","","","",""
"null","","html-keyboard-response","74","2782463","0.0-6.0-11.3","COGS219_2019_37","<p><img class= 'stimulus' src='images/baseline/04064v.jpg'></img></p>","null","","1551126869441","","","","","","",""
"null","","html-keyboard-response","75","2782662","0.0-6.0-12.3","COGS219_2019_37","<p><img class= 'stimulus' src='images/baseline/Peyto_Lake-Banff_NP-Canada.jpg'></img></p>","null","","1551126869641","12","","","","","",""
"null","","html-keyboard-response","76","2782862","0.0-6.0-13.3","COGS219_2019_37","<p><img class= 'stimulus' src='images/baseline/hills 3.jpg'></img></p>","null","","1551126869841","","","","","","",""
"null","","html-keyboard-response","77","2783062","0.0-6.0-14.3","COGS219_2019_37","<p><img class= 'stimulus' src='images/baseline/05131v.jpg'></img></p>","null","","1551126870041","14","","","","","",""
"null","","html-keyboard-response","78","2783262","0.0-6.0-15.3","COGS219_2019_37","<p><img class= 'stimulus' src='images/baseline/pexels-photo-1287089.jpeg'></img></p>","null","","1551126870241","","","","","","",""
"null","","html-keyboard-response","79","2783462","0.0-6.0-16.3","COGS219_2019_37","<p><img class= 'stimulus' src='images/baseline/farmhouse8.jpg'></img></p>","null","","1551126870441","","","","","","",""
"null","","html-keyboard-response","80","2783680","0.0-6.0-17.3","COGS219_2019_37","<p><img class= 'stimulus' src='images/baseline/pexels-photo-1048039.jpeg'></img></p>","null","","1551126870640","","","","","","",""
"2166.7000000015832","","html-button-response","81","2786851","0.0-6.0-18.3","COGS219_2019_37","<div class = ""response_question"">WAS THE IMAGE ROTATED...</div>","","3","","","6","2","bas","right","practice","true"
"2278.7999999998137","","html-button-response","82","2789132","0.0-6.0-0.4","COGS219_2019_37","","","0","","","","","","","",""
"null","","html-keyboard-response","83","2789263","0.0-6.0-1.4","COGS219_2019_37","<p><img class= 'stimulus' src='images/baseline/03045v.jpg'></img></p>","null","","1551126876291","","","","","","",""
"null","","html-keyboard-response","84","2789413","0.0-6.0-2.4","COGS219_2019_37","<p><img class= 'stimulus' src='images/baseline/03220v.jpg'></img></p>","null","","1551126876441","","","","","","",""
"null","","html-keyboard-response","85","2789562","0.0-6.0-3.4","COGS219_2019_37","<p><img class= 'stimulus' src='images/baseline/landscape1.jpg'></img></p>","null","","1551126876592","","","","","","",""
"null","","html-keyboard-response","86","2789712","0.0-6.0-4.4","COGS219_2019_37","<p><img class= 'stimulus' src='images/baseline/Sailing 3.jpg'></img></p>","null","","1551126876742","4","","","","","",""
"null","","html-keyboard-response","87","2789862","0.0-6.0-5.4","COGS219_2019_37","<p><img class= 'stimulus' src='images/baseline/foreclosed_home.jpg'></img></p>","null","","1551126876891","","","","","","",""
"null","","html-keyboard-response","88","2790013","0.0-6.0-6.4","COGS219_2019_37","<p><img class= 'stimulus' src='images/baseline/05167v.jpg'></img></p>","null","","1551126877040","6","","","","","",""
"null","","html-keyboard-response","89","2790162","0.0-6.0-7.4","COGS219_2019_37","<p><img class= 'stimulus' src='images/baseline/building3.jpg'></img></p>","null","","1551126877190","","","","","","",""
"null","","html-keyboard-response","90","2790312","0.0-6.0-8.4","COGS219_2019_37","<p><img class= 'stimulus left-rotate' src='images/target/pexels-photo-602607.jpeg'></img></p>","null","","1551126877342","8","","","","","",""
"null","","html-keyboard-response","91","2790462","0.0-6.0-9.4","COGS219_2019_37","<p><img class= 'stimulus' src='images/baseline/05158v.jpg'></img></p>","null","","1551126877492","","","","","","",""
"null","","html-keyboard-response","92","2790612","0.0-6.0-10.4","COGS219_2019_37","<p><img class= 'stimulus' src='images/baseline/pexels-photo-259280.jpeg'></img></p>","null","","1551126877640","","","","","","",""
"null","","html-keyboard-response","93","2790762","0.0-6.0-11.4","COGS219_2019_37","<p><img class= 'stimulus' src='images/baseline/Lake 7.jpg'></img></p>","null","","1551126877790","","","","","","",""
"null","","html-keyboard-response","94","2790911","0.0-6.0-12.4","COGS219_2019_37","<p><img class= 'stimulus' src='images/baseline/geese-flying-over-lake-at-dusk.jpg'></img></p>","null","","1551126877941","12","","","","","",""
"null","","html-keyboard-response","95","2791061","0.0-6.0-13.4","COGS219_2019_37","<p><img class= 'stimulus' src='images/baseline/02962v.jpg'></img></p>","null","","1551126878091","","","","","","",""
"null","","html-keyboard-response","96","2791212","0.0-6.0-14.4","COGS219_2019_37","<p><img class= 'stimulus' src='images/baseline/04014v.jpg'></img></p>","null","","1551126878239","14","","","","","",""
"null","","html-keyboard-response","97","2791362","0.0-6.0-15.4","COGS219_2019_37","<p><img class= 'stimulus' src='images/baseline/02945v.jpg'></img></p>","null","","1551126878390","","","","","","",""
"null","","html-keyboard-response","98","2791512","0.0-6.0-16.4","COGS219_2019_37","<p><img class= 'stimulus' src='images/baseline/Grass 6.jpg'></img></p>","null","","1551126878540","","","","","","",""
"null","","html-keyboard-response","99","2791678","0.0-6.0-17.4","COGS219_2019_37","<p><img class= 'stimulus' src='images/baseline/Street 4.jpg'></img></p>","null","","1551126878689","","","","","","",""
"2255.6999999941327","","html-button-response","100","2794939","0.0-6.0-18.4","COGS219_2019_37","<div class = ""response_question"">WAS THE IMAGE ROTATED...</div>","","1","","","6","2","bas","left","practice","true"
"2670.599999997299","","html-button-response","101","2797611","0.0-6.0-0.5","COGS219_2019_37","","","0","","","","","","","",""
"null","","html-keyboard-response","102","2797744","0.0-6.0-1.5","COGS219_2019_37","<p><img class= 'stimulus' src='images/baseline/pexels-photo-1054289.jpeg'></img></p>","null","","1551126884773","","","","","","",""
"null","","html-keyboard-response","103","2797894","0.0-6.0-2.5","COGS219_2019_37","<p><img class= 'stimulus' src='images/baseline/landscape3.jpg'></img></p>","null","","1551126884924","","","","","","",""
"null","","html-keyboard-response","104","2798045","0.0-6.0-3.5","COGS219_2019_37","<p><img class= 'stimulus' src='images/baseline/valley 2.jpg'></img></p>","null","","1551126885074","","","","","","",""
"null","","html-keyboard-response","105","2798194","0.0-6.0-4.5","COGS219_2019_37","<p><img class= 'stimulus' src='images/baseline/pexels-photo-210617.jpeg'></img></p>","null","","1551126885223","4","","","","","",""
"null","","html-keyboard-response","106","2798344","0.0-6.0-5.5","COGS219_2019_37","<p><img class= 'stimulus' src='images/baseline/04021v.jpg'></img></p>","null","","1551126885374","","","","","","",""
"null","","html-keyboard-response","107","2798495","0.0-6.0-6.5","COGS219_2019_37","<p><img class= 'stimulus' src='images/target/house-estate-1100x733.jpg'></img></p>","null","","1551126885523","6","","","","","",""
"null","","html-keyboard-response","108","2798644","0.0-6.0-7.5","COGS219_2019_37","<p><img class= 'stimulus' src='images/baseline/pexels-photo-750108.jpeg'></img></p>","null","","1551126885672","","","","","","",""
"null","","html-keyboard-response","109","2798794","0.0-6.0-8.5","COGS219_2019_37","<p><img class= 'stimulus' src='images/baseline/Sunset 5.jpg'></img></p>","null","","1551126885822","8","","","","","",""
"null","","html-keyboard-response","110","2798945","0.0-6.0-9.5","COGS219_2019_37","<p><img class= 'stimulus' src='images/baseline/pexels-photo-1840893.jpeg'></img></p>","null","","1551126885973","","","","","","",""
"null","","html-keyboard-response","111","2799093","0.0-6.0-10.5","COGS219_2019_37","<p><img class= 'stimulus' src='images/baseline/Sidewalk 4.jpg'></img></p>","null","","1551126886123","","","","","","",""
"null","","html-keyboard-response","112","2799244","0.0-6.0-11.5","COGS219_2019_37","<p><img class= 'stimulus' src='images/baseline/05247v.jpg'></img></p>","null","","1551126886273","","","","","","",""
"null","","html-keyboard-response","113","2799394","0.0-6.0-12.5","COGS219_2019_37","<p><img class= 'stimulus' src='images/baseline/sunset-over-the-lake.jpg'></img></p>","null","","1551126886423","12","","","","","",""
"null","","html-keyboard-response","114","2799544","0.0-6.0-13.5","COGS219_2019_37","<p><img class= 'stimulus' src='images/baseline/landscape17.jpg'></img></p>","null","","1551126886573","","","","","","",""
"null","","html-keyboard-response","115","2799695","0.0-6.0-14.5","COGS219_2019_37","<p><img class= 'stimulus' src='images/baseline/road.jpg'></img></p>","null","","1551126886723","14","","","","","",""
"null","","html-keyboard-response","116","2799845","0.0-6.0-15.5","COGS219_2019_37","<p><img class= 'stimulus' src='images/baseline/Lake 13.jpg'></img></p>","null","","1551126886873","","","","","","",""
"null","","html-keyboard-response","117","2799995","0.0-6.0-16.5","COGS219_2019_37","<p><img class= 'stimulus' src='images/baseline/05203v.jpg'></img></p>","null","","1551126887022","","","","","","",""
"null","","html-keyboard-response","118","2800161","0.0-6.0-17.5","COGS219_2019_37","<p><img class= 'stimulus' src='images/baseline/pexels-photo-894312.jpeg'></img></p>","null","","1551126887172","","","","","","",""
"1814.100000002887","","html-button-response","119","2802980","0.0-6.0-18.5","COGS219_2019_37","<div class = ""response_question"">WAS THE IMAGE ROTATED...</div>","","4","","","4","2","bas","right","practice","true"
"1926.0000000065193","","html-button-response","120","2804907","0.0-6.0-0.6","COGS219_2019_37","","","0","","","","","","","",""
"null","","html-keyboard-response","121","2805045","0.0-6.0-1.6","COGS219_2019_37","<p><img class= 'stimulus' src='images/baseline/05186v.jpg'></img></p>","null","","1551126892073","","","","","","",""
"null","","html-keyboard-response","122","2805195","0.0-6.0-2.6","COGS219_2019_37","<p><img class= 'stimulus' src='images/baseline/farmhouse9.jpg'></img></p>","null","","1551126892224","","","","","","",""
"null","","html-keyboard-response","123","2805344","0.0-6.0-3.6","COGS219_2019_37","<p><img class= 'stimulus' src='images/baseline/04060v.jpg'></img></p>","null","","1551126892373","","","","","","",""
"null","","html-keyboard-response","124","2805495","0.0-6.0-4.6","COGS219_2019_37","<p><img class= 'stimulus' src='images/baseline/Skyscraper 2.jpg'></img></p>","null","","1551126892522","4","","","","","",""
"null","","html-keyboard-response","125","2805645","0.0-6.0-5.6","COGS219_2019_37","<p><img class= 'stimulus' src='images/baseline/landscape33.jpg'></img></p>","null","","1551126892673","","","","","","",""
"null","","html-keyboard-response","126","2805795","0.0-6.0-6.6","COGS219_2019_37","<p><img class= 'stimulus' src='images/baseline/cyrillic.jpg'></img></p>","null","","1551126892822","6","","","","","",""
"null","","html-keyboard-response","127","2805944","0.0-6.0-7.6","COGS219_2019_37","<p><img class= 'stimulus' src='images/baseline/landscape35.jpg'></img></p>","null","","1551126892972","","","","","","",""
"null","","html-keyboard-response","128","2806095","0.0-6.0-8.6","COGS219_2019_37","<p><img class= 'stimulus' src='images/baseline/4k-wallpaper-agriculture-clouds-842711.jpg'></img></p>","null","","1551126893123","8","","","","","",""
"null","","html-keyboard-response","129","2806244","0.0-6.0-9.6","COGS219_2019_37","<p><img class= 'stimulus' src='images/baseline/field 3.jpg'></img></p>","null","","1551126893273","","","","","","",""
"null","","html-keyboard-response","130","2806394","0.0-6.0-10.6","COGS219_2019_37","<p><img class= 'stimulus' src='images/baseline/river 1.jpg'></img></p>","null","","1551126893423","","","","","","",""
"null","","html-keyboard-response","131","2806544","0.0-6.0-11.6","COGS219_2019_37","<p><img class= 'stimulus' src='images/baseline/autumn-landscape-with-lake-fall-trees-mountains.jpg'></img></p>","null","","1551126893573","","","","","","",""
"null","","html-keyboard-response","132","2806694","0.0-6.0-12.6","COGS219_2019_37","<p><img class= 'stimulus left-rotate' src='images/target/pexels-photo-1534411.jpeg'></img></p>","null","","1551126893723","12","","","","","",""
"null","","html-keyboard-response","133","2806845","0.0-6.0-13.6","COGS219_2019_37","<p><img class= 'stimulus' src='images/baseline/field 2.jpg'></img></p>","null","","1551126893873","","","","","","",""
"null","","html-keyboard-response","134","2806994","0.0-6.0-14.6","COGS219_2019_37","<p><img class= 'stimulus' src='images/baseline/town-square-in-wroclaw-1539098440MZy.jpg'></img></p>","null","","1551126894022","14","","","","","",""
"null","","html-keyboard-response","135","2807144","0.0-6.0-15.6","COGS219_2019_37","<p><img class= 'stimulus' src='images/baseline/Paysage_enneige_02.jpg'></img></p>","null","","1551126894172","","","","","","",""
"null","","html-keyboard-response","136","2807293","0.0-6.0-16.6","COGS219_2019_37","<p><img class= 'stimulus' src='images/baseline/house1.jpg'></img></p>","null","","1551126894322","","","","","","",""
"null","","html-keyboard-response","137","2807460","0.0-6.0-17.6","COGS219_2019_37","<p><img class= 'stimulus' src='images/baseline/landscape11.jpg'></img></p>","null","","1551126894474","","","","","","",""
"2284.499999994412","","html-button-response","138","2810755","0.0-6.0-18.6","COGS219_2019_37","<div class = ""response_question"">WAS THE IMAGE ROTATED...</div>","","0","","","4","8","bas","left","practice","true"
"2694.6000000024214","","html-button-response","139","2813445","0.0-6.0-0.7","COGS219_2019_37","","","0","","","","","","","",""
"null","","html-keyboard-response","140","2813572","0.0-6.0-1.7","COGS219_2019_37","<p><img class= 'stimulus' src='images/baseline/trees 23.jpg'></img></p>","null","","1551126900600","","","","","","",""
"null","","html-keyboard-response","141","2813722","0.0-6.0-2.7","COGS219_2019_37","<p><img class= 'stimulus' src='images/baseline/landscape15.jpg'></img></p>","null","","1551126900750","","","","","","",""
"null","","html-keyboard-response","142","2813872","0.0-6.0-3.7","COGS219_2019_37","<p><img class= 'stimulus' src='images/baseline/02947v.jpg'></img></p>","null","","1551126900899","","","","","","",""
"null","","html-keyboard-response","143","2814022","0.0-6.0-4.7","COGS219_2019_37","<p><img class= 'stimulus' src='images/baseline/05303v.jpg'></img></p>","null","","1551126901051","4","","","","","",""
"null","","html-keyboard-response","144","2814173","0.0-6.0-5.7","COGS219_2019_37","<p><img class= 'stimulus' src='images/baseline/Street 3.jpg'></img></p>","null","","1551126901200","","","","","","",""
"null","","html-keyboard-response","145","2814321","0.0-6.0-6.7","COGS219_2019_37","<p><img class= 'stimulus' src='images/baseline/lake3.jpg'></img></p>","null","","1551126901351","6","","","","","",""
"null","","html-keyboard-response","146","2814471","0.0-6.0-7.7","COGS219_2019_37","<p><img class= 'stimulus' src='images/baseline/landscape36.jpg'></img></p>","null","","1551126901500","","","","","","",""
"null","","html-keyboard-response","147","2814622","0.0-6.0-8.7","COGS219_2019_37","<p><img class= 'stimulus' src='images/baseline/Skyscraper 1.jpg'></img></p>","null","","1551126901649","8","","","","","",""
"null","","html-keyboard-response","148","2814772","0.0-6.0-9.7","COGS219_2019_37","<p><img class= 'stimulus' src='images/baseline/03041v.jpg'></img></p>","null","","1551126901799","","","","","","",""
"null","","html-keyboard-response","149","2814922","0.0-6.0-10.7","COGS219_2019_37","<p><img class= 'stimulus' src='images/baseline/field 4.jpg'></img></p>","null","","1551126901950","","","","","","",""
"null","","html-keyboard-response","150","2815071","0.0-6.0-11.7","COGS219_2019_37","<p><img class= 'stimulus' src='images/baseline/landscape19.jpg'></img></p>","null","","1551126902101","","","","","","",""
"null","","html-keyboard-response","151","2815223","0.0-6.0-12.7","COGS219_2019_37","<p><img class= 'stimulus' src='images/target/italy-building-1206128_1280.jpg'></img></p>","null","","1551126902251","12","","","","","",""
"null","","html-keyboard-response","152","2815371","0.0-6.0-13.7","COGS219_2019_37","<p><img class= 'stimulus' src='images/baseline/Dock 1.jpg'></img></p>","null","","1551126902401","","","","","","",""
"null","","html-keyboard-response","153","2815521","0.0-6.0-14.7","COGS219_2019_37","<p><img class= 'stimulus' src='images/baseline/04229v.jpg'></img></p>","null","","1551126902550","14","","","","","",""
"null","","html-keyboard-response","154","2815671","0.0-6.0-15.7","COGS219_2019_37","<p><img class= 'stimulus' src='images/baseline/landscape34.jpg'></img></p>","null","","1551126902700","","","","","","",""
"null","","html-keyboard-response","155","2815822","0.0-6.0-16.7","COGS219_2019_37","<p><img class= 'stimulus' src='images/baseline/landscape14.jpg'></img></p>","null","","1551126902850","","","","","","",""
"null","","html-keyboard-response","156","2815989","0.0-6.0-17.7","COGS219_2019_37","<p><img class= 'stimulus' src='images/baseline/02982v.jpg'></img></p>","null","","1551126903001","","","","","","",""
"1228.000000002794","","html-button-response","157","2818230","0.0-6.0-18.7","COGS219_2019_37","<div class = ""response_question"">WAS THE IMAGE ROTATED...</div>","","3","","","4","8","bas","right","practice","true"
"1518.4000000008382","","html-button-response","158","2819749","0.0-6.0-0.8","COGS219_2019_37","","","0","","","","","","","",""
"null","","html-keyboard-response","159","2819821","0.0-6.0-1.8","COGS219_2019_37","<p><img class= 'stimulus' src='images/baseline/Path 1.jpg'></img></p>","null","","1551126906900","","","","","","",""
"null","","html-keyboard-response","160","2819922","0.0-6.0-2.8","COGS219_2019_37","<p><img class= 'stimulus' src='images/baseline/03201v.jpg'></img></p>","null","","1551126907001","","","","","","",""
"null","","html-keyboard-response","161","2820022","0.0-6.0-3.8","COGS219_2019_37","<p><img class= 'stimulus' src='images/baseline/Lake 16.jpg'></img></p>","null","","1551126907100","","","","","","",""
"null","","html-keyboard-response","162","2820122","0.0-6.0-4.8","COGS219_2019_37","<p><img class= 'stimulus' src='images/baseline/building12.jpg'></img></p>","null","","1551126907201","4","","","","","",""
"null","","html-keyboard-response","163","2820222","0.0-6.0-5.8","COGS219_2019_37","<p><img class= 'stimulus' src='images/baseline/05240v.jpg'></img></p>","null","","1551126907300","","","","","","",""
"null","","html-keyboard-response","164","2820322","0.0-6.0-6.8","COGS219_2019_37","<p><img class= 'stimulus' src='images/baseline/__08_-_ITALY_-_Forli_under_snow_-_winter_landscape_of_city_(christmas).jpg'></img></p>","null","","1551126907401","6","","","","","",""
"null","","html-keyboard-response","165","2820421","0.0-6.0-7.8","COGS219_2019_37","<p><img class= 'stimulus' src='images/baseline/landscape12.jpg'></img></p>","null","","1551126907501","","","","","","",""
"null","","html-keyboard-response","166","2820522","0.0-6.0-8.8","COGS219_2019_37","<p><img class= 'stimulus left-rotate' src='images/target/pexels-photo-1123982.jpeg'></img></p>","null","","1551126907601","8","","","","","",""
"null","","html-keyboard-response","167","2820621","0.0-6.0-9.8","COGS219_2019_37","<p><img class= 'stimulus' src='images/baseline/Freudenberg_sg_Switzerland.jpg'></img></p>","null","","1551126907700","","","","","","",""
"null","","html-keyboard-response","168","2820721","0.0-6.0-10.8","COGS219_2019_37","<p><img class= 'stimulus' src='images/baseline/Lake 5.jpg'></img></p>","null","","1551126907800","","","","","","",""
"null","","html-keyboard-response","169","2820822","0.0-6.0-11.8","COGS219_2019_37","<p><img class= 'stimulus' src='images/baseline/hiking-trail.jpg'></img></p>","null","","1551126907899","","","","","","",""
"null","","html-keyboard-response","170","2820921","0.0-6.0-12.8","COGS219_2019_37","<p><img class= 'stimulus' src='images/baseline/landscape6.jpg'></img></p>","null","","1551126908001","12","","","","","",""
"null","","html-keyboard-response","171","2821022","0.0-6.0-13.8","COGS219_2019_37","<p><img class= 'stimulus' src='images/baseline/farmhouse1.jpg'></img></p>","null","","1551126908100","","","","","","",""
"null","","html-keyboard-response","172","2821122","0.0-6.0-14.8","COGS219_2019_37","<p><img class= 'stimulus' src='images/baseline/pexels-photo-59321.jpeg'></img></p>","null","","1551126908201","14","","","","","",""
"null","","html-keyboard-response","173","2821222","0.0-6.0-15.8","COGS219_2019_37","<p><img class= 'stimulus' src='images/baseline/03112v.jpg'></img></p>","null","","1551126908300","","","","","","",""
"null","","html-keyboard-response","174","2821322","0.0-6.0-16.8","COGS219_2019_37","<p><img class= 'stimulus' src='images/baseline/04086v.jpg'></img></p>","null","","1551126908400","","","","","","",""
"null","","html-keyboard-response","175","2821438","0.0-6.0-17.8","COGS219_2019_37","<p><img class= 'stimulus' src='images/baseline/04031v.jpg'></img></p>","null","","1551126908502","","","","","","",""
"1055.399999997113","","html-button-response","176","2823502","0.0-6.0-18.8","COGS219_2019_37","<div class = ""response_question"">WAS THE IMAGE ROTATED...</div>","","0","","","6","2","bas","left","practice","true"
"1702.4999999995343","","html-button-response","177","2825206","0.0-6.0-0.9","COGS219_2019_37","","","0","","","","","","","",""
"null","","html-keyboard-response","178","2825289","0.0-6.0-1.9","COGS219_2019_37","<p><img class= 'stimulus' src='images/baseline/landscape22.jpg'></img></p>","null","","1551126912367","","","","","","",""
"null","","html-keyboard-response","179","2825389","0.0-6.0-2.9","COGS219_2019_37","<p><img class= 'stimulus' src='images/baseline/04098v.jpg'></img></p>","null","","1551126912467","","","","","","",""
"null","","html-keyboard-response","180","2825489","0.0-6.0-3.9","COGS219_2019_37","<p><img class= 'stimulus' src='images/baseline/sunny-landscape-with-dry-brush-and-mountain-background.jpg'></img></p>","null","","1551126912567","","","","","","",""
"null","","html-keyboard-response","181","2825588","0.0-6.0-4.9","COGS219_2019_37","<p><img class= 'stimulus' src='images/baseline/Lake 4.jpg'></img></p>","null","","1551126912667","4","","","","","",""
"null","","html-keyboard-response","182","2825689","0.0-6.0-5.9","COGS219_2019_37","<p><img class= 'stimulus' src='images/baseline/landscape7.jpg'></img></p>","null","","1551126912768","","","","","","",""
"null","","html-keyboard-response","183","2825788","0.0-6.0-6.9","COGS219_2019_37","<p><img class= 'stimulus' src='images/target/sand-3339890_640.jpg'></img></p>","null","","1551126912867","6","","","","","",""
"null","","html-keyboard-response","184","2825888","0.0-6.0-7.9","COGS219_2019_37","<p><img class= 'stimulus' src='images/baseline/lake 1.jpg'></img></p>","null","","1551126912967","","","","","","",""
"null","","html-keyboard-response","185","2825988","0.0-6.0-8.9","COGS219_2019_37","<p><img class= 'stimulus' src='images/baseline/04040v.jpg'></img></p>","null","","1551126913066","8","","","","","",""
"null","","html-keyboard-response","186","2826088","0.0-6.0-9.9","COGS219_2019_37","<p><img class= 'stimulus' src='images/baseline/cranes 1.jpg'></img></p>","null","","1551126913167","","","","","","",""
"null","","html-keyboard-response","187","2826188","0.0-6.0-10.9","COGS219_2019_37","<p><img class= 'stimulus' src='images/baseline/scenic-mountain-landscape.jpg'></img></p>","null","","1551126913267","","","","","","",""
"null","","html-keyboard-response","188","2826289","0.0-6.0-11.9","COGS219_2019_37","<p><img class= 'stimulus' src='images/baseline/horse_statue.jpg'></img></p>","null","","1551126913367","","","","","","",""
"null","","html-keyboard-response","189","2826388","0.0-6.0-12.9","COGS219_2019_37","<p><img class= 'stimulus' src='images/baseline/Happy pose 3.jpg'></img></p>","null","","1551126913467","12","","","","","",""
"null","","html-keyboard-response","190","2826489","0.0-6.0-13.9","COGS219_2019_37","<p><img class= 'stimulus' src='images/baseline/farmhouse4.jpg'></img></p>","null","","1551126913567","","","","","","",""
"null","","html-keyboard-response","191","2826589","0.0-6.0-14.9","COGS219_2019_37","<p><img class= 'stimulus' src='images/baseline/Sunset 3.jpg'></img></p>","null","","1551126913666","14","","","","","",""
"null","","html-keyboard-response","192","2826688","0.0-6.0-15.9","COGS219_2019_37","<p><img class= 'stimulus' src='images/baseline/valley 1.jpg'></img></p>","null","","1551126913767","","","","","","",""
"null","","html-keyboard-response","193","2826789","0.0-6.0-16.9","COGS219_2019_37","<p><img class= 'stimulus' src='images/baseline/farmhouse11.jpg'></img></p>","null","","1551126913868","","","","","","",""
"null","","html-keyboard-response","194","2826905","0.0-6.0-17.9","COGS219_2019_37","<p><img class= 'stimulus' src='images/baseline/landscape37.jpg'></img></p>","null","","1551126913967","","","","","","",""
"847.8999999933876","","html-button-response","195","2828766","0.0-6.0-18.9","COGS219_2019_37","<div class = ""response_question"">WAS THE IMAGE ROTATED...</div>","","4","","","4","2","bas","right","practice","true"
"2214.299999992363","","html-button-response","196","2830981","0.0-6.0-0.10","COGS219_2019_37","","","0","","","","","","","",""
"null","","html-keyboard-response","197","2831055","0.0-6.0-1.10","COGS219_2019_37","<p><img class= 'stimulus' src='images/baseline/Niinsaare_jarv.jpg'></img></p>","null","","1551126918134","","","","","","",""
"null","","html-keyboard-response","198","2831156","0.0-6.0-2.10","COGS219_2019_37","<p><img class= 'stimulus' src='images/baseline/snowy tree.jpg'></img></p>","null","","1551126918233","","","","","","",""
"null","","html-keyboard-response","199","2831255","0.0-6.0-3.10","COGS219_2019_37","<p><img class= 'stimulus' src='images/baseline/building2.jpg'></img></p>","null","","1551126918334","","","","","","",""
"null","","html-keyboard-response","200","2831355","0.0-6.0-4.10","COGS219_2019_37","<p><img class= 'stimulus' src='images/baseline/Street 5.jpg'></img></p>","null","","1551126918434","4","","","","","",""
"null","","html-keyboard-response","201","2831455","0.0-6.0-5.10","COGS219_2019_37","<p><img class= 'stimulus' src='images/baseline/03148v.jpg'></img></p>","null","","1551126918534","","","","","","",""
"null","","html-keyboard-response","202","2831555","0.0-6.0-6.10","COGS219_2019_37","<p><img class= 'stimulus' src='images/baseline/red-rocks-park.jpg'></img></p>","null","","1551126918633","6","","","","","",""
"null","","html-keyboard-response","203","2831655","0.0-6.0-7.10","COGS219_2019_37","<p><img class= 'stimulus' src='images/baseline/Camping 10.jpg'></img></p>","null","","1551126918734","","","","","","",""
"null","","html-keyboard-response","204","2831755","0.0-6.0-8.10","COGS219_2019_37","<p><img class= 'stimulus' src='images/baseline/05139v.jpg'></img></p>","null","","1551126918834","8","","","","","",""
"null","","html-keyboard-response","205","2831856","0.0-6.0-9.10","COGS219_2019_37","<p><img class= 'stimulus' src='images/baseline/Kocherbaumwald-01.jpg'></img></p>","null","","1551126918933","","","","","","",""
"null","","html-keyboard-response","206","2831955","0.0-6.0-10.10","COGS219_2019_37","<p><img class= 'stimulus' src='images/baseline/pexels-photo-459203.jpeg'></img></p>","null","","1551126919034","","","","","","",""
"null","","html-keyboard-response","207","2832055","0.0-6.0-11.10","COGS219_2019_37","<p><img class= 'stimulus' src='images/baseline/03162v.jpg'></img></p>","null","","1551126919133","","","","","","",""
"null","","html-keyboard-response","208","2832155","0.0-6.0-12.10","COGS219_2019_37","<p><img class= 'stimulus' src='images/target/pexels-photo-210683.jpeg'></img></p>","null","","1551126919235","12","","","","","",""
"null","","html-keyboard-response","209","2832256","0.0-6.0-13.10","COGS219_2019_37","<p><img class= 'stimulus' src='images/baseline/architecture_modern_architecture_852928.jpg'></img></p>","null","","1551126919333","","","","","","",""
"null","","html-keyboard-response","210","2832355","0.0-6.0-14.10","COGS219_2019_37","<p><img class= 'stimulus' src='images/baseline/Lake 3.jpg'></img></p>","null","","1551126919435","14","","","","","",""
"null","","html-keyboard-response","211","2832455","0.0-6.0-15.10","COGS219_2019_37","<p><img class= 'stimulus' src='images/baseline/02977v.jpg'></img></p>","null","","1551126919534","","","","","","",""
"null","","html-keyboard-response","212","2832555","0.0-6.0-16.10","COGS219_2019_37","<p><img class= 'stimulus' src='images/baseline/landscape4.jpg'></img></p>","null","","1551126919633","","","","","","",""
"null","","html-keyboard-response","213","2832674","0.0-6.0-17.10","COGS219_2019_37","<p><img class= 'stimulus' src='images/baseline/house10.jpg'></img></p>","null","","1551126919733","","","","","","",""
"1161.4999999874271","","html-button-response","214","2834838","0.0-6.0-18.10","COGS219_2019_37","<div class = ""response_question"">WAS THE IMAGE ROTATED...</div>","","4","","","4","8","bas","right","practice","true"
"958.2000000081025","","html-button-response","215","2835798","0.0-6.0-0.11","COGS219_2019_37","","","0","","","","","","","",""
"null","","html-keyboard-response","216","2835872","0.0-6.0-1.11","COGS219_2019_37","<p><img class= 'stimulus' src='images/baseline/pexels-photo-534164.jpeg'></img></p>","null","","1551126922950","","","","","","",""
"null","","html-keyboard-response","217","2835972","0.0-6.0-2.11","COGS219_2019_37","<p><img class= 'stimulus' src='images/baseline/architecture-1314416_1920.jpg'></img></p>","null","","1551126923050","","","","","","",""
"null","","html-keyboard-response","218","2836072","0.0-6.0-3.11","COGS219_2019_37","<p><img class= 'stimulus' src='images/baseline/building9.jpg'></img></p>","null","","1551126923151","","","","","","",""
"null","","html-keyboard-response","219","2836172","0.0-6.0-4.11","COGS219_2019_37","<p><img class= 'stimulus' src='images/baseline/farmhouse2.jpg'></img></p>","null","","1551126923251","4","","","","","",""
"null","","html-keyboard-response","220","2836272","0.0-6.0-5.11","COGS219_2019_37","<p><img class= 'stimulus' src='images/baseline/pexels-photo-1261728.jpeg'></img></p>","null","","1551126923351","","","","","","",""
"null","","html-keyboard-response","221","2836372","0.0-6.0-6.11","COGS219_2019_37","<p><img class= 'stimulus left-rotate' src='images/target/building1.jpg'></img></p>","null","","1551126923451","6","","","","","",""
"null","","html-keyboard-response","222","2836473","0.0-6.0-7.11","COGS219_2019_37","<p><img class= 'stimulus' src='images/baseline/bird-flying-at-sunset.jpg'></img></p>","null","","1551126923552","","","","","","",""
"null","","html-keyboard-response","223","2836573","0.0-6.0-8.11","COGS219_2019_37","<p><img class= 'stimulus' src='images/baseline/05252v.jpg'></img></p>","null","","1551126923650","8","","","","","",""
"null","","html-keyboard-response","224","2836672","0.0-6.0-9.11","COGS219_2019_37","<p><img class= 'stimulus' src='images/baseline/autumn-in-red-rocks-park.jpg'></img></p>","null","","1551126923751","","","","","","",""
"null","","html-keyboard-response","225","2836773","0.0-6.0-10.11","COGS219_2019_37","<p><img class= 'stimulus' src='images/baseline/Lake 15.jpg'></img></p>","null","","1551126923850","","","","","","",""
"null","","html-keyboard-response","226","2836872","0.0-6.0-11.11","COGS219_2019_37","<p><img class= 'stimulus' src='images/baseline/farmhouse3.jpg'></img></p>","null","","1551126923952","","","","","","",""
"null","","html-keyboard-response","227","2836971","0.0-6.0-12.11","COGS219_2019_37","<p><img class= 'stimulus' src='images/baseline/Aletschgletscher-Eggishorn.jpg'></img></p>","null","","1551126924052","12","","","","","",""
"null","","html-keyboard-response","228","2837072","0.0-6.0-13.11","COGS219_2019_37","<p><img class= 'stimulus' src='images/baseline/03098v.jpg'></img></p>","null","","1551126924150","","","","","","",""
"null","","html-keyboard-response","229","2837172","0.0-6.0-14.11","COGS219_2019_37","<p><img class= 'stimulus' src='images/baseline/house7.jpg'></img></p>","null","","1551126924250","14","","","","","",""
"null","","html-keyboard-response","230","2837272","0.0-6.0-15.11","COGS219_2019_37","<p><img class= 'stimulus' src='images/baseline/05145v.jpg'></img></p>","null","","1551126924350","","","","","","",""
"null","","html-keyboard-response","231","2837373","0.0-6.0-16.11","COGS219_2019_37","<p><img class= 'stimulus' src='images/baseline/meadow-with-mountain-in-background.jpg'></img></p>","null","","1551126924451","","","","","","",""
"null","","html-keyboard-response","232","2837488","0.0-6.0-17.11","COGS219_2019_37","<p><img class= 'stimulus' src='images/baseline/city-silhouette-at-sunset-871291580819Esw.jpg'></img></p>","null","","1551126924550","","","","","","",""
"1194.7000000071712","","html-button-response","233","2839686","0.0-6.0-18.11","COGS219_2019_37","<div class = ""response_question"">WAS THE IMAGE ROTATED...</div>","","0","","","4","2","bas","left","practice","true"
"1454.4000000022352","","html-button-response","234","2841141","0.0-6.0-0.12","COGS219_2019_37","","","0","","","","","","","",""
"null","","html-keyboard-response","235","2841221","0.0-6.0-1.12","COGS219_2019_37","<p><img class= 'stimulus' src='images/baseline/field 1.jpg'></img></p>","null","","1551126928301","","","","","","",""
"null","","html-keyboard-response","236","2841322","0.0-6.0-2.12","COGS219_2019_37","<p><img class= 'stimulus' src='images/baseline/03075v.jpg'></img></p>","null","","1551126928400","","","","","","",""
"null","","html-keyboard-response","237","2841422","0.0-6.0-3.12","COGS219_2019_37","<p><img class= 'stimulus' src='images/baseline/pexels-photo-568236.jpeg'></img></p>","null","","1551126928500","","","","","","",""
"null","","html-keyboard-response","238","2841522","0.0-6.0-4.12","COGS219_2019_37","<p><img class= 'stimulus' src='images/baseline/04063v.jpg'></img></p>","null","","1551126928601","4","","","","","",""
"null","","html-keyboard-response","239","2841622","0.0-6.0-5.12","COGS219_2019_37","<p><img class= 'stimulus' src='images/baseline/lone-old-cottonwood-tree.jpg'></img></p>","null","","1551126928700","","","","","","",""
"null","","html-keyboard-response","240","2841722","0.0-6.0-6.12","COGS219_2019_37","<p><img class= 'stimulus' src='images/baseline/04201v.jpg'></img></p>","null","","1551126928800","6","","","","","",""
"null","","html-keyboard-response","241","2841823","0.0-6.0-7.12","COGS219_2019_37","<p><img class= 'stimulus' src='images/baseline/building16.jpg'></img></p>","null","","1551126928900","","","","","","",""
"null","","html-keyboard-response","242","2841923","0.0-6.0-8.12","COGS219_2019_37","<p><img class= 'stimulus' src='images/target/Wild-West-South-West-Usa-Landscape-America-1663497.jpg'></img></p>","null","","1551126929000","8","","","","","",""
"null","","html-keyboard-response","243","2842022","0.0-6.0-9.12","COGS219_2019_37","<p><img class= 'stimulus' src='images/baseline/04162v.jpg'></img></p>","null","","1551126929102","","","","","","",""
"null","","html-keyboard-response","244","2842122","0.0-6.0-10.12","COGS219_2019_37","<p><img class= 'stimulus' src='images/baseline/pexels-photo-440731.jpeg'></img></p>","null","","1551126929200","","","","","","",""
"null","","html-keyboard-response","245","2842223","0.0-6.0-11.12","COGS219_2019_37","<p><img class= 'stimulus' src='images/baseline/house11.jpg'></img></p>","null","","1551126929301","","","","","","",""
"null","","html-keyboard-response","246","2842322","0.0-6.0-12.12","COGS219_2019_37","<p><img class= 'stimulus' src='images/baseline/Sky 1.jpg'></img></p>","null","","1551126929401","12","","","","","",""
"null","","html-keyboard-response","247","2842422","0.0-6.0-13.12","COGS219_2019_37","<p><img class= 'stimulus' src='images/baseline/02988v.jpg'></img></p>","null","","1551126929500","","","","","","",""
"null","","html-keyboard-response","248","2842522","0.0-6.0-14.12","COGS219_2019_37","<p><img class= 'stimulus' src='images/baseline/Waterfall 1.jpg'></img></p>","null","","1551126929600","14","","","","","",""
"null","","html-keyboard-response","249","2842622","0.0-6.0-15.12","COGS219_2019_37","<p><img class= 'stimulus' src='images/baseline/house6.jpg'></img></p>","null","","1551126929700","","","","","","",""
"null","","html-keyboard-response","250","2842722","0.0-6.0-16.12","COGS219_2019_37","<p><img class= 'stimulus' src='images/baseline/04193v.jpg'></img></p>","null","","1551126929800","","","","","","",""
"null","","html-keyboard-response","251","2842838","0.0-6.0-17.12","COGS219_2019_37","<p><img class= 'stimulus' src='images/baseline/agriculture-bright-clouds-440731.jpg'></img></p>","null","","1551126929901","","","","","","",""
"1262.4000000068918","","html-button-response","252","2845110","0.0-6.0-18.12","COGS219_2019_37","<div class = ""response_question"">WAS THE IMAGE ROTATED...</div>","","4","","","6","2","bas","right","practice","true"
"1158.4000000003725","","html-button-response","253","2846270","0.0-6.0-0.13","COGS219_2019_37","","","0","","","","","","","",""
"null","","html-keyboard-response","254","2846357","0.0-6.0-1.13","COGS219_2019_37","<p><img class= 'stimulus' src='images/baseline/kokkari-1523011968Xfr.jpg'></img></p>","null","","1551126933434","","","","","","",""
"null","","html-keyboard-response","255","2846455","0.0-6.0-2.13","COGS219_2019_37","<p><img class= 'stimulus' src='images/baseline/pexels-photo-221125.jpeg'></img></p>","null","","1551126933533","","","","","","",""
"null","","html-keyboard-response","256","2846556","0.0-6.0-3.13","COGS219_2019_37","<p><img class= 'stimulus' src='images/baseline/vintage-art-deco-storefront.jpg'></img></p>","null","","1551126933634","","","","","","",""
"null","","html-keyboard-response","257","2846656","0.0-6.0-4.13","COGS219_2019_37","<p><img class= 'stimulus' src='images/baseline/04010v.jpg'></img></p>","null","","1551126933734","4","","","","","",""
"null","","html-keyboard-response","258","2846756","0.0-6.0-5.13","COGS219_2019_37","<p><img class= 'stimulus' src='images/baseline/05264v.jpg'></img></p>","null","","1551126933834","","","","","","",""
"null","","html-keyboard-response","259","2846855","0.0-6.0-6.13","COGS219_2019_37","<p><img class= 'stimulus' src='images/baseline/Nature 1.jpg'></img></p>","null","","1551126933933","6","","","","","",""
"null","","html-keyboard-response","260","2846955","0.0-6.0-7.13","COGS219_2019_37","<p><img class= 'stimulus' src='images/baseline/02960v.jpg'></img></p>","null","","1551126934034","","","","","","",""
"null","","html-keyboard-response","261","2847056","0.0-6.0-8.13","COGS219_2019_37","<p><img class= 'stimulus' src='images/baseline/02971v.jpg'></img></p>","null","","1551126934134","8","","","","","",""
"null","","html-keyboard-response","262","2847155","0.0-6.0-9.13","COGS219_2019_37","<p><img class= 'stimulus' src='images/baseline/Desert_View_Indian_Wells.jpg'></img></p>","null","","1551126934233","","","","","","",""
"null","","html-keyboard-response","263","2847256","0.0-6.0-10.13","COGS219_2019_37","<p><img class= 'stimulus' src='images/baseline/04062v.jpg'></img></p>","null","","1551126934335","","","","","","",""
"null","","html-keyboard-response","264","2847356","0.0-6.0-11.13","COGS219_2019_37","<p><img class= 'stimulus' src='images/baseline/house3.jpg'></img></p>","null","","1551126934434","","","","","","",""
"null","","html-keyboard-response","265","2847456","0.0-6.0-12.13","COGS219_2019_37","<p><img class= 'stimulus' src='images/baseline/flooded-bridge.jpg'></img></p>","null","","1551126934533","12","","","","","",""
"null","","html-keyboard-response","266","2847556","0.0-6.0-13.13","COGS219_2019_37","<p><img class= 'stimulus' src='images/baseline/hills 4.jpg'></img></p>","null","","1551126934634","","","","","","",""
"null","","html-keyboard-response","267","2847656","0.0-6.0-14.13","COGS219_2019_37","<p><img class= 'stimulus left-rotate' src='images/target/skyscraper-3855012_640.jpg'></img></p>","null","","1551126934734","14","","","","","",""
"null","","html-keyboard-response","268","2847757","0.0-6.0-15.13","COGS219_2019_37","<p><img class= 'stimulus' src='images/baseline/Street 2.jpg'></img></p>","null","","1551126934835","","","","","","",""
"null","","html-keyboard-response","269","2847856","0.0-6.0-16.13","COGS219_2019_37","<p><img class= 'stimulus' src='images/baseline/99_-_Machu_Picchu_-_Juin_2009.edit3.jpg'></img></p>","null","","1551126934934","","","","","","",""
"null","","html-keyboard-response","270","2847972","0.0-6.0-17.13","COGS219_2019_37","<p><img class= 'stimulus' src='images/baseline/pexels-photo-427676.jpeg'></img></p>","null","","1551126935034","","","","","","",""
"1062.2000000001863","","html-button-response","271","2850045","0.0-6.0-18.13","COGS219_2019_37","<div class = ""response_question"">WAS THE IMAGE ROTATED...</div>","","1","","","6","8","bas","left","practice","true"
"1382.500000006985","","html-button-response","272","2851429","0.0-6.0-0.14","COGS219_2019_37","","","0","","","","","","","",""
"null","","html-keyboard-response","273","2851505","0.0-6.0-1.14","COGS219_2019_37","<p><img class= 'stimulus' src='images/baseline/04130v.jpg'></img></p>","null","","1551126938584","","","","","","",""
"null","","html-keyboard-response","274","2851606","0.0-6.0-2.14","COGS219_2019_37","<p><img class= 'stimulus' src='images/baseline/05292v.jpg'></img></p>","null","","1551126938685","","","","","","",""
"null","","html-keyboard-response","275","2851705","0.0-6.0-3.14","COGS219_2019_37","<p><img class= 'stimulus' src='images/baseline/pexels-photo-1837621.jpeg'></img></p>","null","","1551126938784","","","","","","",""
"null","","html-keyboard-response","276","2851806","0.0-6.0-4.14","COGS219_2019_37","<p><img class= 'stimulus' src='images/baseline/Lake 9.jpg'></img></p>","null","","1551126938884","4","","","","","",""
"null","","html-keyboard-response","277","2851905","0.0-6.0-5.14","COGS219_2019_37","<p><img class= 'stimulus' src='images/baseline/landscape16.jpg'></img></p>","null","","1551126938984","","","","","","",""
"null","","html-keyboard-response","278","2852005","0.0-6.0-6.14","COGS219_2019_37","<p><img class= 'stimulus' src='images/baseline/hills 1.jpg'></img></p>","null","","1551126939084","6","","","","","",""
"null","","html-keyboard-response","279","2852105","0.0-6.0-7.14","COGS219_2019_37","<p><img class= 'stimulus' src='images/baseline/Bahia_Onelli_Parque_Nacional_Los_Glaciares_Patagonia_Argentina_Luca_Galuzzi_2005.jpg'></img></p>","null","","1551126939185","","","","","","",""
"null","","html-keyboard-response","280","2852206","0.0-6.0-8.14","COGS219_2019_37","<p><img class= 'stimulus' src='images/baseline/03212v.jpg'></img></p>","null","","1551126939284","8","","","","","",""
"null","","html-keyboard-response","281","2852306","0.0-6.0-9.14","COGS219_2019_37","<p><img class= 'stimulus' src='images/baseline/Lake 14.jpg'></img></p>","null","","1551126939384","","","","","","",""
"null","","html-keyboard-response","282","2852406","0.0-6.0-10.14","COGS219_2019_37","<p><img class= 'stimulus' src='images/baseline/Road 1.jpg'></img></p>","null","","1551126939485","","","","","","",""
"null","","html-keyboard-response","283","2852506","0.0-6.0-11.14","COGS219_2019_37","<p><img class= 'stimulus' src='images/baseline/building4.jpg'></img></p>","null","","1551126939584","","","","","","",""
"null","","html-keyboard-response","284","2852606","0.0-6.0-12.14","COGS219_2019_37","<p><img class= 'stimulus' src='images/baseline/lookout_tower.jpg'></img></p>","null","","1551126939685","12","","","","","",""
"null","","html-keyboard-response","285","2852706","0.0-6.0-13.14","COGS219_2019_37","<p><img class= 'stimulus' src='images/baseline/house2.jpg'></img></p>","null","","1551126939785","","","","","","",""
"null","","html-keyboard-response","286","2852805","0.0-6.0-14.14","COGS219_2019_37","<p><img class= 'stimulus' src='images/target/lookout_tower.jpg'></img></p>","null","","1551126939884","14","","","","","",""
"null","","html-keyboard-response","287","2852906","0.0-6.0-15.14","COGS219_2019_37","<p><img class= 'stimulus' src='images/baseline/building_at_national_conservation.jpg'></img></p>","null","","1551126939984","","","","","","",""
"null","","html-keyboard-response","288","2853006","0.0-6.0-16.14","COGS219_2019_37","<p><img class= 'stimulus' src='images/baseline/farmhouse7.jpg'></img></p>","null","","1551126940084","","","","","","",""
"null","","html-keyboard-response","289","2853123","0.0-6.0-17.14","COGS219_2019_37","<p><img class= 'stimulus' src='images/baseline/landscape23.jpg'></img></p>","null","","1551126940185","","","","","","",""
"1414.0000000046566","","html-button-response","290","2855542","0.0-6.0-18.14","COGS219_2019_37","<div class = ""response_question"">WAS THE IMAGE ROTATED...</div>","","2","","","6","8","bas","right","practice","false"
"1566.0000000060536","","html-button-response","291","2857109","0.0-6.0-0.15","COGS219_2019_37","","","0","","","","","","","",""
"null","","html-keyboard-response","292","2857189","0.0-6.0-1.15","COGS219_2019_37","<p><img class= 'stimulus' src='images/baseline/seoul-410266_1920.jpg'></img></p>","null","","1551126944266","","","","","","",""
"null","","html-keyboard-response","293","2857290","0.0-6.0-2.15","COGS219_2019_37","<p><img class= 'stimulus' src='images/baseline/04300v.jpg'></img></p>","null","","1551126944368","","","","","","",""
"null","","html-keyboard-response","294","2857389","0.0-6.0-3.15","COGS219_2019_37","<p><img class= 'stimulus' src='images/baseline/pexels-photo-351264.jpeg'></img></p>","null","","1551126944467","","","","","","",""
"null","","html-keyboard-response","295","2857489","0.0-6.0-4.15","COGS219_2019_37","<p><img class= 'stimulus' src='images/baseline/Lake 8.jpg'></img></p>","null","","1551126944569","4","","","","","",""
"null","","html-keyboard-response","296","2857589","0.0-6.0-5.15","COGS219_2019_37","<p><img class= 'stimulus' src='images/baseline/red rocks from afar.jpg'></img></p>","null","","1551126944668","","","","","","",""
"null","","html-keyboard-response","297","2857690","0.0-6.0-6.15","COGS219_2019_37","<p><img class= 'stimulus' src='images/baseline/landscape8.jpg'></img></p>","null","","1551126944767","6","","","","","",""
"null","","html-keyboard-response","298","2857788","0.0-6.0-7.15","COGS219_2019_37","<p><img class= 'stimulus' src='images/baseline/building8.jpg'></img></p>","null","","1551126944868","","","","","","",""
"null","","html-keyboard-response","299","2857888","0.0-6.0-8.15","COGS219_2019_37","<p><img class= 'stimulus' src='images/baseline/landscape2.jpg'></img></p>","null","","1551126944967","8","","","","","",""
"null","","html-keyboard-response","300","2857988","0.0-6.0-9.15","COGS219_2019_37","<p><img class= 'stimulus' src='images/baseline/Street 1.jpg'></img></p>","null","","1551126945068","","","","","","",""
"null","","html-keyboard-response","301","2858089","0.0-6.0-10.15","COGS219_2019_37","<p><img class= 'stimulus' src='images/baseline/Linden,_paysage.jpg'></img></p>","null","","1551126945168","","","","","","",""
"null","","html-keyboard-response","302","2858188","0.0-6.0-11.15","COGS219_2019_37","<p><img class= 'stimulus' src='images/baseline/Beach 2.jpg'></img></p>","null","","1551126945266","","","","","","",""
"null","","html-keyboard-response","303","2858289","0.0-6.0-12.15","COGS219_2019_37","<p><img class= 'stimulus left-rotate' src='images/target/church-2306128_640.jpg'></img></p>","null","","1551126945367","12","","","","","",""
"null","","html-keyboard-response","304","2858389","0.0-6.0-13.15","COGS219_2019_37","<p><img class= 'stimulus' src='images/baseline/pexels-photo-541101.jpeg'></img></p>","null","","1551126945467","","","","","","",""
"null","","html-keyboard-response","305","2858489","0.0-6.0-14.15","COGS219_2019_37","<p><img class= 'stimulus' src='images/baseline/03112v.jpg'></img></p>","null","","1551126945567","14","","","","","",""
"null","","html-keyboard-response","306","2858589","0.0-6.0-15.15","COGS219_2019_37","<p><img class= 'stimulus' src='images/baseline/03212v.jpg'></img></p>","null","","1551126945667","","","","","","",""
"null","","html-keyboard-response","307","2858689","0.0-6.0-16.15","COGS219_2019_37","<p><img class= 'stimulus' src='images/baseline/Dock 1.jpg'></img></p>","null","","1551126945767","","","","","","",""
"null","","html-keyboard-response","308","2858806","0.0-6.0-17.15","COGS219_2019_37","<p><img class= 'stimulus' src='images/baseline/03114v.jpg'></img></p>","null","","1551126945867","","","","","","",""
"1100.200000000652","","html-button-response","309","2860909","0.0-6.0-18.15","COGS219_2019_37","<div class = ""response_question"">WAS THE IMAGE ROTATED...</div>","","1","","","4","8","bas","left","practice","true"
"59974.60000000149","","html-button-response","310","2920900","0.0-7.0","COGS219_2019_37","<p>You have now completed the practice phase. We will now begin the real trials.         This is a reminder that you will be searching for a rotated image among the series of upright images.</p>         <p>Remember, please do not blink or move your eyes while the images are on the screen.</p>         <p>At the end of the experiment, the experimenter will be able to show you how accurate you were.</p>","","0","","","","","","","",""
"1774.7000000090338","","html-button-response","311","2922675","0.0-8.0-0.0-0.0","COGS219_2019_37","","","0","","","","","","","",""
"null","","html-keyboard-response","312","2922771","0.0-8.0-0.0-1.0","COGS219_2019_37","<p><img class= 'stimulus' src='images/baseline/05203v.jpg'></img></p>","null","","1551127009848","","","","","","",""
"null","","html-keyboard-response","313","2922872","0.0-8.0-0.0-2.0","COGS219_2019_37","<p><img class= 'stimulus' src='images/baseline/pexels-photo-59321.jpeg'></img></p>","null","","1551127009949","","","","","","",""
"null","","html-keyboard-response","314","2922971","0.0-8.0-0.0-3.0","COGS219_2019_37","<p><img class= 'stimulus' src='images/baseline/Sunset 6.jpg'></img></p>","null","","1551127010049","","","","","","",""
"null","","html-keyboard-response","315","2923071","0.0-8.0-0.0-4.0","COGS219_2019_37","<p><img class= 'stimulus' src='images/baseline/Beach 8.jpg'></img></p>","null","","1551127010149","4","","","","","",""
"null","","html-keyboard-response","316","2923170","0.0-8.0-0.0-5.0","COGS219_2019_37","<p><img class= 'stimulus' src='images/baseline/pexels-photo-414491.jpeg'></img></p>","null","","1551127010250","","","","","","",""
"null","","html-keyboard-response","317","2923271","0.0-8.0-0.0-6.0","COGS219_2019_37","<p><img class= 'stimulus' src='images/baseline/city-silhouette-at-sunset-871291580819Esw.jpg'></img></p>","null","","1551127010349","6","","","","","",""
"null","","html-keyboard-response","318","2923370","0.0-8.0-0.0-7.0","COGS219_2019_37","<p><img class= 'stimulus' src='images/baseline/building3.jpg'></img></p>","null","","1551127010448","","","","","","",""
"null","","html-keyboard-response","319","2923471","0.0-8.0-0.0-8.0","COGS219_2019_37","<p><img class= 'stimulus' src='images/baseline/Lake 15.jpg'></img></p>","null","","1551127010548","8","","","","","",""
"null","","html-keyboard-response","320","2923571","0.0-8.0-0.0-9.0","COGS219_2019_37","<p><img class= 'stimulus' src='images/baseline/04085v.jpg'></img></p>","null","","1551127010649","","","","","","",""
"null","","html-keyboard-response","321","2923671","0.0-8.0-0.0-10.0","COGS219_2019_37","<p><img class= 'stimulus' src='images/baseline/landscape8.jpg'></img></p>","null","","1551127010749","","","","","","",""
"null","","html-keyboard-response","322","2923770","0.0-8.0-0.0-11.0","COGS219_2019_37","<p><img class= 'stimulus' src='images/baseline/Aletschgletscher-Eggishorn.jpg'></img></p>","null","","1551127010849","","","","","","",""
"null","","html-keyboard-response","323","2923871","0.0-8.0-0.0-12.0","COGS219_2019_37","<p><img class= 'stimulus' src='images/target/tree-in-desert-landscape.jpg'></img></p>","null","","1551127010948","12","","","","","",""
"null","","html-keyboard-response","324","2923972","0.0-8.0-0.0-13.0","COGS219_2019_37","<p><img class= 'stimulus' src='images/baseline/road 1(1).jpg'></img></p>","null","","1551127011049","","","","","","",""
"null","","html-keyboard-response","325","2924070","0.0-8.0-0.0-14.0","COGS219_2019_37","<p><img class= 'stimulus' src='images/baseline/05139v.jpg'></img></p>","null","","1551127011149","14","","","","","",""
"null","","html-keyboard-response","326","2924171","0.0-8.0-0.0-15.0","COGS219_2019_37","<p><img class= 'stimulus' src='images/baseline/cyrillic.jpg'></img></p>","null","","1551127011249","","","","","","",""
"null","","html-keyboard-response","327","2924270","0.0-8.0-0.0-16.0","COGS219_2019_37","<p><img class= 'stimulus' src='images/baseline/house1.jpg'></img></p>","null","","1551127011349","","","","","","",""
"null","","html-keyboard-response","328","2924387","0.0-8.0-0.0-17.0","COGS219_2019_37","<p><img class= 'stimulus' src='images/baseline/building_at_national_conservation.jpg'></img></p>","null","","1551127011450","","","","","","",""
"1756.4999999883585","","html-button-response","329","2927148","0.0-8.0-0.0-18.0","COGS219_2019_37","<div class = ""response_question"">WAS THE IMAGE ROTATED...</div>","","4","","","4","8","bas","right","test","true"
"2094.2999999970198","","html-button-response","330","2929244","0.0-8.0-0.0-0.1","COGS219_2019_37","","","0","","","","","","","",""
"null","","html-keyboard-response","331","2929320","0.0-8.0-0.0-1.1","COGS219_2019_37","<p><img class= 'stimulus' src='images/baseline/04284v.jpg'></img></p>","null","","1551127016399","","","","","","",""
"null","","html-keyboard-response","332","2929421","0.0-8.0-0.0-2.1","COGS219_2019_37","<p><img class= 'stimulus' src='images/baseline/landscape34.jpg'></img></p>","null","","1551127016499","","","","","","",""
"null","","html-keyboard-response","333","2929521","0.0-8.0-0.0-3.1","COGS219_2019_37","<p><img class= 'stimulus' src='images/baseline/05280v.jpg'></img></p>","null","","1551127016599","","","","","","",""
"null","","html-keyboard-response","334","2929620","0.0-8.0-0.0-4.1","COGS219_2019_37","<p><img class= 'stimulus' src='images/baseline/pexels-photo-1287089.jpeg'></img></p>","null","","1551127016699","4","","","","","",""
"null","","html-keyboard-response","335","2929721","0.0-8.0-0.0-5.1","COGS219_2019_37","<p><img class= 'stimulus' src='images/baseline/Cold 7.jpg'></img></p>","null","","1551127016800","","","","","","",""
"null","","html-keyboard-response","336","2929820","0.0-8.0-0.0-6.1","COGS219_2019_37","<p><img class= 'stimulus' src='images/baseline/Skijump 1.jpg'></img></p>","null","","1551127016898","6","","","","","",""
"null","","html-keyboard-response","337","2929920","0.0-8.0-0.0-7.1","COGS219_2019_37","<p><img class= 'stimulus' src='images/baseline/landscape11.jpg'></img></p>","null","","1551127016999","","","","","","",""
"null","","html-keyboard-response","338","2930021","0.0-8.0-0.0-8.1","COGS219_2019_37","<p><img class= 'stimulus' src='images/baseline/grand-teton-mountains.jpg'></img></p>","null","","1551127017099","8","","","","","",""
"null","","html-keyboard-response","339","2930121","0.0-8.0-0.0-9.1","COGS219_2019_37","<p><img class= 'stimulus' src='images/baseline/03162v.jpg'></img></p>","null","","1551127017200","","","","","","",""
"null","","html-keyboard-response","340","2930221","0.0-8.0-0.0-10.1","COGS219_2019_37","<p><img class= 'stimulus' src='images/baseline/05198v.jpg'></img></p>","null","","1551127017300","","","","","","",""
"null","","html-keyboard-response","341","2930321","0.0-8.0-0.0-11.1","COGS219_2019_37","<p><img class= 'stimulus' src='images/baseline/landscape16.jpg'></img></p>","null","","1551127017398","","","","","","",""
"null","","html-keyboard-response","342","2930421","0.0-8.0-0.0-12.1","COGS219_2019_37","<p><img class= 'stimulus left-rotate' src='images/target/building4.jpg'></img></p>","null","","1551127017499","12","","","","","",""
"null","","html-keyboard-response","343","2930520","0.0-8.0-0.0-13.1","COGS219_2019_37","<p><img class= 'stimulus' src='images/baseline/03180v.jpg'></img></p>","null","","1551127017599","","","","","","",""
"null","","html-keyboard-response","344","2930621","0.0-8.0-0.0-14.1","COGS219_2019_37","<p><img class= 'stimulus' src='images/baseline/04014v.jpg'></img></p>","null","","1551127017699","14","","","","","",""
"null","","html-keyboard-response","345","2930720","0.0-8.0-0.0-15.1","COGS219_2019_37","<p><img class= 'stimulus' src='images/baseline/Lake 9.jpg'></img></p>","null","","1551127017800","","","","","","",""
"null","","html-keyboard-response","346","2930820","0.0-8.0-0.0-16.1","COGS219_2019_37","<p><img class= 'stimulus' src='images/baseline/agriculture-bright-clouds-440731.jpg'></img></p>","null","","1551127017899","","","","","","",""
"null","","html-keyboard-response","347","2930938","0.0-8.0-0.0-17.1","COGS219_2019_37","<p><img class= 'stimulus' src='images/baseline/05264v.jpg'></img></p>","null","","1551127017999","","","","","","",""
"1120.1000000000931","","html-button-response","348","2933076","0.0-8.0-0.0-18.1","COGS219_2019_37","<div class = ""response_question"">WAS THE IMAGE ROTATED...</div>","","1","","","4","8","bas","left","test","true"
"1006.5000000032596","","html-button-response","349","2934084","0.0-8.0-0.0-0.2","COGS219_2019_37","","","0","","","","","","","",""
"null","","html-keyboard-response","350","2934171","0.0-8.0-0.0-1.2","COGS219_2019_37","<p><img class= 'stimulus' src='images/baseline/landscape22.jpg'></img></p>","null","","1551127021249","","","","","","",""
"null","","html-keyboard-response","351","2934270","0.0-8.0-0.0-2.2","COGS219_2019_37","<p><img class= 'stimulus' src='images/baseline/pexels-photo-534164.jpeg'></img></p>","null","","1551127021349","","","","","","",""
"null","","html-keyboard-response","352","2934371","0.0-8.0-0.0-3.2","COGS219_2019_37","<p><img class= 'stimulus' src='images/baseline/bird-flying-at-sunset.jpg'></img></p>","null","","1551127021449","","","","","","",""
"null","","html-keyboard-response","353","2934471","0.0-8.0-0.0-4.2","COGS219_2019_37","<p><img class= 'stimulus' src='images/baseline/horse_statue.jpg'></img></p>","null","","1551127021549","4","","","","","",""
"null","","html-keyboard-response","354","2934570","0.0-8.0-0.0-5.2","COGS219_2019_37","<p><img class= 'stimulus' src='images/baseline/04031v.jpg'></img></p>","null","","1551127021648","","","","","","",""
"null","","html-keyboard-response","355","2934671","0.0-8.0-0.0-6.2","COGS219_2019_37","<p><img class= 'stimulus' src='images/baseline/04229v.jpg'></img></p>","null","","1551127021750","6","","","","","",""
"null","","html-keyboard-response","356","2934772","0.0-8.0-0.0-7.2","COGS219_2019_37","<p><img class= 'stimulus' src='images/baseline/Nature 2.jpg'></img></p>","null","","1551127021849","","","","","","",""
"null","","html-keyboard-response","357","2934871","0.0-8.0-0.0-8.2","COGS219_2019_37","<p><img class= 'stimulus' src='images/baseline/architecture-956332_1280.jpg'></img></p>","null","","1551127021949","8","","","","","",""
"null","","html-keyboard-response","358","2934971","0.0-8.0-0.0-9.2","COGS219_2019_37","<p><img class= 'stimulus' src='images/baseline/pexels-photo-1054289.jpeg'></img></p>","null","","1551127022049","","","","","","",""
"null","","html-keyboard-response","359","2935071","0.0-8.0-0.0-10.2","COGS219_2019_37","<p><img class= 'stimulus' src='images/baseline/scenic-mountain-landscape.jpg'></img></p>","null","","1551127022149","","","","","","",""
"null","","html-keyboard-response","360","2935171","0.0-8.0-0.0-11.2","COGS219_2019_37","<p><img class= 'stimulus' src='images/baseline/pexels-photo-259280.jpeg'></img></p>","null","","1551127022249","","","","","","",""
"null","","html-keyboard-response","361","2935272","0.0-8.0-0.0-12.2","COGS219_2019_37","<p><img class= 'stimulus' src='images/baseline/tennis-court-net-buried-in-snow.jpg'></img></p>","null","","1551127022350","12","","","","","",""
"null","","html-keyboard-response","362","2935370","0.0-8.0-0.0-13.2","COGS219_2019_37","<p><img class= 'stimulus' src='images/baseline/landscape33.jpg'></img></p>","null","","1551127022450","","","","","","",""
"null","","html-keyboard-response","363","2935470","0.0-8.0-0.0-14.2","COGS219_2019_37","<p><img class= 'stimulus' src='images/target/tree-740901_1280.jpg'></img></p>","null","","1551127022549","14","","","","","",""
"null","","html-keyboard-response","364","2935571","0.0-8.0-0.0-15.2","COGS219_2019_37","<p><img class= 'stimulus' src='images/baseline/seoul-410266_1920.jpg'></img></p>","null","","1551127022649","","","","","","",""
"null","","html-keyboard-response","365","2935671","0.0-8.0-0.0-16.2","COGS219_2019_37","<p><img class= 'stimulus' src='images/baseline/landscape38.jpg'></img></p>","null","","1551127022749","","","","","","",""
"null","","html-keyboard-response","366","2935787","0.0-8.0-0.0-17.2","COGS219_2019_37","<p><img class= 'stimulus' src='images/baseline/field 1.jpg'></img></p>","null","","1551127022850","","","","","","",""
"1131.5999999931082","","html-button-response","367","2937924","0.0-8.0-0.0-18.2","COGS219_2019_37","<div class = ""response_question"">WAS THE IMAGE ROTATED...</div>","","3","","","6","8","bas","right","test","true"
"1654.1999999899417","","html-button-response","368","2939580","0.0-8.0-0.0-0.3","COGS219_2019_37","","","0","","","","","","","",""
"null","","html-keyboard-response","369","2939654","0.0-8.0-0.0-1.3","COGS219_2019_37","<p><img class= 'stimulus' src='images/baseline/landscape36.jpg'></img></p>","null","","1551127026733","","","","","","",""
"null","","html-keyboard-response","370","2939754","0.0-8.0-0.0-2.3","COGS219_2019_37","<p><img class= 'stimulus' src='images/baseline/Skyscraper 1.jpg'></img></p>","null","","1551127026832","","","","","","",""
"null","","html-keyboard-response","371","2939854","0.0-8.0-0.0-3.3","COGS219_2019_37","<p><img class= 'stimulus' src='images/baseline/03045v.jpg'></img></p>","null","","1551127026933","","","","","","",""
"null","","html-keyboard-response","372","2939955","0.0-8.0-0.0-4.3","COGS219_2019_37","<p><img class= 'stimulus' src='images/baseline/Lake 16.jpg'></img></p>","null","","1551127027032","4","","","","","",""
"null","","html-keyboard-response","373","2940055","0.0-8.0-0.0-5.3","COGS219_2019_37","<p><img class= 'stimulus' src='images/baseline/Street 5.jpg'></img></p>","null","","1551127027133","","","","","","",""
"null","","html-keyboard-response","374","2940154","0.0-8.0-0.0-6.3","COGS219_2019_37","<p><img class= 'stimulus' src='images/neutral/Doctor 5.jpg'></img></p>","null","","1551127027233","6","","","","","",""
"null","","html-keyboard-response","375","2940255","0.0-8.0-0.0-7.3","COGS219_2019_37","<p><img class= 'stimulus' src='images/baseline/4k-wallpaper-agriculture-clouds-842711.jpg'></img></p>","null","","1551127027333","","","","","","",""
"null","","html-keyboard-response","376","2940354","0.0-8.0-0.0-8.3","COGS219_2019_37","<p><img class= 'stimulus' src='images/target/building3.jpg'></img></p>","null","","1551127027433","8","","","","","",""
"null","","html-keyboard-response","377","2940454","0.0-8.0-0.0-9.3","COGS219_2019_37","<p><img class= 'stimulus' src='images/baseline/05131v.jpg'></img></p>","null","","1551127027534","","","","","","",""
"null","","html-keyboard-response","378","2940554","0.0-8.0-0.0-10.3","COGS219_2019_37","<p><img class= 'stimulus' src='images/baseline/field 2.jpg'></img></p>","null","","1551127027632","","","","","","",""
"null","","html-keyboard-response","379","2940654","0.0-8.0-0.0-11.3","COGS219_2019_37","<p><img class= 'stimulus' src='images/baseline/04222v.jpg'></img></p>","null","","1551127027732","","","","","","",""
"null","","html-keyboard-response","380","2940754","0.0-8.0-0.0-12.3","COGS219_2019_37","<p><img class= 'stimulus' src='images/baseline/geese-flying-over-lake-at-dusk.jpg'></img></p>","null","","1551127027833","12","","","","","",""
"null","","html-keyboard-response","381","2940854","0.0-8.0-0.0-13.3","COGS219_2019_37","<p><img class= 'stimulus' src='images/baseline/pexels-photo-351264.jpeg'></img></p>","null","","1551127027932","","","","","","",""
"null","","html-keyboard-response","382","2940954","0.0-8.0-0.0-14.3","COGS219_2019_37","<p><img class= 'stimulus' src='images/baseline/farmhouse8.jpg'></img></p>","null","","1551127028034","14","","","","","",""
"null","","html-keyboard-response","383","2941054","0.0-8.0-0.0-15.3","COGS219_2019_37","<p><img class= 'stimulus' src='images/baseline/farmhouse2.jpg'></img></p>","null","","1551127028132","","","","","","",""
"null","","html-keyboard-response","384","2941154","0.0-8.0-0.0-16.3","COGS219_2019_37","<p><img class= 'stimulus' src='images/baseline/Sky 1.jpg'></img></p>","null","","1551127028232","","","","","","",""
"null","","html-keyboard-response","385","2941271","0.0-8.0-0.0-17.3","COGS219_2019_37","<p><img class= 'stimulus' src='images/baseline/landscape15.jpg'></img></p>","null","","1551127028332","","","","","","",""
"1386.4999999934807","","html-button-response","386","2943660","0.0-8.0-0.0-18.3","COGS219_2019_37","<div class = ""response_question"">WAS THE IMAGE ROTATED...</div>","","2","","","6","2","neu","right","test","false"
"998.2999999918975","","html-button-response","387","2944660","0.0-8.0-0.0-0.4","COGS219_2019_37","","","0","","","","","","","",""
"null","","html-keyboard-response","388","2944738","0.0-8.0-0.0-1.4","COGS219_2019_37","<p><img class= 'stimulus' src='images/baseline/05161v.jpg'></img></p>","null","","1551127031815","","","","","","",""
"null","","html-keyboard-response","389","2944837","0.0-8.0-0.0-2.4","COGS219_2019_37","<p><img class= 'stimulus' src='images/baseline/river 1.jpg'></img></p>","null","","1551127031917","","","","","","",""
"null","","html-keyboard-response","390","2944937","0.0-8.0-0.0-3.4","COGS219_2019_37","<p><img class= 'stimulus' src='images/baseline/03220v.jpg'></img></p>","null","","1551127032016","","","","","","",""
"null","","html-keyboard-response","391","2945037","0.0-8.0-0.0-4.4","COGS219_2019_37","<p><img class= 'stimulus' src='images/baseline/Camping 10.jpg'></img></p>","null","","1551127032116","4","","","","","",""
"null","","html-keyboard-response","392","2945139","0.0-8.0-0.0-5.4","COGS219_2019_37","<p><img class= 'stimulus' src='images/baseline/05145v.jpg'></img></p>","null","","1551127032217","","","","","","",""
"null","","html-keyboard-response","393","2945238","0.0-8.0-0.0-6.4","COGS219_2019_37","<p><img class= 'stimulus' src='images/negative/Injury 4.jpg'></img></p>","null","","1551127032315","6","","","","","",""
"null","","html-keyboard-response","394","2945337","0.0-8.0-0.0-7.4","COGS219_2019_37","<p><img class= 'stimulus' src='images/baseline/04021v.jpg'></img></p>","null","","1551127032416","","","","","","",""
"null","","html-keyboard-response","395","2945437","0.0-8.0-0.0-8.4","COGS219_2019_37","<p><img class= 'stimulus' src='images/baseline/04193v.jpg'></img></p>","null","","1551127032515","8","","","","","",""
"null","","html-keyboard-response","396","2945538","0.0-8.0-0.0-9.4","COGS219_2019_37","<p><img class= 'stimulus' src='images/baseline/Bahia_Onelli_Parque_Nacional_Los_Glaciares_Patagonia_Argentina_Luca_Galuzzi_2005.jpg'></img></p>","null","","1551127032616","","","","","","",""
"null","","html-keyboard-response","397","2945638","0.0-8.0-0.0-10.4","COGS219_2019_37","<p><img class= 'stimulus' src='images/baseline/meadow-with-mountain-in-background.jpg'></img></p>","null","","1551127032716","","","","","","",""
"null","","html-keyboard-response","398","2945737","0.0-8.0-0.0-11.4","COGS219_2019_37","<p><img class= 'stimulus' src='images/baseline/05240v.jpg'></img></p>","null","","1551127032816","","","","","","",""
"null","","html-keyboard-response","399","2945837","0.0-8.0-0.0-12.4","COGS219_2019_37","<p><img class= 'stimulus' src='images/baseline/Nature 1.jpg'></img></p>","null","","1551127032915","12","","","","","",""
"null","","html-keyboard-response","400","2945937","0.0-8.0-0.0-13.4","COGS219_2019_37","<p><img class= 'stimulus' src='images/baseline/05242v.jpg'></img></p>","null","","1551127033016","","","","","","",""
"null","","html-keyboard-response","401","2946037","0.0-8.0-0.0-14.4","COGS219_2019_37","<p><img class= 'stimulus' src='images/target/landscape1.jpg'></img></p>","null","","1551127033116","14","","","","","",""
"null","","html-keyboard-response","402","2946137","0.0-8.0-0.0-15.4","COGS219_2019_37","<p><img class= 'stimulus' src='images/baseline/kokkari-1523011968Xfr.jpg'></img></p>","null","","1551127033216","","","","","","",""
"null","","html-keyboard-response","403","2946237","0.0-8.0-0.0-16.4","COGS219_2019_37","<p><img class= 'stimulus' src='images/baseline/building6.jpg'></img></p>","null","","1551127033317","","","","","","",""
"null","","html-keyboard-response","404","2946354","0.0-8.0-0.0-17.4","COGS219_2019_37","<p><img class= 'stimulus' src='images/baseline/building12.jpg'></img></p>","null","","1551127033417","","","","","","",""
"1725.0999999959022","","html-button-response","405","2949084","0.0-8.0-0.0-18.4","COGS219_2019_37","<div class = ""response_question"">WAS THE IMAGE ROTATED...</div>","","3","","","6","8","neg","right","test","true"
"893.7000000006519","","html-button-response","406","2949980","0.0-8.0-0.0-0.5","COGS219_2019_37","","","0","","","","","","","",""
"null","","html-keyboard-response","407","2950055","0.0-8.0-0.0-1.5","COGS219_2019_37","<p><img class= 'stimulus' src='images/baseline/house8.jpg'></img></p>","null","","1551127037133","","","","","","",""
"null","","html-keyboard-response","408","2950154","0.0-8.0-0.0-2.5","COGS219_2019_37","<p><img class= 'stimulus' src='images/baseline/building9.jpg'></img></p>","null","","1551127037232","","","","","","",""
"null","","html-keyboard-response","409","2950255","0.0-8.0-0.0-3.5","COGS219_2019_37","<p><img class= 'stimulus' src='images/baseline/house6.jpg'></img></p>","null","","1551127037333","","","","","","",""
"null","","html-keyboard-response","410","2950354","0.0-8.0-0.0-4.5","COGS219_2019_37","<p><img class= 'stimulus' src='images/neutral/playing-saxophone-871291665036ZmX.jpg'></img></p>","null","","1551127037432","4","","","","","",""
"null","","html-keyboard-response","411","2950454","0.0-8.0-0.0-5.5","COGS219_2019_37","<p><img class= 'stimulus' src='images/baseline/Dirt 2.jpg'></img></p>","null","","1551127037532","","","","","","",""
"null","","html-keyboard-response","412","2950555","0.0-8.0-0.0-6.5","COGS219_2019_37","<p><img class= 'stimulus' src='images/baseline/02971v.jpg'></img></p>","null","","1551127037634","6","","","","","",""
"null","","html-keyboard-response","413","2950654","0.0-8.0-0.0-7.5","COGS219_2019_37","<p><img class= 'stimulus' src='images/baseline/building4.jpg'></img></p>","null","","1551127037734","","","","","","",""
"null","","html-keyboard-response","414","2950754","0.0-8.0-0.0-8.5","COGS219_2019_37","<p><img class= 'stimulus' src='images/baseline/05279v.jpg'></img></p>","null","","1551127037833","8","","","","","",""
"null","","html-keyboard-response","415","2950854","0.0-8.0-0.0-9.5","COGS219_2019_37","<p><img class= 'stimulus' src='images/baseline/Lake 5.jpg'></img></p>","null","","1551127037932","","","","","","",""
"null","","html-keyboard-response","416","2950954","0.0-8.0-0.0-10.5","COGS219_2019_37","<p><img class= 'stimulus' src='images/baseline/pexels-photo-1048039.jpeg'></img></p>","null","","1551127038032","","","","","","",""
"null","","html-keyboard-response","417","2951054","0.0-8.0-0.0-11.5","COGS219_2019_37","<p><img class= 'stimulus' src='images/baseline/pexels-photo-459203.jpeg'></img></p>","null","","1551127038132","","","","","","",""
"null","","html-keyboard-response","418","2951154","0.0-8.0-0.0-12.5","COGS219_2019_37","<p><img class= 'stimulus left-rotate' src='images/target/lone-tree.png'></img></p>","null","","1551127038232","12","","","","","",""
"null","","html-keyboard-response","419","2951254","0.0-8.0-0.0-13.5","COGS219_2019_37","<p><img class= 'stimulus' src='images/baseline/04062v.jpg'></img></p>","null","","1551127038332","","","","","","",""
"null","","html-keyboard-response","420","2951354","0.0-8.0-0.0-14.5","COGS219_2019_37","<p><img class= 'stimulus' src='images/baseline/99_-_Machu_Picchu_-_Juin_2009.edit3.jpg'></img></p>","null","","1551127038433","14","","","","","",""
"null","","html-keyboard-response","421","2951456","0.0-8.0-0.0-15.5","COGS219_2019_37","<p><img class= 'stimulus' src='images/baseline/autumn-in-red-rocks-park.jpg'></img></p>","null","","1551127038532","","","","","","",""
"null","","html-keyboard-response","422","2951554","0.0-8.0-0.0-16.5","COGS219_2019_37","<p><img class= 'stimulus' src='images/baseline/sunny-landscape-with-dry-brush-and-mountain-background.jpg'></img></p>","null","","1551127038633","","","","","","",""
"null","","html-keyboard-response","423","2951670","0.0-8.0-0.0-17.5","COGS219_2019_37","<p><img class= 'stimulus' src='images/baseline/Kocherbaumwald-01.jpg'></img></p>","null","","1551127038733","","","","","","",""
"978.4999999976717","","html-button-response","424","2953661","0.0-8.0-0.0-18.5","COGS219_2019_37","<div class = ""response_question"">WAS THE IMAGE ROTATED...</div>","","2","","","4","8","neu","left","test","false"
"830.3000000016764","","html-button-response","425","2954492","0.0-8.0-0.0-0.6","COGS219_2019_37","","","0","","","","","","","",""
"null","","html-keyboard-response","426","2954571","0.0-8.0-0.0-1.6","COGS219_2019_37","<p><img class= 'stimulus' src='images/baseline/Linden,_paysage.jpg'></img></p>","null","","1551127041650","","","","","","",""
"null","","html-keyboard-response","427","2954671","0.0-8.0-0.0-2.6","COGS219_2019_37","<p><img class= 'stimulus' src='images/baseline/03204v.jpg'></img></p>","null","","1551127041750","","","","","","",""
"null","","html-keyboard-response","428","2954771","0.0-8.0-0.0-3.6","COGS219_2019_37","<p><img class= 'stimulus' src='images/baseline/landscape39.jpg'></img></p>","null","","1551127041850","","","","","","",""
"null","","html-keyboard-response","429","2954871","0.0-8.0-0.0-4.6","COGS219_2019_37","<p><img class= 'stimulus' src='images/baseline/pexels-photo-210617.jpeg'></img></p>","null","","1551127041949","4","","","","","",""
"null","","html-keyboard-response","430","2954972","0.0-8.0-0.0-5.6","COGS219_2019_37","<p><img class= 'stimulus' src='images/baseline/road.jpg'></img></p>","null","","1551127042050","","","","","","",""
"null","","html-keyboard-response","431","2955072","0.0-8.0-0.0-6.6","COGS219_2019_37","<p><img class= 'stimulus' src='images/negative/War 1.jpg'></img></p>","null","","1551127042150","6","","","","","",""
"null","","html-keyboard-response","432","2955171","0.0-8.0-0.0-7.6","COGS219_2019_37","<p><img class= 'stimulus' src='images/baseline/04098v.jpg'></img></p>","null","","1551127042250","","","","","","",""
"null","","html-keyboard-response","433","2955271","0.0-8.0-0.0-8.6","COGS219_2019_37","<p><img class= 'stimulus' src='images/baseline/landscape19.jpg'></img></p>","null","","1551127042350","8","","","","","",""
"null","","html-keyboard-response","434","2955371","0.0-8.0-0.0-9.6","COGS219_2019_37","<p><img class= 'stimulus' src='images/baseline/Happy pose 3.jpg'></img></p>","null","","1551127042449","","","","","","",""
"null","","html-keyboard-response","435","2955470","0.0-8.0-0.0-10.6","COGS219_2019_37","<p><img class= 'stimulus' src='images/baseline/landscape3.jpg'></img></p>","null","","1551127042550","","","","","","",""
"null","","html-keyboard-response","436","2955571","0.0-8.0-0.0-11.6","COGS219_2019_37","<p><img class= 'stimulus' src='images/baseline/03075v.jpg'></img></p>","null","","1551127042649","","","","","","",""
"null","","html-keyboard-response","437","2955671","0.0-8.0-0.0-12.6","COGS219_2019_37","<p><img class= 'stimulus' src='images/baseline/lake 2.jpg'></img></p>","null","","1551127042749","12","","","","","",""
"null","","html-keyboard-response","438","2955771","0.0-8.0-0.0-13.6","COGS219_2019_37","<p><img class= 'stimulus' src='images/baseline/Beach 3.jpg'></img></p>","null","","1551127042849","","","","","","",""
"null","","html-keyboard-response","439","2955872","0.0-8.0-0.0-14.6","COGS219_2019_37","<p><img class= 'stimulus left-rotate' src='images/target/buildin5.jpg'></img></p>","null","","1551127042949","14","","","","","",""
"null","","html-keyboard-response","440","2955972","0.0-8.0-0.0-15.6","COGS219_2019_37","<p><img class= 'stimulus' src='images/baseline/church-silhouette-8712964986014Kb.jpg'></img></p>","null","","1551127043050","","","","","","",""
"null","","html-keyboard-response","441","2956071","0.0-8.0-0.0-16.6","COGS219_2019_37","<p><img class= 'stimulus' src='images/baseline/04162v.jpg'></img></p>","null","","1551127043150","","","","","","",""
"null","","html-keyboard-response","442","2956188","0.0-8.0-0.0-17.6","COGS219_2019_37","<p><img class= 'stimulus' src='images/baseline/04300v.jpg'></img></p>","null","","1551127043249","","","","","","",""
"1283.2000000053085","","html-button-response","443","2958476","0.0-8.0-0.0-18.6","COGS219_2019_37","<div class = ""response_question"">WAS THE IMAGE ROTATED...</div>","","1","","","6","8","neg","left","test","true"
"1302.4000000008382","","html-button-response","444","2959780","0.0-8.0-0.0-0.7","COGS219_2019_37","","","0","","","","","","","",""
"null","","html-keyboard-response","445","2959854","0.0-8.0-0.0-1.7","COGS219_2019_37","<p><img class= 'stimulus' src='images/baseline/red rocks from afar.jpg'></img></p>","null","","1551127046933","","","","","","",""
"null","","html-keyboard-response","446","2959955","0.0-8.0-0.0-2.7","COGS219_2019_37","<p><img class= 'stimulus' src='images/baseline/valley 2.jpg'></img></p>","null","","1551127047032","","","","","","",""
"null","","html-keyboard-response","447","2960055","0.0-8.0-0.0-3.7","COGS219_2019_37","<p><img class= 'stimulus' src='images/baseline/pexels-photo-1261728.jpeg'></img></p>","null","","1551127047133","","","","","","",""
"null","","html-keyboard-response","448","2960154","0.0-8.0-0.0-4.7","COGS219_2019_37","<p><img class= 'stimulus' src='images/negative/Gun 1.jpg'></img></p>","null","","1551127047232","4","","","","","",""
"null","","html-keyboard-response","449","2960255","0.0-8.0-0.0-5.7","COGS219_2019_37","<p><img class= 'stimulus' src='images/baseline/04010v.jpg'></img></p>","null","","1551127047334","","","","","","",""
"null","","html-keyboard-response","450","2960354","0.0-8.0-0.0-6.7","COGS219_2019_37","<p><img class= 'stimulus left-rotate' src='images/target/landscape3.jpg'></img></p>","null","","1551127047432","6","","","","","",""
"null","","html-keyboard-response","451","2960454","0.0-8.0-0.0-7.7","COGS219_2019_37","<p><img class= 'stimulus' src='images/baseline/house10.jpg'></img></p>","null","","1551127047533","","","","","","",""
"null","","html-keyboard-response","452","2960555","0.0-8.0-0.0-8.7","COGS219_2019_37","<p><img class= 'stimulus' src='images/baseline/farmhouse7.jpg'></img></p>","null","","1551127047633","8","","","","","",""
"null","","html-keyboard-response","453","2960654","0.0-8.0-0.0-9.7","COGS219_2019_37","<p><img class= 'stimulus' src='images/baseline/04130v.jpg'></img></p>","null","","1551127047732","","","","","","",""
"null","","html-keyboard-response","454","2960755","0.0-8.0-0.0-10.7","COGS219_2019_37","<p><img class= 'stimulus' src='images/baseline/02988v.jpg'></img></p>","null","","1551127047832","","","","","","",""
"null","","html-keyboard-response","455","2960854","0.0-8.0-0.0-11.7","COGS219_2019_37","<p><img class= 'stimulus' src='images/baseline/Lake 3.jpg'></img></p>","null","","1551127047933","","","","","","",""
"null","","html-keyboard-response","456","2960954","0.0-8.0-0.0-12.7","COGS219_2019_37","<p><img class= 'stimulus' src='images/baseline/05167v.jpg'></img></p>","null","","1551127048033","12","","","","","",""
"null","","html-keyboard-response","457","2961055","0.0-8.0-0.0-13.7","COGS219_2019_37","<p><img class= 'stimulus' src='images/baseline/Street 4.jpg'></img></p>","null","","1551127048133","","","","","","",""
"null","","html-keyboard-response","458","2961154","0.0-8.0-0.0-14.7","COGS219_2019_37","<p><img class= 'stimulus' src='images/baseline/pexels-photo-750108.jpeg'></img></p>","null","","1551127048233","14","","","","","",""
"null","","html-keyboard-response","459","2961254","0.0-8.0-0.0-15.7","COGS219_2019_37","<p><img class= 'stimulus' src='images/baseline/02962v.jpg'></img></p>","null","","1551127048332","","","","","","",""
"null","","html-keyboard-response","460","2961354","0.0-8.0-0.0-16.7","COGS219_2019_37","<p><img class= 'stimulus' src='images/baseline/02982v.jpg'></img></p>","null","","1551127048433","","","","","","",""
"null","","html-keyboard-response","461","2961471","0.0-8.0-0.0-17.7","COGS219_2019_37","<p><img class= 'stimulus' src='images/baseline/03148v.jpg'></img></p>","null","","1551127048533","","","","","","",""
"1224.4000000064261","","html-button-response","462","2963701","0.0-8.0-0.0-18.7","COGS219_2019_37","<div class = ""response_question"">WAS THE IMAGE ROTATED...</div>","","5","","","4","2","neg","left","test","false"
"581.9999999953434","","html-button-response","463","2964284","0.0-8.0-0.0-0.8","COGS219_2019_37","","","0","","","","","","","",""
"null","","html-keyboard-response","464","2964371","0.0-8.0-0.0-1.8","COGS219_2019_37","<p><img class= 'stimulus' src='images/baseline/landscape31.jpg'></img></p>","null","","1551127051449","","","","","","",""
"null","","html-keyboard-response","465","2964472","0.0-8.0-0.0-2.8","COGS219_2019_37","<p><img class= 'stimulus' src='images/baseline/Bridge 1.jpg'></img></p>","null","","1551127051550","","","","","","",""
"null","","html-keyboard-response","466","2964571","0.0-8.0-0.0-3.8","COGS219_2019_37","<p><img class= 'stimulus' src='images/baseline/landscape13.jpg'></img></p>","null","","1551127051649","","","","","","",""
"null","","html-keyboard-response","467","2964672","0.0-8.0-0.0-4.8","COGS219_2019_37","<p><img class= 'stimulus' src='images/baseline/Lake 14.jpg'></img></p>","null","","1551127051749","4","","","","","",""
"null","","html-keyboard-response","468","2964772","0.0-8.0-0.0-5.8","COGS219_2019_37","<p><img class= 'stimulus' src='images/baseline/flooded-bridge.jpg'></img></p>","null","","1551127051850","","","","","","",""
"null","","html-keyboard-response","469","2964870","0.0-8.0-0.0-6.8","COGS219_2019_37","<p><img class= 'stimulus' src='images/negative/Wolf 2.jpg'></img></p>","null","","1551127051950","6","","","","","",""
"null","","html-keyboard-response","470","2964972","0.0-8.0-0.0-7.8","COGS219_2019_37","<p><img class= 'stimulus' src='images/baseline/__08_-_ITALY_-_Forli_under_snow_-_winter_landscape_of_city_(christmas).jpg'></img></p>","null","","1551127052050","","","","","","",""
"null","","html-keyboard-response","471","2965070","0.0-8.0-0.0-8.8","COGS219_2019_37","<p><img class= 'stimulus' src='images/target/fishhouse.jpg'></img></p>","null","","1551127052149","8","","","","","",""
"null","","html-keyboard-response","472","2965171","0.0-8.0-0.0-9.8","COGS219_2019_37","<p><img class= 'stimulus' src='images/baseline/04086v.jpg'></img></p>","null","","1551127052250","","","","","","",""
"null","","html-keyboard-response","473","2965271","0.0-8.0-0.0-10.8","COGS219_2019_37","<p><img class= 'stimulus' src='images/baseline/pexels-photo-541101.jpeg'></img></p>","null","","1551127052349","","","","","","",""
"null","","html-keyboard-response","474","2965371","0.0-8.0-0.0-11.8","COGS219_2019_37","<p><img class= 'stimulus' src='images/baseline/farmhouse1.jpg'></img></p>","null","","1551127052449","","","","","","",""
