"rt","responses","trial_type","trial_index","time_elapsed","internal_node_id","participant_id","stimulus","key_press","button_pressed","stim_onset","sequence_position","distractor_position","target_lag","distractor_type","target_orientation","phase","correct"
"19431.500000006054","{""Q0"":""26""}","survey-text","0","19436","0.0-0.0","26","","","","","","","","","","",""
"2660300.600000017","","html-keyboard-response","1","2679744","0.0-1.0","26","Welcome to the experiment.","67","","","","","","","","",""
"13039.400000008754","","html-button-response","2","2692792","0.0-2.0","26","<p>Several images will be presented sequentially.        Each image will only be on the screen for about 100 milliseconds.</p>        <p> One of the images may be rotated 90 degrees right or left.        Watch for this image and remember if it is rotated right or left.</p>               <p>Images of people and animals will appear, and sometimes they will be unpleasant.        These will never be the rotated target image.</p>","","0","","","","","","","",""
"1718.0999999982305","","html-button-response","3","2694511","0.0-3.0","26","<p><img class=""stimulus left-rotate"" src=""images/target/building2.jpg""></img></p><p>This is an example of an image rotated to the left.</p>","","0","","","","","","","",""
"1246.7000000178814","","html-button-response","4","2695759","0.0-4.0","26","<p><img class=""stimulus"" src=""images/target/building3.jpg""></img></p><p>This is an example of an image rotated to the right.</p>","","0","","","","","","","",""
"8455.100000021048","","html-button-response","5","2704216","0.0-5.0","26","<p>We will now begin a short practice session.</p>         <p>A + symbol will appear in the middle of the screen. Please fix your gaze on the center of the +, and then click the mouse button to begin the image sequence.</p>         <p>Please avoid blinking or eye movements while the images are on the screen.</p>        <p>The image sequence will start relatively slow. After a few sequences, it will speed up.</p>","","0","","","","","","","",""
"14822.19999999553","","html-button-response","6","2719039","0.0-6.0-0.0","26","","","0","","","","","","","",""
"null","","html-keyboard-response","7","2719232","0.0-6.0-1.0","26","<p><img class= 'stimulus' src='images/baseline/03212v.jpg'></img></p>","null","","1550698143545","","","","","","",""
"null","","html-keyboard-response","8","2719432","0.0-6.0-2.0","26","<p><img class= 'stimulus' src='images/baseline/landscape7.jpg'></img></p>","null","","1550698143746","","","","","","",""
"null","","html-keyboard-response","9","2719631","0.0-6.0-3.0","26","<p><img class= 'stimulus' src='images/baseline/pexels-photo-1048039.jpeg'></img></p>","null","","1550698143945","","","","","","",""
"null","","html-keyboard-response","10","2719831","0.0-6.0-4.0","26","<p><img class= 'stimulus' src='images/baseline/kokkari-1523011968Xfr.jpg'></img></p>","null","","1550698144146","4","","","","","",""
"null","","html-keyboard-response","11","2720031","0.0-6.0-5.0","26","<p><img class= 'stimulus' src='images/baseline/pexels-photo-414491.jpeg'></img></p>","null","","1550698144345","","","","","","",""
"null","","html-keyboard-response","12","2720232","0.0-6.0-6.0","26","<p><img class= 'stimulus' src='images/baseline/valley 2.jpg'></img></p>","null","","1550698144545","6","","","","","",""
"null","","html-keyboard-response","13","2720431","0.0-6.0-7.0","26","<p><img class= 'stimulus' src='images/baseline/Bridge 1.jpg'></img></p>","null","","1550698144745","","","","","","",""
"null","","html-keyboard-response","14","2720631","0.0-6.0-8.0","26","<p><img class= 'stimulus' src='images/baseline/vintage-art-deco-storefront.jpg'></img></p>","null","","1550698144945","8","","","","","",""
"null","","html-keyboard-response","15","2720831","0.0-6.0-9.0","26","<p><img class= 'stimulus' src='images/baseline/04284v.jpg'></img></p>","null","","1550698145145","","","","","","",""
"null","","html-keyboard-response","16","2721032","0.0-6.0-10.0","26","<p><img class= 'stimulus' src='images/baseline/house6.jpg'></img></p>","null","","1550698145345","","","","","","",""
"null","","html-keyboard-response","17","2721233","0.0-6.0-11.0","26","<p><img class= 'stimulus' src='images/baseline/Nature 1.jpg'></img></p>","null","","1550698145545","","","","","","",""
"null","","html-keyboard-response","18","2721432","0.0-6.0-12.0","26","<p><img class= 'stimulus' src='images/baseline/04085v.jpg'></img></p>","null","","1550698145745","12","","","","","",""
"null","","html-keyboard-response","19","2721633","0.0-6.0-13.0","26","<p><img class= 'stimulus' src='images/baseline/landscape11.jpg'></img></p>","null","","1550698145946","","","","","","",""
"null","","html-keyboard-response","20","2721831","0.0-6.0-14.0","26","<p><img class= 'stimulus left-rotate' src='images/target/fishhouse.jpg'></img></p>","null","","1550698146146","14","","","","","",""
"null","","html-keyboard-response","21","2722032","0.0-6.0-15.0","26","<p><img class= 'stimulus' src='images/baseline/building4.jpg'></img></p>","null","","1550698146346","","","","","","",""
"null","","html-keyboard-response","22","2722232","0.0-6.0-16.0","26","<p><img class= 'stimulus' src='images/baseline/Street 3.jpg'></img></p>","null","","1550698146547","","","","","","",""
"null","","html-keyboard-response","23","2722448","0.0-6.0-17.0","26","<p><img class= 'stimulus' src='images/baseline/Lake 9.jpg'></img></p>","null","","1550698146745","","","","","","",""
"2457.200000004377","","html-button-response","24","2725911","0.0-6.0-18.0","26","<div class = ""response_question"">WAS THE IMAGE ROTATED...</div>","","0","","","6","8","bas","left","practice","true"
"5101.800000004005","","html-button-response","25","2731015","0.0-6.0-0.1","26","","","0","","","","","","","",""
"null","","html-keyboard-response","26","2731198","0.0-6.0-1.1","26","<p><img class= 'stimulus' src='images/baseline/architecture-1314416_1920.jpg'></img></p>","null","","1550698155512","","","","","","",""
"null","","html-keyboard-response","27","2731399","0.0-6.0-2.1","26","<p><img class= 'stimulus' src='images/baseline/Path 1.jpg'></img></p>","null","","1550698155712","","","","","","",""
"null","","html-keyboard-response","28","2731599","0.0-6.0-3.1","26","<p><img class= 'stimulus' src='images/baseline/05167v.jpg'></img></p>","null","","1550698155912","","","","","","",""
"null","","html-keyboard-response","29","2731799","0.0-6.0-4.1","26","<p><img class= 'stimulus' src='images/baseline/cyrillic.jpg'></img></p>","null","","1550698156112","4","","","","","",""
"null","","html-keyboard-response","30","2731999","0.0-6.0-5.1","26","<p><img class= 'stimulus' src='images/baseline/04040v.jpg'></img></p>","null","","1550698156313","","","","","","",""
"null","","html-keyboard-response","31","2732200","0.0-6.0-6.1","26","<p><img class= 'stimulus left-rotate' src='images/target/italy-building-1206128_1280.jpg'></img></p>","null","","1550698156513","6","","","","","",""
"null","","html-keyboard-response","32","2732399","0.0-6.0-7.1","26","<p><img class= 'stimulus' src='images/baseline/Sunset 6.jpg'></img></p>","null","","1550698156713","","","","","","",""
"null","","html-keyboard-response","33","2732599","0.0-6.0-8.1","26","<p><img class= 'stimulus' src='images/baseline/landscape34.jpg'></img></p>","null","","1550698156914","8","","","","","",""
"null","","html-keyboard-response","34","2732801","0.0-6.0-9.1","26","<p><img class= 'stimulus' src='images/baseline/landscape31.jpg'></img></p>","null","","1550698157113","","","","","","",""
"null","","html-keyboard-response","35","2732999","0.0-6.0-10.1","26","<p><img class= 'stimulus' src='images/baseline/horse_statue.jpg'></img></p>","null","","1550698157314","","","","","","",""
"null","","html-keyboard-response","36","2733199","0.0-6.0-11.1","26","<p><img class= 'stimulus' src='images/baseline/tennis-court-net-buried-in-snow.jpg'></img></p>","null","","1550698157514","","","","","","",""
"null","","html-keyboard-response","37","2733399","0.0-6.0-12.1","26","<p><img class= 'stimulus' src='images/baseline/05255v.jpg'></img></p>","null","","1550698157712","12","","","","","",""
"null","","html-keyboard-response","38","2733599","0.0-6.0-13.1","26","<p><img class= 'stimulus' src='images/baseline/Beach 2.jpg'></img></p>","null","","1550698157913","","","","","","",""
"null","","html-keyboard-response","39","2733799","0.0-6.0-14.1","26","<p><img class= 'stimulus' src='images/baseline/04193v.jpg'></img></p>","null","","1550698158113","14","","","","","",""
"null","","html-keyboard-response","40","2733999","0.0-6.0-15.1","26","<p><img class= 'stimulus' src='images/baseline/Sailing 3.jpg'></img></p>","null","","1550698158313","","","","","","",""
"null","","html-keyboard-response","41","2734200","0.0-6.0-16.1","26","<p><img class= 'stimulus' src='images/baseline/Sidewalk 4.jpg'></img></p>","null","","1550698158514","","","","","","",""
"null","","html-keyboard-response","42","2734417","0.0-6.0-17.1","26","<p><img class= 'stimulus' src='images/baseline/landscape19.jpg'></img></p>","null","","1550698158715","","","","","","",""
"1967.7999999839813","","html-button-response","43","2737391","0.0-6.0-18.1","26","<div class = ""response_question"">WAS THE IMAGE ROTATED...</div>","","0","","","4","2","bas","left","practice","true"
"2286.3999999826774","","html-button-response","44","2739679","0.0-6.0-0.2","26","","","0","","","","","","","",""
"null","","html-keyboard-response","45","2739866","0.0-6.0-1.2","26","<p><img class= 'stimulus' src='images/baseline/Street 1.jpg'></img></p>","null","","1550698164180","","","","","","",""
"null","","html-keyboard-response","46","2740066","0.0-6.0-2.2","26","<p><img class= 'stimulus' src='images/baseline/hiking-trail.jpg'></img></p>","null","","1550698164379","","","","","","",""
"null","","html-keyboard-response","47","2740267","0.0-6.0-3.2","26","<p><img class= 'stimulus' src='images/baseline/Lake 4.jpg'></img></p>","null","","1550698164579","","","","","","",""
"null","","html-keyboard-response","48","2740466","0.0-6.0-4.2","26","<p><img class= 'stimulus' src='images/baseline/hills 3.jpg'></img></p>","null","","1550698164780","4","","","","","",""
"null","","html-keyboard-response","49","2740666","0.0-6.0-5.2","26","<p><img class= 'stimulus' src='images/baseline/04117v.jpg'></img></p>","null","","1550698164980","","","","","","",""
"null","","html-keyboard-response","50","2740867","0.0-6.0-6.2","26","<p><img class= 'stimulus' src='images/baseline/Dirt 2.jpg'></img></p>","null","","1550698165180","6","","","","","",""
"null","","html-keyboard-response","51","2741066","0.0-6.0-7.2","26","<p><img class= 'stimulus' src='images/baseline/landscape35.jpg'></img></p>","null","","1550698165380","","","","","","",""
"null","","html-keyboard-response","52","2741266","0.0-6.0-8.2","26","<p><img class= 'stimulus' src='images/baseline/Street 5.jpg'></img></p>","null","","1550698165580","8","","","","","",""
"null","","html-keyboard-response","53","2741467","0.0-6.0-9.2","26","<p><img class= 'stimulus' src='images/baseline/Kocherbaumwald-01.jpg'></img></p>","null","","1550698165779","","","","","","",""
"null","","html-keyboard-response","54","2741666","0.0-6.0-10.2","26","<p><img class= 'stimulus' src='images/baseline/Niinsaare_jarv.jpg'></img></p>","null","","1550698165979","","","","","","",""
"null","","html-keyboard-response","55","2741865","0.0-6.0-11.2","26","<p><img class= 'stimulus' src='images/baseline/trees 23.jpg'></img></p>","null","","1550698166180","","","","","","",""
"null","","html-keyboard-response","56","2742066","0.0-6.0-12.2","26","<p><img class= 'stimulus' src='images/baseline/lone-old-cottonwood-tree.jpg'></img></p>","null","","1550698166380","12","","","","","",""
"null","","html-keyboard-response","57","2742266","0.0-6.0-13.2","26","<p><img class= 'stimulus' src='images/baseline/road.jpg'></img></p>","null","","1550698166579","","","","","","",""
"null","","html-keyboard-response","58","2742466","0.0-6.0-14.2","26","<p><img class= 'stimulus' src='images/target/building3.jpg'></img></p>","null","","1550698166780","14","","","","","",""
"null","","html-keyboard-response","59","2742666","0.0-6.0-15.2","26","<p><img class= 'stimulus' src='images/baseline/landscape4.jpg'></img></p>","null","","1550698166980","","","","","","",""
"null","","html-keyboard-response","60","2742867","0.0-6.0-16.2","26","<p><img class= 'stimulus' src='images/baseline/Paysage_enneige_02.jpg'></img></p>","null","","1550698167179","","","","","","",""
"null","","html-keyboard-response","61","2743083","0.0-6.0-17.2","26","<p><img class= 'stimulus' src='images/baseline/Nature 2.jpg'></img></p>","null","","1550698167380","","","","","","",""
"706.2999999905005","","html-button-response","62","2744792","0.0-6.0-18.2","26","<div class = ""response_question"">WAS THE IMAGE ROTATED...</div>","","4","","","6","8","bas","right","practice","true"
"1438.39999998454","","html-button-response","63","2746231","0.0-6.0-0.3","26","","","0","","","","","","","",""
"null","","html-keyboard-response","64","2746416","0.0-6.0-1.3","26","<p><img class= 'stimulus' src='images/baseline/house7.jpg'></img></p>","null","","1550698170730","","","","","","",""
"null","","html-keyboard-response","65","2746616","0.0-6.0-2.3","26","<p><img class= 'stimulus' src='images/baseline/05161v.jpg'></img></p>","null","","1550698170929","","","","","","",""
"null","","html-keyboard-response","66","2746816","0.0-6.0-3.3","26","<p><img class= 'stimulus' src='images/baseline/lookout_tower.jpg'></img></p>","null","","1550698171129","","","","","","",""
"null","","html-keyboard-response","67","2747017","0.0-6.0-4.3","26","<p><img class= 'stimulus' src='images/baseline/__08_-_ITALY_-_Forli_under_snow_-_winter_landscape_of_city_(christmas).jpg'></img></p>","null","","1550698171329","4","","","","","",""
"null","","html-keyboard-response","68","2747217","0.0-6.0-5.3","26","<p><img class= 'stimulus' src='images/baseline/autumn-in-red-rocks-park.jpg'></img></p>","null","","1550698171530","","","","","","",""
"null","","html-keyboard-response","69","2747418","0.0-6.0-6.3","26","<p><img class= 'stimulus' src='images/baseline/landscape29.jpg'></img></p>","null","","1550698171730","6","","","","","",""
"null","","html-keyboard-response","70","2747617","0.0-6.0-7.3","26","<p><img class= 'stimulus' src='images/baseline/05292v.jpg'></img></p>","null","","1550698171930","","","","","","",""
"null","","html-keyboard-response","71","2747817","0.0-6.0-8.3","26","<p><img class= 'stimulus left-rotate' src='images/target/skyscraper-3855012_640.jpg'></img></p>","null","","1550698172130","8","","","","","",""
"null","","html-keyboard-response","72","2748016","0.0-6.0-9.3","26","<p><img class= 'stimulus' src='images/baseline/02988v.jpg'></img></p>","null","","1550698172330","","","","","","",""
"null","","html-keyboard-response","73","2748216","0.0-6.0-10.3","26","<p><img class= 'stimulus' src='images/baseline/foreclosed_home.jpg'></img></p>","null","","1550698172531","","","","","","",""
"null","","html-keyboard-response","74","2748416","0.0-6.0-11.3","26","<p><img class= 'stimulus' src='images/baseline/landscape39.jpg'></img></p>","null","","1550698172729","","","","","","",""
"null","","html-keyboard-response","75","2748617","0.0-6.0-12.3","26","<p><img class= 'stimulus' src='images/baseline/05189v.jpg'></img></p>","null","","1550698172930","12","","","","","",""
"null","","html-keyboard-response","76","2748816","0.0-6.0-13.3","26","<p><img class= 'stimulus' src='images/baseline/99_-_Machu_Picchu_-_Juin_2009.edit3.jpg'></img></p>","null","","1550698173129","","","","","","",""
"null","","html-keyboard-response","77","2749017","0.0-6.0-14.3","26","<p><img class= 'stimulus' src='images/baseline/field 3.jpg'></img></p>","null","","1550698173330","14","","","","","",""
"null","","html-keyboard-response","78","2749218","0.0-6.0-15.3","26","<p><img class= 'stimulus' src='images/baseline/road 1(1).jpg'></img></p>","null","","1550698173530","","","","","","",""
"null","","html-keyboard-response","79","2749418","0.0-6.0-16.3","26","<p><img class= 'stimulus' src='images/baseline/chicago-skyline-at-night-1476869511p8U.jpg'></img></p>","null","","1550698173731","","","","","","",""
"null","","html-keyboard-response","80","2749634","0.0-6.0-17.3","26","<p><img class= 'stimulus' src='images/baseline/04031v.jpg'></img></p>","null","","1550698173930","","","","","","",""
"906.4000000068918","","html-button-response","81","2751544","0.0-6.0-18.3","26","<div class = ""response_question"">WAS THE IMAGE ROTATED...</div>","","0","","","6","2","bas","left","practice","true"
"1110.5999999856576","","html-button-response","82","2752642","0.0-6.0-0.4","26","","","0","","","","","","","",""
"null","","html-keyboard-response","83","2752770","0.0-6.0-1.4","26","<p><img class= 'stimulus' src='images/baseline/02977v.jpg'></img></p>","null","","1550698177133","","","","","","",""
"null","","html-keyboard-response","84","2752920","0.0-6.0-2.4","26","<p><img class= 'stimulus' src='images/baseline/hills 1.jpg'></img></p>","null","","1550698177283","","","","","","",""
"null","","html-keyboard-response","85","2753070","0.0-6.0-3.4","26","<p><img class= 'stimulus' src='images/baseline/town-square-in-wroclaw-1539098440MZy.jpg'></img></p>","null","","1550698177434","","","","","","",""
"null","","html-keyboard-response","86","2753220","0.0-6.0-4.4","26","<p><img class= 'stimulus' src='images/baseline/lake3.jpg'></img></p>","null","","1550698177583","4","","","","","",""
"null","","html-keyboard-response","87","2753369","0.0-6.0-5.4","26","<p><img class= 'stimulus' src='images/baseline/03056v.jpg'></img></p>","null","","1550698177734","","","","","","",""
"null","","html-keyboard-response","88","2753519","0.0-6.0-6.4","26","<p><img class= 'stimulus' src='images/baseline/03098v.jpg'></img></p>","null","","1550698177882","6","","","","","",""
"null","","html-keyboard-response","89","2753669","0.0-6.0-7.4","26","<p><img class= 'stimulus' src='images/baseline/Grass 6.jpg'></img></p>","null","","1550698178033","","","","","","",""
"null","","html-keyboard-response","90","2753820","0.0-6.0-8.4","26","<p><img class= 'stimulus' src='images/baseline/architecture-956332_1280.jpg'></img></p>","null","","1550698178183","8","","","","","",""
"null","","html-keyboard-response","91","2753969","0.0-6.0-9.4","26","<p><img class= 'stimulus' src='images/baseline/Peyto_Lake-Banff_NP-Canada.jpg'></img></p>","null","","1550698178333","","","","","","",""
"null","","html-keyboard-response","92","2754120","0.0-6.0-10.4","26","<p><img class= 'stimulus' src='images/baseline/02945v.jpg'></img></p>","null","","1550698178483","","","","","","",""
"null","","html-keyboard-response","93","2754270","0.0-6.0-11.4","26","<p><img class= 'stimulus' src='images/baseline/Lake 16.jpg'></img></p>","null","","1550698178634","","","","","","",""
"null","","html-keyboard-response","94","2754420","0.0-6.0-12.4","26","<p><img class= 'stimulus left-rotate' src='images/target/building15.jpg'></img></p>","null","","1550698178783","12","","","","","",""
"null","","html-keyboard-response","95","2754570","0.0-6.0-13.4","26","<p><img class= 'stimulus' src='images/baseline/pexels-photo-894312.jpeg'></img></p>","null","","1550698178932","","","","","","",""
"null","","html-keyboard-response","96","2754720","0.0-6.0-14.4","26","<p><img class= 'stimulus' src='images/baseline/landscape23.jpg'></img></p>","null","","1550698179083","14","","","","","",""
"null","","html-keyboard-response","97","2754869","0.0-6.0-15.4","26","<p><img class= 'stimulus' src='images/baseline/pexels-photo-440731.jpeg'></img></p>","null","","1550698179233","","","","","","",""
"null","","html-keyboard-response","98","2755019","0.0-6.0-16.4","26","<p><img class= 'stimulus' src='images/baseline/pexels-photo-459203.jpeg'></img></p>","null","","1550698179383","","","","","","",""
"null","","html-keyboard-response","99","2755186","0.0-6.0-17.4","26","<p><img class= 'stimulus' src='images/baseline/02960v.jpg'></img></p>","null","","1550698179533","","","","","","",""
"1069.6999999927357","","html-button-response","100","2757259","0.0-6.0-18.4","26","<div class = ""response_question"">WAS THE IMAGE ROTATED...</div>","","1","","","4","8","bas","left","practice","true"
"990.2000000001863","","html-button-response","101","2758250","0.0-6.0-0.5","26","","","0","","","","","","","",""
"null","","html-keyboard-response","102","2758385","0.0-6.0-1.5","26","<p><img class= 'stimulus' src='images/baseline/05240v.jpg'></img></p>","null","","1550698182749","","","","","","",""
"null","","html-keyboard-response","103","2758536","0.0-6.0-2.5","26","<p><img class= 'stimulus' src='images/baseline/05186v.jpg'></img></p>","null","","1550698182900","","","","","","",""
"null","","html-keyboard-response","104","2758686","0.0-6.0-3.5","26","<p><img class= 'stimulus' src='images/baseline/landscape15.jpg'></img></p>","null","","1550698183049","","","","","","",""
"null","","html-keyboard-response","105","2758836","0.0-6.0-4.5","26","<p><img class= 'stimulus' src='images/baseline/03066v.jpg'></img></p>","null","","1550698183199","4","","","","","",""
"null","","html-keyboard-response","106","2758986","0.0-6.0-5.5","26","<p><img class= 'stimulus' src='images/baseline/agriculture-countryside-crop-259280.jpg'></img></p>","null","","1550698183349","","","","","","",""
"null","","html-keyboard-response","107","2759137","0.0-6.0-6.5","26","<p><img class= 'stimulus' src='images/baseline/02962v.jpg'></img></p>","null","","1550698183499","6","","","","","",""
"null","","html-keyboard-response","108","2759286","0.0-6.0-7.5","26","<p><img class= 'stimulus' src='images/baseline/05179v.jpg'></img></p>","null","","1550698183649","","","","","","",""
"null","","html-keyboard-response","109","2759436","0.0-6.0-8.5","26","<p><img class= 'stimulus' src='images/target/Wild-West-South-West-Usa-Landscape-America-1663497.jpg'></img></p>","null","","1550698183800","8","","","","","",""
"null","","html-keyboard-response","110","2759586","0.0-6.0-9.5","26","<p><img class= 'stimulus' src='images/baseline/river 1.jpg'></img></p>","null","","1550698183949","","","","","","",""
"null","","html-keyboard-response","111","2759737","0.0-6.0-10.5","26","<p><img class= 'stimulus' src='images/baseline/04098v.jpg'></img></p>","null","","1550698184098","","","","","","",""
"null","","html-keyboard-response","112","2759886","0.0-6.0-11.5","26","<p><img class= 'stimulus' src='images/baseline/pexels-photo-1287089.jpeg'></img></p>","null","","1550698184249","","","","","","",""
"null","","html-keyboard-response","113","2760036","0.0-6.0-12.5","26","<p><img class= 'stimulus' src='images/baseline/03114v.jpg'></img></p>","null","","1550698184399","12","","","","","",""
"null","","html-keyboard-response","114","2760186","0.0-6.0-13.5","26","<p><img class= 'stimulus' src='images/baseline/04162v.jpg'></img></p>","null","","1550698184549","","","","","","",""
"null","","html-keyboard-response","115","2760335","0.0-6.0-14.5","26","<p><img class= 'stimulus' src='images/baseline/pexels-photo-1837621.jpeg'></img></p>","null","","1550698184700","14","","","","","",""
"null","","html-keyboard-response","116","2760486","0.0-6.0-15.5","26","<p><img class= 'stimulus' src='images/baseline/pexels-photo-568236.jpeg'></img></p>","null","","1550698184850","","","","","","",""
"null","","html-keyboard-response","117","2760636","0.0-6.0-16.5","26","<p><img class= 'stimulus' src='images/baseline/sunny-landscape-with-dry-brush-and-mountain-background.jpg'></img></p>","null","","1550698185000","","","","","","",""
"null","","html-keyboard-response","118","2760803","0.0-6.0-17.5","26","<p><img class= 'stimulus' src='images/baseline/03075v.jpg'></img></p>","null","","1550698185148","","","","","","",""
"756.5999999935739","","html-button-response","119","2762563","0.0-6.0-18.5","26","<div class = ""response_question"">WAS THE IMAGE ROTATED...</div>","","3","","","6","2","bas","right","practice","true"
"1470.400000020396","","html-button-response","120","2764035","0.0-6.0-0.6","26","","","0","","","","","","","",""
"null","","html-keyboard-response","121","2764169","0.0-6.0-1.6","26","<p><img class= 'stimulus' src='images/baseline/scenic-mountain-landscape.jpg'></img></p>","null","","1550698188533","","","","","","",""
"null","","html-keyboard-response","122","2764319","0.0-6.0-2.6","26","<p><img class= 'stimulus' src='images/baseline/cranes 1.jpg'></img></p>","null","","1550698188683","","","","","","",""
"null","","html-keyboard-response","123","2764469","0.0-6.0-3.6","26","<p><img class= 'stimulus' src='images/baseline/05303v.jpg'></img></p>","null","","1550698188832","","","","","","",""
"null","","html-keyboard-response","124","2764619","0.0-6.0-4.6","26","<p><img class= 'stimulus' src='images/baseline/building9.jpg'></img></p>","null","","1550698188984","4","","","","","",""
"null","","html-keyboard-response","125","2764770","0.0-6.0-5.6","26","<p><img class= 'stimulus' src='images/baseline/landscape12.jpg'></img></p>","null","","1550698189133","","","","","","",""
"null","","html-keyboard-response","126","2764920","0.0-6.0-6.6","26","<p><img class= 'stimulus' src='images/target/house-estate-1100x733.jpg'></img></p>","null","","1550698189283","6","","","","","",""
"null","","html-keyboard-response","127","2765068","0.0-6.0-7.6","26","<p><img class= 'stimulus' src='images/baseline/pexels-photo-541101.jpeg'></img></p>","null","","1550698189434","","","","","","",""
"null","","html-keyboard-response","128","2765218","0.0-6.0-8.6","26","<p><img class= 'stimulus' src='images/baseline/04064v.jpg'></img></p>","null","","1550698189583","8","","","","","",""
"null","","html-keyboard-response","129","2765370","0.0-6.0-9.6","26","<p><img class= 'stimulus' src='images/baseline/03217v.jpg'></img></p>","null","","1550698189732","","","","","","",""
"null","","html-keyboard-response","130","2765519","0.0-6.0-10.6","26","<p><img class= 'stimulus' src='images/baseline/landscape37.jpg'></img></p>","null","","1550698189882","","","","","","",""
"null","","html-keyboard-response","131","2765669","0.0-6.0-11.6","26","<p><img class= 'stimulus' src='images/baseline/Lake 7.jpg'></img></p>","null","","1550698190032","","","","","","",""
"null","","html-keyboard-response","132","2765819","0.0-6.0-12.6","26","<p><img class= 'stimulus' src='images/baseline/church-silhouette-8712964986014Kb.jpg'></img></p>","null","","1550698190183","12","","","","","",""
"null","","html-keyboard-response","133","2765968","0.0-6.0-13.6","26","<p><img class= 'stimulus' src='images/baseline/agriculture-bright-clouds-440731.jpg'></img></p>","null","","1550698190333","","","","","","",""
"null","","html-keyboard-response","134","2766120","0.0-6.0-14.6","26","<p><img class= 'stimulus' src='images/baseline/landscape38.jpg'></img></p>","null","","1550698190484","14","","","","","",""
"null","","html-keyboard-response","135","2766269","0.0-6.0-15.6","26","<p><img class= 'stimulus' src='images/baseline/field 1.jpg'></img></p>","null","","1550698190632","","","","","","",""
"null","","html-keyboard-response","136","2766419","0.0-6.0-16.6","26","<p><img class= 'stimulus' src='images/baseline/building2.jpg'></img></p>","null","","1550698190783","","","","","","",""
"null","","html-keyboard-response","137","2766587","0.0-6.0-17.6","26","<p><img class= 'stimulus' src='images/baseline/landscape17.jpg'></img></p>","null","","1550698190932","","","","","","",""
"1725.2000000150874","","html-button-response","138","2769315","0.0-6.0-18.6","26","<div class = ""response_question"">WAS THE IMAGE ROTATED...</div>","","3","","","4","2","bas","right","practice","true"
"798.2999999951571","","html-button-response","139","2770114","0.0-6.0-0.7","26","","","0","","","","","","","",""
"null","","html-keyboard-response","140","2770252","0.0-6.0-1.7","26","<p><img class= 'stimulus' src='images/baseline/farmhouse1.jpg'></img></p>","null","","1550698194615","","","","","","",""
"null","","html-keyboard-response","141","2770404","0.0-6.0-2.7","26","<p><img class= 'stimulus' src='images/baseline/Skyscraper 1.jpg'></img></p>","null","","1550698194767","","","","","","",""
"null","","html-keyboard-response","142","2770552","0.0-6.0-3.7","26","<p><img class= 'stimulus' src='images/baseline/04201v.jpg'></img></p>","null","","1550698194916","","","","","","",""
"null","","html-keyboard-response","143","2770703","0.0-6.0-4.7","26","<p><img class= 'stimulus' src='images/baseline/building3.jpg'></img></p>","null","","1550698195065","4","","","","","",""
"null","","html-keyboard-response","144","2770852","0.0-6.0-5.7","26","<p><img class= 'stimulus' src='images/baseline/house8.jpg'></img></p>","null","","1550698195216","","","","","","",""
"null","","html-keyboard-response","145","2771003","0.0-6.0-6.7","26","<p><img class= 'stimulus' src='images/baseline/Freudenberg_sg_Switzerland.jpg'></img></p>","null","","1550698195365","6","","","","","",""
"null","","html-keyboard-response","146","2771153","0.0-6.0-7.7","26","<p><img class= 'stimulus' src='images/baseline/04196v.jpg'></img></p>","null","","1550698195516","","","","","","",""
"null","","html-keyboard-response","147","2771303","0.0-6.0-8.7","26","<p><img class= 'stimulus' src='images/baseline/building8.jpg'></img></p>","null","","1550698195666","8","","","","","",""
"null","","html-keyboard-response","148","2771453","0.0-6.0-9.7","26","<p><img class= 'stimulus' src='images/baseline/Lake 13.jpg'></img></p>","null","","1550698195817","","","","","","",""
"null","","html-keyboard-response","149","2771603","0.0-6.0-10.7","26","<p><img class= 'stimulus' src='images/baseline/red rocks from afar.jpg'></img></p>","null","","1550698195966","","","","","","",""
"null","","html-keyboard-response","150","2771752","0.0-6.0-11.7","26","<p><img class= 'stimulus' src='images/baseline/Camping 10.jpg'></img></p>","null","","1550698196116","","","","","","",""
"null","","html-keyboard-response","151","2771902","0.0-6.0-12.7","26","<p><img class= 'stimulus' src='images/target/Tree-Landscape-Winter-Nature-Winter-Trees-Snow-2117951.jpg'></img></p>","null","","1550698196266","12","","","","","",""
"null","","html-keyboard-response","152","2772052","0.0-6.0-13.7","26","<p><img class= 'stimulus' src='images/baseline/valley 1.jpg'></img></p>","null","","1550698196415","","","","","","",""
"null","","html-keyboard-response","153","2772202","0.0-6.0-14.7","26","<p><img class= 'stimulus' src='images/baseline/05145v.jpg'></img></p>","null","","1550698196566","14","","","","","",""
"null","","html-keyboard-response","154","2772352","0.0-6.0-15.7","26","<p><img class= 'stimulus' src='images/baseline/05131v.jpg'></img></p>","null","","1550698196716","","","","","","",""
"null","","html-keyboard-response","155","2772502","0.0-6.0-16.7","26","<p><img class= 'stimulus' src='images/baseline/04060v.jpg'></img></p>","null","","1550698196866","","","","","","",""
"null","","html-keyboard-response","156","2772669","0.0-6.0-17.7","26","<p><img class= 'stimulus' src='images/baseline/Skijump 1.jpg'></img></p>","null","","1550698197016","","","","","","",""
"770.3000000040047","","html-button-response","157","2774443","0.0-6.0-18.7","26","<div class = ""response_question"">WAS THE IMAGE ROTATED...</div>","","4","","","4","8","bas","right","practice","true"
"950.2999999965541","","html-button-response","158","2775395","0.0-6.0-0.8","26","","","0","","","","","","","",""
"null","","html-keyboard-response","159","2775469","0.0-6.0-1.8","26","<p><img class= 'stimulus' src='images/baseline/Street 4.jpg'></img></p>","null","","1550698199882","","","","","","",""
"null","","html-keyboard-response","160","2775570","0.0-6.0-2.8","26","<p><img class= 'stimulus' src='images/baseline/Sky 1.jpg'></img></p>","null","","1550698199983","","","","","","",""
"null","","html-keyboard-response","161","2775669","0.0-6.0-3.8","26","<p><img class= 'stimulus' src='images/baseline/05280v.jpg'></img></p>","null","","1550698200082","","","","","","",""
"null","","html-keyboard-response","162","2775769","0.0-6.0-4.8","26","<p><img class= 'stimulus' src='images/baseline/snowy tree.jpg'></img></p>","null","","1550698200182","4","","","","","",""
"null","","html-keyboard-response","163","2775869","0.0-6.0-5.8","26","<p><img class= 'stimulus' src='images/baseline/05252v.jpg'></img></p>","null","","1550698200282","","","","","","",""
"null","","html-keyboard-response","164","2775970","0.0-6.0-6.8","26","<p><img class= 'stimulus' src='images/baseline/04086v.jpg'></img></p>","null","","1550698200382","6","","","","","",""
"null","","html-keyboard-response","165","2776069","0.0-6.0-7.8","26","<p><img class= 'stimulus' src='images/baseline/farmhouse11.jpg'></img></p>","null","","1550698200482","","","","","","",""
"null","","html-keyboard-response","166","2776169","0.0-6.0-8.8","26","<p><img class= 'stimulus' src='images/baseline/Lake 5.jpg'></img></p>","null","","1550698200583","8","","","","","",""
"null","","html-keyboard-response","167","2776269","0.0-6.0-9.8","26","<p><img class= 'stimulus' src='images/baseline/geese-flying-over-lake-at-dusk.jpg'></img></p>","null","","1550698200683","","","","","","",""
"null","","html-keyboard-response","168","2776369","0.0-6.0-10.8","26","<p><img class= 'stimulus' src='images/baseline/04010v.jpg'></img></p>","null","","1550698200783","","","","","","",""
"null","","html-keyboard-response","169","2776469","0.0-6.0-11.8","26","<p><img class= 'stimulus' src='images/baseline/meadow-with-mountain-in-background.jpg'></img></p>","null","","1550698200884","","","","","","",""
"null","","html-keyboard-response","170","2776570","0.0-6.0-12.8","26","<p><img class= 'stimulus left-rotate' src='images/target/lone-tree.png'></img></p>","null","","1550698200982","12","","","","","",""
"null","","html-keyboard-response","171","2776669","0.0-6.0-13.8","26","<p><img class= 'stimulus' src='images/baseline/Aletschgletscher-Eggishorn.jpg'></img></p>","null","","1550698201083","","","","","","",""
"null","","html-keyboard-response","172","2776769","0.0-6.0-14.8","26","<p><img class= 'stimulus' src='images/baseline/05139v.jpg'></img></p>","null","","1550698201184","14","","","","","",""
"null","","html-keyboard-response","173","2776869","0.0-6.0-15.8","26","<p><img class= 'stimulus' src='images/baseline/landscape14.jpg'></img></p>","null","","1550698201282","","","","","","",""
"null","","html-keyboard-response","174","2776969","0.0-6.0-16.8","26","<p><img class= 'stimulus' src='images/baseline/landscape36.jpg'></img></p>","null","","1550698201382","","","","","","",""
"null","","html-keyboard-response","175","2777085","0.0-6.0-17.8","26","<p><img class= 'stimulus' src='images/baseline/seoul-410266_1920.jpg'></img></p>","null","","1550698201483","","","","","","",""
"1522.5999999963678","","html-button-response","176","2779611","0.0-6.0-18.8","26","<div class = ""response_question"">WAS THE IMAGE ROTATED...</div>","","1","","","4","8","bas","left","practice","true"
"790.2999999932945","","html-button-response","177","2780402","0.0-6.0-0.9","26","","","0","","","","","","","",""
"null","","html-keyboard-response","178","2780486","0.0-6.0-1.9","26","<p><img class= 'stimulus' src='images/baseline/pexels-photo-1261728.jpeg'></img></p>","null","","1550698204900","","","","","","",""
"null","","html-keyboard-response","179","2780586","0.0-6.0-2.9","26","<p><img class= 'stimulus' src='images/baseline/house3.jpg'></img></p>","null","","1550698204999","","","","","","",""
"null","","html-keyboard-response","180","2780686","0.0-6.0-3.9","26","<p><img class= 'stimulus' src='images/baseline/03201v.jpg'></img></p>","null","","1550698205100","","","","","","",""
"null","","html-keyboard-response","181","2780786","0.0-6.0-4.9","26","<p><img class= 'stimulus' src='images/baseline/04062v.jpg'></img></p>","null","","1550698205200","4","","","","","",""
"null","","html-keyboard-response","182","2780886","0.0-6.0-5.9","26","<p><img class= 'stimulus' src='images/baseline/Beach 8.jpg'></img></p>","null","","1550698205300","","","","","","",""
"null","","html-keyboard-response","183","2780986","0.0-6.0-6.9","26","<p><img class= 'stimulus' src='images/baseline/Skyscraper 2.jpg'></img></p>","null","","1550698205401","6","","","","","",""
"null","","html-keyboard-response","184","2781086","0.0-6.0-7.9","26","<p><img class= 'stimulus' src='images/baseline/empire-state-building.jpg'></img></p>","null","","1550698205500","","","","","","",""
"null","","html-keyboard-response","185","2781186","0.0-6.0-8.9","26","<p><img class= 'stimulus left-rotate' src='images/target/oak-1913194_640.jpg'></img></p>","null","","1550698205599","8","","","","","",""
"null","","html-keyboard-response","186","2781285","0.0-6.0-9.9","26","<p><img class= 'stimulus' src='images/baseline/03220v.jpg'></img></p>","null","","1550698205700","","","","","","",""
"null","","html-keyboard-response","187","2781387","0.0-6.0-10.9","26","<p><img class= 'stimulus' src='images/baseline/Desert_View_Indian_Wells.jpg'></img></p>","null","","1550698205800","","","","","","",""
"null","","html-keyboard-response","188","2781485","0.0-6.0-11.9","26","<p><img class= 'stimulus' src='images/baseline/Cold 7.jpg'></img></p>","null","","1550698205900","","","","","","",""
"null","","html-keyboard-response","189","2781586","0.0-6.0-12.9","26","<p><img class= 'stimulus' src='images/baseline/03041v.jpg'></img></p>","null","","1550698206001","12","","","","","",""
"null","","html-keyboard-response","190","2781686","0.0-6.0-13.9","26","<p><img class= 'stimulus' src='images/baseline/Sunset 4.jpg'></img></p>","null","","1550698206099","","","","","","",""
"null","","html-keyboard-response","191","2781786","0.0-6.0-14.9","26","<p><img class= 'stimulus' src='images/baseline/farmhouse8.jpg'></img></p>","null","","1550698206199","14","","","","","",""
"null","","html-keyboard-response","192","2781886","0.0-6.0-15.9","26","<p><img class= 'stimulus' src='images/baseline/landscape2.jpg'></img></p>","null","","1550698206299","","","","","","",""
"null","","html-keyboard-response","193","2781987","0.0-6.0-16.9","26","<p><img class= 'stimulus' src='images/baseline/05242v.jpg'></img></p>","null","","1550698206399","","","","","","",""
"null","","html-keyboard-response","194","2782103","0.0-6.0-17.9","26","<p><img class= 'stimulus' src='images/baseline/Road 1.jpg'></img></p>","null","","1550698206499","","","","","","",""
"920.8000000212342","","html-button-response","195","2784027","0.0-6.0-18.9","26","<div class = ""response_question"">WAS THE IMAGE ROTATED...</div>","","5","","","6","2","bas","left","practice","false"
"822.0999999903142","","html-button-response","196","2784851","0.0-6.0-0.10","26","","","0","","","","","","","",""
"null","","html-keyboard-response","197","2784936","0.0-6.0-1.10","26","<p><img class= 'stimulus' src='images/baseline/05203v.jpg'></img></p>","null","","1550698209349","","","","","","",""
"null","","html-keyboard-response","198","2785036","0.0-6.0-2.10","26","<p><img class= 'stimulus' src='images/baseline/Lake 8.jpg'></img></p>","null","","1550698209449","","","","","","",""
"null","","html-keyboard-response","199","2785136","0.0-6.0-3.10","26","<p><img class= 'stimulus' src='images/baseline/Sunset 3.jpg'></img></p>","null","","1550698209549","","","","","","",""
"null","","html-keyboard-response","200","2785236","0.0-6.0-4.10","26","<p><img class= 'stimulus' src='images/baseline/Street 2.jpg'></img></p>","null","","1550698209649","4","","","","","",""
"null","","html-keyboard-response","201","2785336","0.0-6.0-5.10","26","<p><img class= 'stimulus' src='images/baseline/pexels-photo-427676.jpeg'></img></p>","null","","1550698209750","","","","","","",""
"null","","html-keyboard-response","202","2785437","0.0-6.0-6.10","26","<p><img class= 'stimulus' src='images/baseline/field 4.jpg'></img></p>","null","","1550698209849","6","","","","","",""
"null","","html-keyboard-response","203","2785536","0.0-6.0-7.10","26","<p><img class= 'stimulus' src='images/baseline/farmhouse4.jpg'></img></p>","null","","1550698209951","","","","","","",""
"null","","html-keyboard-response","204","2785636","0.0-6.0-8.10","26","<p><img class= 'stimulus' src='images/target/building5.jpg'></img></p>","null","","1550698210050","8","","","","","",""
"null","","html-keyboard-response","205","2785737","0.0-6.0-9.10","26","<p><img class= 'stimulus' src='images/baseline/pexels-photo-280222.jpeg'></img></p>","null","","1550698210150","","","","","","",""
"null","","html-keyboard-response","206","2785836","0.0-6.0-10.10","26","<p><img class= 'stimulus' src='images/baseline/05279v.jpg'></img></p>","null","","1550698210251","","","","","","",""
"null","","html-keyboard-response","207","2785936","0.0-6.0-11.10","26","<p><img class= 'stimulus' src='images/baseline/04130v.jpg'></img></p>","null","","1550698210349","","","","","","",""
"null","","html-keyboard-response","208","2786036","0.0-6.0-12.10","26","<p><img class= 'stimulus' src='images/baseline/bird-flying-at-sunset.jpg'></img></p>","null","","1550698210450","12","","","","","",""
"null","","html-keyboard-response","209","2786136","0.0-6.0-13.10","26","<p><img class= 'stimulus' src='images/baseline/Waterfall 1.jpg'></img></p>","null","","1550698210549","","","","","","",""
"null","","html-keyboard-response","210","2786235","0.0-6.0-14.10","26","<p><img class= 'stimulus' src='images/baseline/lake 1.jpg'></img></p>","null","","1550698210649","14","","","","","",""
"null","","html-keyboard-response","211","2786337","0.0-6.0-15.10","26","<p><img class= 'stimulus' src='images/baseline/pexels-photo-210617.jpeg'></img></p>","null","","1550698210749","","","","","","",""
"null","","html-keyboard-response","212","2786436","0.0-6.0-16.10","26","<p><img class= 'stimulus' src='images/baseline/farmhouse6.jpg'></img></p>","null","","1550698210850","","","","","","",""
"null","","html-keyboard-response","213","2786554","0.0-6.0-17.10","26","<p><img class= 'stimulus' src='images/baseline/house1.jpg'></img></p>","null","","1550698210949","","","","","","",""
"734.4999999911524","","html-button-response","214","2788291","0.0-6.0-18.10","26","<div class = ""response_question"">WAS THE IMAGE ROTATED...</div>","","4","","","6","2","bas","right","practice","true"
"790.2000000174157","","html-button-response","215","2789083","0.0-6.0-0.11","26","","","0","","","","","","","",""
"null","","html-keyboard-response","216","2789168","0.0-6.0-1.11","26","<p><img class= 'stimulus' src='images/baseline/Dock 1.jpg'></img></p>","null","","1550698213582","","","","","","",""
"null","","html-keyboard-response","217","2789270","0.0-6.0-2.11","26","<p><img class= 'stimulus' src='images/baseline/landscape6.jpg'></img></p>","null","","1550698213683","","","","","","",""
"null","","html-keyboard-response","218","2789370","0.0-6.0-3.11","26","<p><img class= 'stimulus' src='images/baseline/house11.jpg'></img></p>","null","","1550698213783","","","","","","",""
"null","","html-keyboard-response","219","2789469","0.0-6.0-4.11","26","<p><img class= 'stimulus' src='images/baseline/pexels-photo-1054289.jpeg'></img></p>","null","","1550698213884","4","","","","","",""
"null","","html-keyboard-response","220","2789569","0.0-6.0-5.11","26","<p><img class= 'stimulus' src='images/baseline/04222v.jpg'></img></p>","null","","1550698213982","","","","","","",""
"null","","html-keyboard-response","221","2789669","0.0-6.0-6.11","26","<p><img class= 'stimulus left-rotate' src='images/target/building4.jpg'></img></p>","null","","1550698214083","6","","","","","",""
"null","","html-keyboard-response","222","2789769","0.0-6.0-7.11","26","<p><img class= 'stimulus' src='images/baseline/Lake 15.jpg'></img></p>","null","","1550698214182","","","","","","",""
"null","","html-keyboard-response","223","2789869","0.0-6.0-8.11","26","<p><img class= 'stimulus' src='images/baseline/landscape1.jpg'></img></p>","null","","1550698214283","8","","","","","",""
"null","","html-keyboard-response","224","2789969","0.0-6.0-9.11","26","<p><img class= 'stimulus' src='images/baseline/02982v.jpg'></img></p>","null","","1550698214383","","","","","","",""
"null","","html-keyboard-response","225","2790069","0.0-6.0-10.11","26","<p><img class= 'stimulus' src='images/baseline/building_at_national_conservation.jpg'></img></p>","null","","1550698214482","","","","","","",""
"null","","html-keyboard-response","226","2790170","0.0-6.0-11.11","26","<p><img class= 'stimulus' src='images/baseline/farmhouse9.jpg'></img></p>","null","","1550698214584","","","","","","",""
"null","","html-keyboard-response","227","2790269","0.0-6.0-12.11","26","<p><img class= 'stimulus' src='images/baseline/03063v.jpg'></img></p>","null","","1550698214683","12","","","","","",""
"null","","html-keyboard-response","228","2790369","0.0-6.0-13.11","26","<p><img class= 'stimulus' src='images/baseline/pexels-photo-750108.jpeg'></img></p>","null","","1550698214783","","","","","","",""
"null","","html-keyboard-response","229","2790470","0.0-6.0-14.11","26","<p><img class= 'stimulus' src='images/baseline/pexels-photo-59321.jpeg'></img></p>","null","","1550698214883","14","","","","","",""
"null","","html-keyboard-response","230","2790569","0.0-6.0-15.11","26","<p><img class= 'stimulus' src='images/baseline/4k-wallpaper-agriculture-clouds-842711.jpg'></img></p>","null","","1550698214983","","","","","","",""
"null","","html-keyboard-response","231","2790670","0.0-6.0-16.11","26","<p><img class= 'stimulus' src='images/baseline/farmhouse3.jpg'></img></p>","null","","1550698215083","","","","","","",""
"null","","html-keyboard-response","232","2790786","0.0-6.0-17.11","26","<p><img class= 'stimulus' src='images/baseline/farmhouse2.jpg'></img></p>","null","","1550698215182","","","","","","",""
"805.2000000025146","","html-button-response","233","2792595","0.0-6.0-18.11","26","<div class = ""response_question"">WAS THE IMAGE ROTATED...</div>","","1","","","4","2","bas","left","practice","true"
"790.600000007078","","html-button-response","234","2793387","0.0-6.0-0.12","26","","","0","","","","","","","",""
"null","","html-keyboard-response","235","2793470","0.0-6.0-1.12","26","<p><img class= 'stimulus' src='images/baseline/agriculture-cereal-clouds-175389.jpg'></img></p>","null","","1550698217883","","","","","","",""
"null","","html-keyboard-response","236","2793570","0.0-6.0-2.12","26","<p><img class= 'stimulus' src='images/baseline/landscape22.jpg'></img></p>","null","","1550698217984","","","","","","",""
"null","","html-keyboard-response","237","2793669","0.0-6.0-3.12","26","<p><img class= 'stimulus' src='images/baseline/04014v.jpg'></img></p>","null","","1550698218083","","","","","","",""
"null","","html-keyboard-response","238","2793770","0.0-6.0-4.12","26","<p><img class= 'stimulus' src='images/baseline/Lake 3.jpg'></img></p>","null","","1550698218183","4","","","","","",""
"null","","html-keyboard-response","239","2793870","0.0-6.0-5.12","26","<p><img class= 'stimulus' src='images/baseline/landscape3.jpg'></img></p>","null","","1550698218284","","","","","","",""
"null","","html-keyboard-response","240","2793969","0.0-6.0-6.12","26","<p><img class= 'stimulus' src='images/target/mitre peak.jpg'></img></p>","null","","1550698218384","6","","","","","",""
"null","","html-keyboard-response","241","2794069","0.0-6.0-7.12","26","<p><img class= 'stimulus' src='images/baseline/04063v.jpg'></img></p>","null","","1550698218483","","","","","","",""
"null","","html-keyboard-response","242","2794169","0.0-6.0-8.12","26","<p><img class= 'stimulus' src='images/baseline/02971v.jpg'></img></p>","null","","1550698218582","8","","","","","",""
"null","","html-keyboard-response","243","2794270","0.0-6.0-9.12","26","<p><img class= 'stimulus' src='images/baseline/Happy pose 3.jpg'></img></p>","null","","1550698218682","","","","","","",""
"null","","html-keyboard-response","244","2794370","0.0-6.0-10.12","26","<p><img class= 'stimulus' src='images/baseline/landscape40.jpg'></img></p>","null","","1550698218784","","","","","","",""
"null","","html-keyboard-response","245","2794469","0.0-6.0-11.12","26","<p><img class= 'stimulus' src='images/baseline/pexels-photo-351264.jpeg'></img></p>","null","","1550698218883","","","","","","",""
"null","","html-keyboard-response","246","2794569","0.0-6.0-12.12","26","<p><img class= 'stimulus' src='images/baseline/farmhouse7.jpg'></img></p>","null","","1550698218983","12","","","","","",""
"null","","html-keyboard-response","247","2794670","0.0-6.0-13.12","26","<p><img class= 'stimulus' src='images/baseline/lake 2.jpg'></img></p>","null","","1550698219083","","","","","","",""
"null","","html-keyboard-response","248","2794769","0.0-6.0-14.12","26","<p><img class= 'stimulus' src='images/baseline/Bahia_Onelli_Parque_Nacional_Los_Glaciares_Patagonia_Argentina_Luca_Galuzzi_2005.jpg'></img></p>","null","","1550698219183","14","","","","","",""
"null","","html-keyboard-response","249","2794870","0.0-6.0-15.12","26","<p><img class= 'stimulus' src='images/baseline/dirt-road-or-trail-through-park.jpg'></img></p>","null","","1550698219285","","","","","","",""
"null","","html-keyboard-response","250","2794971","0.0-6.0-16.12","26","<p><img class= 'stimulus' src='images/baseline/Sunset 5.jpg'></img></p>","null","","1550698219382","","","","","","",""
"null","","html-keyboard-response","251","2795087","0.0-6.0-17.12","26","<p><img class= 'stimulus' src='images/baseline/sun-through-winter-tree-branches1.jpg'></img></p>","null","","1550698219483","","","","","","",""
"687.0000000051223","","html-button-response","252","2796787","0.0-6.0-18.12","26","<div class = ""response_question"">WAS THE IMAGE ROTATED...</div>","","4","","","4","2","bas","right","practice","true"
"710.0999999963678","","html-button-response","253","2797499","0.0-6.0-0.13","26","","","0","","","","","","","",""
"null","","html-keyboard-response","254","2797570","0.0-6.0-1.13","26","<p><img class= 'stimulus' src='images/baseline/red-rocks-park.jpg'></img></p>","null","","1550698221984","","","","","","",""
"null","","html-keyboard-response","255","2797670","0.0-6.0-2.13","26","<p><img class= 'stimulus' src='images/baseline/landscape33.jpg'></img></p>","null","","1550698222084","","","","","","",""
"null","","html-keyboard-response","256","2797771","0.0-6.0-3.13","26","<p><img class= 'stimulus' src='images/baseline/04158v.jpg'></img></p>","null","","1550698222183","","","","","","",""
"null","","html-keyboard-response","257","2797870","0.0-6.0-4.13","26","<p><img class= 'stimulus' src='images/baseline/02947v.jpg'></img></p>","null","","1550698222283","4","","","","","",""
"null","","html-keyboard-response","258","2797970","0.0-6.0-5.13","26","<p><img class= 'stimulus' src='images/baseline/03148v.jpg'></img></p>","null","","1550698222383","","","","","","",""
"null","","html-keyboard-response","259","2798070","0.0-6.0-6.13","26","<p><img class= 'stimulus' src='images/baseline/04021v.jpg'></img></p>","null","","1550698222485","6","","","","","",""
"null","","html-keyboard-response","260","2798170","0.0-6.0-7.13","26","<p><img class= 'stimulus' src='images/baseline/landscape13.jpg'></img></p>","null","","1550698222584","","","","","","",""
"null","","html-keyboard-response","261","2798270","0.0-6.0-8.13","26","<p><img class= 'stimulus' src='images/baseline/03112v.jpg'></img></p>","null","","1550698222685","8","","","","","",""
"null","","html-keyboard-response","262","2798369","0.0-6.0-9.13","26","<p><img class= 'stimulus' src='images/baseline/Beach 3.jpg'></img></p>","null","","1550698222783","","","","","","",""
"null","","html-keyboard-response","263","2798470","0.0-6.0-10.13","26","<p><img class= 'stimulus' src='images/baseline/pexels-photo-1840893.jpeg'></img></p>","null","","1550698222883","","","","","","",""
"null","","html-keyboard-response","264","2798570","0.0-6.0-11.13","26","<p><img class= 'stimulus' src='images/baseline/field 2.jpg'></img></p>","null","","1550698222984","","","","","","",""
"null","","html-keyboard-response","265","2798670","0.0-6.0-12.13","26","<p><img class= 'stimulus' src='images/baseline/landscape16.jpg'></img></p>","null","","1550698223083","12","","","","","",""
"null","","html-keyboard-response","266","2798770","0.0-6.0-13.13","26","<p><img class= 'stimulus' src='images/baseline/05247v.jpg'></img></p>","null","","1550698223184","","","","","","",""
"null","","html-keyboard-response","267","2798870","0.0-6.0-14.13","26","<p><img class= 'stimulus left-rotate' src='images/target/tree-3563269_640.jpg'></img></p>","null","","1550698223284","14","","","","","",""
"null","","html-keyboard-response","268","2798969","0.0-6.0-15.13","26","<p><img class= 'stimulus' src='images/baseline/Lake 14.jpg'></img></p>","null","","1550698223383","","","","","","",""
"null","","html-keyboard-response","269","2799069","0.0-6.0-16.13","26","<p><img class= 'stimulus' src='images/baseline/building12.jpg'></img></p>","null","","1550698223485","","","","","","",""
"null","","html-keyboard-response","270","2799186","0.0-6.0-17.13","26","<p><img class= 'stimulus' src='images/baseline/Paysage_karabagh_02.jpg'></img></p>","null","","1550698223582","","","","","","",""
"1218.9000000068918","","html-button-response","271","2801411","0.0-6.0-18.13","26","<div class = ""response_question"">WAS THE IMAGE ROTATED...</div>","","2","","","6","8","bas","left","practice","false"
"2238.300000026822","","html-button-response","272","2803651","0.0-6.0-0.14","26","","","0","","","","","","","",""
"null","","html-keyboard-response","273","2803737","0.0-6.0-1.14","26","<p><img class= 'stimulus' src='images/baseline/04179v.jpg'></img></p>","null","","1550698228151","","","","","","",""
"null","","html-keyboard-response","274","2803836","0.0-6.0-2.14","26","<p><img class= 'stimulus' src='images/baseline/pexels-photo-259280.jpeg'></img></p>","null","","1550698228250","","","","","","",""
"null","","html-keyboard-response","275","2803936","0.0-6.0-3.14","26","<p><img class= 'stimulus' src='images/baseline/03162v.jpg'></img></p>","null","","1550698228349","","","","","","",""
"null","","html-keyboard-response","276","2804036","0.0-6.0-4.14","26","<p><img class= 'stimulus' src='images/baseline/architecture_modern_architecture_852928.jpg'></img></p>","null","","1550698228449","4","","","","","",""
"null","","html-keyboard-response","277","2804137","0.0-6.0-5.14","26","<p><img class= 'stimulus' src='images/baseline/building5.jpg'></img></p>","null","","1550698228551","","","","","","",""
"null","","html-keyboard-response","278","2804237","0.0-6.0-6.14","26","<p><img class= 'stimulus' src='images/baseline/04229v.jpg'></img></p>","null","","1550698228649","6","","","","","",""
"null","","html-keyboard-response","279","2804337","0.0-6.0-7.14","26","<p><img class= 'stimulus' src='images/baseline/03204v.jpg'></img></p>","null","","1550698228750","","","","","","",""
"null","","html-keyboard-response","280","2804437","0.0-6.0-8.14","26","<p><img class= 'stimulus' src='images/baseline/landscape8.jpg'></img></p>","null","","1550698228850","8","","","","","",""
"null","","html-keyboard-response","281","2804536","0.0-6.0-9.14","26","<p><img class= 'stimulus' src='images/baseline/05158v.jpg'></img></p>","null","","1550698228951","","","","","","",""
"null","","html-keyboard-response","282","2804635","0.0-6.0-10.14","26","<p><img class= 'stimulus' src='images/baseline/autumn-landscape-with-lake-fall-trees-mountains.jpg'></img></p>","null","","1550698229050","","","","","","",""
"null","","html-keyboard-response","283","2804737","0.0-6.0-11.14","26","<p><img class= 'stimulus' src='images/baseline/pexels-photo-534164.jpeg'></img></p>","null","","1550698229151","","","","","","",""
"null","","html-keyboard-response","284","2804837","0.0-6.0-12.14","26","<p><img class= 'stimulus' src='images/baseline/city-silhouette-at-sunset-871291580819Esw.jpg'></img></p>","null","","1550698229251","12","","","","","",""
"null","","html-keyboard-response","285","2804936","0.0-6.0-13.14","26","<p><img class= 'stimulus' src='images/baseline/hills 4.jpg'></img></p>","null","","1550698229351","","","","","","",""
"null","","html-keyboard-response","286","2805036","0.0-6.0-14.14","26","<p><img class= 'stimulus' src='images/target/lone-tree-1934897_640.jpg'></img></p>","null","","1550698229450","14","","","","","",""
"null","","html-keyboard-response","287","2805136","0.0-6.0-15.14","26","<p><img class= 'stimulus' src='images/baseline/building6.jpg'></img></p>","null","","1550698229549","","","","","","",""
"null","","html-keyboard-response","288","2805237","0.0-6.0-16.14","26","<p><img class= 'stimulus' src='images/baseline/05264v.jpg'></img></p>","null","","1550698229649","","","","","","",""
"null","","html-keyboard-response","289","2805352","0.0-6.0-17.14","26","<p><img class= 'stimulus' src='images/baseline/flooded-bridge.jpg'></img></p>","null","","1550698229749","","","","","","",""
"1911.9000000059605","","html-button-response","290","2808267","0.0-6.0-18.14","26","<div class = ""response_question"">WAS THE IMAGE ROTATED...</div>","","4","","","6","8","bas","right","practice","true"
"1110.09999999078","","html-button-response","291","2809378","0.0-6.0-0.15","26","","","0","","","","","","","",""
"null","","html-keyboard-response","292","2809453","0.0-6.0-1.15","26","<p><img class= 'stimulus' src='images/baseline/Linden,_paysage.jpg'></img></p>","null","","1550698233866","","","","","","",""
"null","","html-keyboard-response","293","2809553","0.0-6.0-2.15","26","<p><img class= 'stimulus' src='images/baseline/pexels-photo-221125.jpeg'></img></p>","null","","1550698233966","","","","","","",""
"null","","html-keyboard-response","294","2809653","0.0-6.0-3.15","26","<p><img class= 'stimulus' src='images/baseline/sunset-over-the-lake.jpg'></img></p>","null","","1550698234067","","","","","","",""
"null","","html-keyboard-response","295","2809754","0.0-6.0-4.15","26","<p><img class= 'stimulus' src='images/baseline/building16.jpg'></img></p>","null","","1550698234168","4","","","","","",""
"null","","html-keyboard-response","296","2809854","0.0-6.0-5.15","26","<p><img class= 'stimulus' src='images/baseline/house10.jpg'></img></p>","null","","1550698234268","","","","","","",""
"null","","html-keyboard-response","297","2809953","0.0-6.0-6.15","26","<p><img class= 'stimulus' src='images/baseline/house2.jpg'></img></p>","null","","1550698234366","6","","","","","",""
"null","","html-keyboard-response","298","2810052","0.0-6.0-7.15","26","<p><img class= 'stimulus' src='images/baseline/05198v.jpg'></img></p>","null","","1550698234466","","","","","","",""
"null","","html-keyboard-response","299","2810153","0.0-6.0-8.15","26","<p><img class= 'stimulus' src='images/baseline/03045v.jpg'></img></p>","null","","1550698234567","8","","","","","",""
"null","","html-keyboard-response","300","2810254","0.0-6.0-9.15","26","<p><img class= 'stimulus' src='images/baseline/grand-teton-mountains.jpg'></img></p>","null","","1550698234667","","","","","","",""
"null","","html-keyboard-response","301","2810353","0.0-6.0-10.15","26","<p><img class= 'stimulus' src='images/baseline/pexels-photo-808465.jpeg'></img></p>","null","","1550698234766","","","","","","",""
"null","","html-keyboard-response","302","2810453","0.0-6.0-11.15","26","<p><img class= 'stimulus' src='images/baseline/03180v.jpg'></img></p>","null","","1550698234868","","","","","","",""
"null","","html-keyboard-response","303","2810553","0.0-6.0-12.15","26","<p><img class= 'stimulus' src='images/target/9525-a-lonely-single-tree-in-a-field-pv.jpg'></img></p>","null","","1550698234966","12","","","","","",""
"null","","html-keyboard-response","304","2810652","0.0-6.0-13.15","26","<p><img class= 'stimulus' src='images/baseline/04300v.jpg'></img></p>","null","","1550698235067","","","","","","",""
"null","","html-keyboard-response","305","2810753","0.0-6.0-14.15","26","<p><img class= 'stimulus' src='images/baseline/landscape16.jpg'></img></p>","null","","1550698235166","14","","","","","",""
"null","","html-keyboard-response","306","2810855","0.0-6.0-15.15","26","<p><img class= 'stimulus' src='images/baseline/farmhouse6.jpg'></img></p>","null","","1550698235268","","","","","","",""
"null","","html-keyboard-response","307","2810954","0.0-6.0-16.15","26","<p><img class= 'stimulus' src='images/baseline/farmhouse3.jpg'></img></p>","null","","1550698235367","","","","","","",""
"null","","html-keyboard-response","308","2811070","0.0-6.0-17.15","26","<p><img class= 'stimulus' src='images/baseline/04086v.jpg'></img></p>","null","","1550698235467","","","","","","",""
"713.7999999979511","","html-button-response","309","2812792","0.0-6.0-18.15","26","<div class = ""response_question"">WAS THE IMAGE ROTATED...</div>","","3","","","4","8","bas","right","practice","true"
"41982.39999997895","","html-button-response","310","2854775","0.0-7.0","26","<p>You have now completed the practice phase. We will now begin the real trials.         This is a reminder that you will be searching for a rotated image among the series of upright images.</p>         <p>Remember, please do not blink or move your eyes while the images are on the screen.</p>         <p>At the end of the experiment, the experimenter will be able to show you how accurate you were.</p>","","0","","","","","","","",""
"2654.7999999891035","","html-button-response","311","2857431","0.0-8.0-0.0-0.0","26","","","0","","","","","","","",""
"null","","html-keyboard-response","312","2857509","0.0-8.0-0.0-1.0","26","<p><img class= 'stimulus' src='images/baseline/landscape22.jpg'></img></p>","null","","1550698281921","","","","","","",""
"null","","html-keyboard-response","313","2857607","0.0-8.0-0.0-2.0","26","<p><img class= 'stimulus' src='images/baseline/Nature 2.jpg'></img></p>","null","","1550698282021","","","","","","",""
"null","","html-keyboard-response","314","2857709","0.0-8.0-0.0-3.0","26","<p><img class= 'stimulus' src='images/baseline/02960v.jpg'></img></p>","null","","1550698282122","","","","","","",""
"null","","html-keyboard-response","315","2857808","0.0-8.0-0.0-4.0","26","<p><img class= 'stimulus' src='images/neutral/Crow 1.jpg'></img></p>","null","","1550698282222","4","","","","","",""
"null","","html-keyboard-response","316","2857907","0.0-8.0-0.0-5.0","26","<p><img class= 'stimulus' src='images/baseline/05139v.jpg'></img></p>","null","","1550698282321","","","","","","",""
"null","","html-keyboard-response","317","2858007","0.0-8.0-0.0-6.0","26","<p><img class= 'stimulus' src='images/target/shotstash_0036-1-1100x734.jpg'></img></p>","null","","1550698282421","6","","","","","",""
"null","","html-keyboard-response","318","2858107","0.0-8.0-0.0-7.0","26","<p><img class= 'stimulus' src='images/baseline/05189v.jpg'></img></p>","null","","1550698282521","","","","","","",""
"null","","html-keyboard-response","319","2858208","0.0-8.0-0.0-8.0","26","<p><img class= 'stimulus' src='images/baseline/hills 4.jpg'></img></p>","null","","1550698282621","8","","","","","",""
"null","","html-keyboard-response","320","2858309","0.0-8.0-0.0-9.0","26","<p><img class= 'stimulus' src='images/baseline/house8.jpg'></img></p>","null","","1550698282721","","","","","","",""
"null","","html-keyboard-response","321","2858408","0.0-8.0-0.0-10.0","26","<p><img class= 'stimulus' src='images/baseline/05167v.jpg'></img></p>","null","","1550698282821","","","","","","",""
"null","","html-keyboard-response","322","2858508","0.0-8.0-0.0-11.0","26","<p><img class= 'stimulus' src='images/baseline/Linden,_paysage.jpg'></img></p>","null","","1550698282921","","","","","","",""
"null","","html-keyboard-response","323","2858609","0.0-8.0-0.0-12.0","26","<p><img class= 'stimulus' src='images/baseline/05179v.jpg'></img></p>","null","","1550698283023","12","","","","","",""
"null","","html-keyboard-response","324","2858708","0.0-8.0-0.0-13.0","26","<p><img class= 'stimulus' src='images/baseline/Lake 13.jpg'></img></p>","null","","1550698283121","","","","","","",""
"null","","html-keyboard-response","325","2858808","0.0-8.0-0.0-14.0","26","<p><img class= 'stimulus' src='images/baseline/05264v.jpg'></img></p>","null","","1550698283221","14","","","","","",""
"null","","html-keyboard-response","326","2858908","0.0-8.0-0.0-15.0","26","<p><img class= 'stimulus' src='images/baseline/building9.jpg'></img></p>","null","","1550698283321","","","","","","",""
"null","","html-keyboard-response","327","2859008","0.0-8.0-0.0-16.0","26","<p><img class= 'stimulus' src='images/baseline/04040v.jpg'></img></p>","null","","1550698283422","","","","","","",""
"null","","html-keyboard-response","328","2859125","0.0-8.0-0.0-17.0","26","<p><img class= 'stimulus' src='images/baseline/Niinsaare_jarv.jpg'></img></p>","null","","1550698283521","","","","","","",""
"1383.799999981653","","html-button-response","329","2861511","0.0-8.0-0.0-18.0","26","<div class = ""response_question"">WAS THE IMAGE ROTATED...</div>","","4","","","4","2","neu","right","test","true"
"1558.299999974668","","html-button-response","330","2863071","0.0-8.0-0.0-0.1","26","","","0","","","","","","","",""
"null","","html-keyboard-response","331","2863159","0.0-8.0-0.0-1.1","26","<p><img class= 'stimulus' src='images/baseline/landscape17.jpg'></img></p>","null","","1550698287572","","","","","","",""
"null","","html-keyboard-response","332","2863259","0.0-8.0-0.0-2.1","26","<p><img class= 'stimulus' src='images/baseline/Aletschgletscher-Eggishorn.jpg'></img></p>","null","","1550698287671","","","","","","",""
"null","","html-keyboard-response","333","2863359","0.0-8.0-0.0-3.1","26","<p><img class= 'stimulus' src='images/baseline/05198v.jpg'></img></p>","null","","1550698287771","","","","","","",""
"null","","html-keyboard-response","334","2863459","0.0-8.0-0.0-4.1","26","<p><img class= 'stimulus' src='images/baseline/Freudenberg_sg_Switzerland.jpg'></img></p>","null","","1550698287873","4","","","","","",""
"null","","html-keyboard-response","335","2863559","0.0-8.0-0.0-5.1","26","<p><img class= 'stimulus' src='images/baseline/04196v.jpg'></img></p>","null","","1550698287971","","","","","","",""
"null","","html-keyboard-response","336","2863659","0.0-8.0-0.0-6.1","26","<p><img class= 'stimulus' src='images/baseline/building6.jpg'></img></p>","null","","1550698288073","6","","","","","",""
"null","","html-keyboard-response","337","2863757","0.0-8.0-0.0-7.1","26","<p><img class= 'stimulus' src='images/baseline/cyrillic.jpg'></img></p>","null","","1550698288172","","","","","","",""
"null","","html-keyboard-response","338","2863859","0.0-8.0-0.0-8.1","26","<p><img class= 'stimulus' src='images/baseline/field 4.jpg'></img></p>","null","","1550698288271","8","","","","","",""
"null","","html-keyboard-response","339","2863959","0.0-8.0-0.0-9.1","26","<p><img class= 'stimulus' src='images/baseline/04062v.jpg'></img></p>","null","","1550698288372","","","","","","",""
"null","","html-keyboard-response","340","2864058","0.0-8.0-0.0-10.1","26","<p><img class= 'stimulus' src='images/baseline/road.jpg'></img></p>","null","","1550698288471","","","","","","",""
"null","","html-keyboard-response","341","2864159","0.0-8.0-0.0-11.1","26","<p><img class= 'stimulus' src='images/baseline/Bahia_Onelli_Parque_Nacional_Los_Glaciares_Patagonia_Argentina_Luca_Galuzzi_2005.jpg'></img></p>","null","","1550698288571","","","","","","",""
"null","","html-keyboard-response","342","2864258","0.0-8.0-0.0-12.1","26","<p><img class= 'stimulus' src='images/baseline/river 1.jpg'></img></p>","null","","1550698288672","12","","","","","",""
"null","","html-keyboard-response","343","2864358","0.0-8.0-0.0-13.1","26","<p><img class= 'stimulus' src='images/baseline/valley 2.jpg'></img></p>","null","","1550698288772","","","","","","",""
"null","","html-keyboard-response","344","2864459","0.0-8.0-0.0-14.1","26","<p><img class= 'stimulus' src='images/baseline/Skyscraper 2.jpg'></img></p>","null","","1550698288872","14","","","","","",""
"null","","html-keyboard-response","345","2864558","0.0-8.0-0.0-15.1","26","<p><img class= 'stimulus' src='images/baseline/sunset-over-the-lake.jpg'></img></p>","null","","1550698288972","","","","","","",""
"null","","html-keyboard-response","346","2864657","0.0-8.0-0.0-16.1","26","<p><img class= 'stimulus' src='images/baseline/architecture-956332_1280.jpg'></img></p>","null","","1550698289071","","","","","","",""
"null","","html-keyboard-response","347","2864775","0.0-8.0-0.0-17.1","26","<p><img class= 'stimulus' src='images/baseline/02971v.jpg'></img></p>","null","","1550698289171","","","","","","",""
"1731.900000013411","","html-button-response","348","2867511","0.0-8.0-0.0-18.1","26","<div class = ""response_question"">WAS THE IMAGE ROTATED...</div>","","2","","","null","null","null","null","test","null"
"4358.600000006612","","html-button-response","349","2871871","0.0-8.0-0.0-0.2","26","","","0","","","","","","","",""
"null","","html-keyboard-response","350","2871958","0.0-8.0-0.0-1.2","26","<p><img class= 'stimulus' src='images/baseline/landscape23.jpg'></img></p>","null","","1550698296372","","","","","","",""
"null","","html-keyboard-response","351","2872058","0.0-8.0-0.0-2.2","26","<p><img class= 'stimulus' src='images/baseline/pexels-photo-1261728.jpeg'></img></p>","null","","1550698296471","","","","","","",""
"null","","html-keyboard-response","352","2872159","0.0-8.0-0.0-3.2","26","<p><img class= 'stimulus' src='images/baseline/building4.jpg'></img></p>","null","","1550698296572","","","","","","",""
"null","","html-keyboard-response","353","2872258","0.0-8.0-0.0-4.2","26","<p><img class= 'stimulus' src='images/negative/Ferret 1.jpg'></img></p>","null","","1550698296672","4","","","","","",""
"null","","html-keyboard-response","354","2872359","0.0-8.0-0.0-5.2","26","<p><img class= 'stimulus' src='images/baseline/house7.jpg'></img></p>","null","","1550698296771","","","","","","",""
"null","","html-keyboard-response","355","2872457","0.0-8.0-0.0-6.2","26","<p><img class= 'stimulus' src='images/baseline/03148v.jpg'></img></p>","null","","1550698296872","6","","","","","",""
"null","","html-keyboard-response","356","2872558","0.0-8.0-0.0-7.2","26","<p><img class= 'stimulus' src='images/baseline/03063v.jpg'></img></p>","null","","1550698296971","","","","","","",""
"null","","html-keyboard-response","357","2872658","0.0-8.0-0.0-8.2","26","<p><img class= 'stimulus' src='images/baseline/lookout_tower.jpg'></img></p>","null","","1550698297071","8","","","","","",""
"null","","html-keyboard-response","358","2872768","0.0-8.0-0.0-9.2","26","<p><img class= 'stimulus' src='images/baseline/landscape1.jpg'></img></p>","null","","1550698297171","","","","","","",""
"null","","html-keyboard-response","359","2872867","0.0-8.0-0.0-10.2","26","<p><img class= 'stimulus' src='images/baseline/field 2.jpg'></img></p>","null","","1550698297281","","","","","","",""
"null","","html-keyboard-response","360","2872967","0.0-8.0-0.0-11.2","26","<p><img class= 'stimulus' src='images/baseline/03220v.jpg'></img></p>","null","","1550698297381","","","","","","",""
"null","","html-keyboard-response","361","2873067","0.0-8.0-0.0-12.2","26","<p><img class= 'stimulus left-rotate' src='images/target/pexels-photo-602607.jpeg'></img></p>","null","","1550698297480","12","","","","","",""
"null","","html-keyboard-response","362","2873168","0.0-8.0-0.0-13.2","26","<p><img class= 'stimulus' src='images/baseline/landscape35.jpg'></img></p>","null","","1550698297582","","","","","","",""
"null","","html-keyboard-response","363","2873267","0.0-8.0-0.0-14.2","26","<p><img class= 'stimulus' src='images/baseline/tennis-court-net-buried-in-snow.jpg'></img></p>","null","","1550698297680","14","","","","","",""
"null","","html-keyboard-response","364","2873366","0.0-8.0-0.0-15.2","26","<p><img class= 'stimulus' src='images/baseline/landscape36.jpg'></img></p>","null","","1550698297780","","","","","","",""
"null","","html-keyboard-response","365","2873468","0.0-8.0-0.0-16.2","26","<p><img class= 'stimulus' src='images/baseline/horse_statue.jpg'></img></p>","null","","1550698297881","","","","","","",""
"null","","html-keyboard-response","366","2873583","0.0-8.0-0.0-17.2","26","<p><img class= 'stimulus' src='images/baseline/Desert_View_Indian_Wells.jpg'></img></p>","null","","1550698297981","","","","","","",""
"677.2999999811873","","html-button-response","367","2875264","0.0-8.0-0.0-18.2","26","<div class = ""response_question"">WAS THE IMAGE ROTATED...</div>","","1","","","4","8","neg","left","test","true"
"590.5999999959022","","html-button-response","368","2875857","0.0-8.0-0.0-0.3","26","","","0","","","","","","","",""
"null","","html-keyboard-response","369","2875935","0.0-8.0-0.0-1.3","26","<p><img class= 'stimulus' src='images/baseline/sunny-landscape-with-dry-brush-and-mountain-background.jpg'></img></p>","null","","1550698300348","","","","","","",""
"null","","html-keyboard-response","370","2876034","0.0-8.0-0.0-2.3","26","<p><img class= 'stimulus' src='images/baseline/Dock 1.jpg'></img></p>","null","","1550698300448","","","","","","",""
"null","","html-keyboard-response","371","2876134","0.0-8.0-0.0-3.3","26","<p><img class= 'stimulus' src='images/baseline/building3.jpg'></img></p>","null","","1550698300548","","","","","","",""
"null","","html-keyboard-response","372","2876234","0.0-8.0-0.0-4.3","26","<p><img class= 'stimulus' src='images/neutral/Picnic 2.jpg'></img></p>","null","","1550698300646","4","","","","","",""
"null","","html-keyboard-response","373","2876334","0.0-8.0-0.0-5.3","26","<p><img class= 'stimulus' src='images/baseline/landscape37.jpg'></img></p>","null","","1550698300747","","","","","","",""
"null","","html-keyboard-response","374","2876434","0.0-8.0-0.0-6.3","26","<p><img class= 'stimulus' src='images/baseline/Road 1.jpg'></img></p>","null","","1550698300848","6","","","","","",""
"null","","html-keyboard-response","375","2876534","0.0-8.0-0.0-7.3","26","<p><img class= 'stimulus' src='images/baseline/05247v.jpg'></img></p>","null","","1550698300947","","","","","","",""
"null","","html-keyboard-response","376","2876634","0.0-8.0-0.0-8.3","26","<p><img class= 'stimulus' src='images/baseline/snowy tree.jpg'></img></p>","null","","1550698301047","8","","","","","",""
"null","","html-keyboard-response","377","2876734","0.0-8.0-0.0-9.3","26","<p><img class= 'stimulus' src='images/baseline/05279v.jpg'></img></p>","null","","1550698301148","","","","","","",""
"null","","html-keyboard-response","378","2876834","0.0-8.0-0.0-10.3","26","<p><img class= 'stimulus' src='images/baseline/04162v.jpg'></img></p>","null","","1550698301248","","","","","","",""
"null","","html-keyboard-response","379","2876933","0.0-8.0-0.0-11.3","26","<p><img class= 'stimulus' src='images/baseline/house1.jpg'></img></p>","null","","1550698301347","","","","","","",""
"null","","html-keyboard-response","380","2877034","0.0-8.0-0.0-12.3","26","<p><img class= 'stimulus' src='images/target/1937-single-tree-at-the-top-of-stone-mountain-pv.jpg'></img></p>","null","","1550698301447","12","","","","","",""
"null","","html-keyboard-response","381","2877133","0.0-8.0-0.0-13.3","26","<p><img class= 'stimulus' src='images/baseline/city-silhouette-at-sunset-871291580819Esw.jpg'></img></p>","null","","1550698301547","","","","","","",""
"null","","html-keyboard-response","382","2877233","0.0-8.0-0.0-14.3","26","<p><img class= 'stimulus' src='images/baseline/02982v.jpg'></img></p>","null","","1550698301647","14","","","","","",""
"null","","html-keyboard-response","383","2877334","0.0-8.0-0.0-15.3","26","<p><img class= 'stimulus' src='images/baseline/seoul-410266_1920.jpg'></img></p>","null","","1550698301747","","","","","","",""
"null","","html-keyboard-response","384","2877434","0.0-8.0-0.0-16.3","26","<p><img class= 'stimulus' src='images/baseline/pexels-photo-427676.jpeg'></img></p>","null","","1550698301848","","","","","","",""
"null","","html-keyboard-response","385","2877551","0.0-8.0-0.0-17.3","26","<p><img class= 'stimulus' src='images/baseline/03056v.jpg'></img></p>","null","","1550698301948","","","","","","",""
"454.20000000763685","","html-button-response","386","2879008","0.0-8.0-0.0-18.3","26","<div class = ""response_question"">WAS THE IMAGE ROTATED...</div>","","4","","","4","8","neu","right","test","true"
"2782.1999999871477","","html-button-response","387","2881792","0.0-8.0-0.0-0.4","26","","","0","","","","","","","",""
"null","","html-keyboard-response","388","2881868","0.0-8.0-0.0-1.4","26","<p><img class= 'stimulus' src='images/baseline/Skyscraper 1.jpg'></img></p>","null","","1550698306280","","","","","","",""
"null","","html-keyboard-response","389","2881967","0.0-8.0-0.0-2.4","26","<p><img class= 'stimulus' src='images/baseline/pexels-photo-440731.jpeg'></img></p>","null","","1550698306381","","","","","","",""
"null","","html-keyboard-response","390","2882068","0.0-8.0-0.0-3.4","26","<p><img class= 'stimulus' src='images/baseline/04098v.jpg'></img></p>","null","","1550698306481","","","","","","",""
"null","","html-keyboard-response","391","2882168","0.0-8.0-0.0-4.4","26","<p><img class= 'stimulus' src='images/negative/Bloody knife 1.jpg'></img></p>","null","","1550698306581","4","","","","","",""
"null","","html-keyboard-response","392","2882267","0.0-8.0-0.0-5.4","26","<p><img class= 'stimulus' src='images/baseline/sun-through-winter-tree-branches1.jpg'></img></p>","null","","1550698306681","","","","","","",""
"null","","html-keyboard-response","393","2882368","0.0-8.0-0.0-6.4","26","<p><img class= 'stimulus' src='images/baseline/pexels-photo-351264.jpeg'></img></p>","null","","1550698306781","6","","","","","",""
"null","","html-keyboard-response","394","2882468","0.0-8.0-0.0-7.4","26","<p><img class= 'stimulus' src='images/baseline/landscape19.jpg'></img></p>","null","","1550698306881","","","","","","",""
"null","","html-keyboard-response","395","2882567","0.0-8.0-0.0-8.4","26","<p><img class= 'stimulus' src='images/baseline/landscape29.jpg'></img></p>","null","","1550698306982","8","","","","","",""
"null","","html-keyboard-response","396","2882667","0.0-8.0-0.0-9.4","26","<p><img class= 'stimulus' src='images/baseline/Lake 4.jpg'></img></p>","null","","1550698307080","","","","","","",""
"null","","html-keyboard-response","397","2882768","0.0-8.0-0.0-10.4","26","<p><img class= 'stimulus' src='images/baseline/lake3.jpg'></img></p>","null","","1550698307180","","","","","","",""
"null","","html-keyboard-response","398","2882867","0.0-8.0-0.0-11.4","26","<p><img class= 'stimulus' src='images/baseline/landscape34.jpg'></img></p>","null","","1550698307281","","","","","","",""
"null","","html-keyboard-response","399","2882968","0.0-8.0-0.0-12.4","26","<p><img class= 'stimulus' src='images/target/beach1.jpeg'></img></p>","null","","1550698307380","12","","","","","",""
"null","","html-keyboard-response","400","2883067","0.0-8.0-0.0-13.4","26","<p><img class= 'stimulus' src='images/baseline/03041v.jpg'></img></p>","null","","1550698307481","","","","","","",""
"null","","html-keyboard-response","401","2883167","0.0-8.0-0.0-14.4","26","<p><img class= 'stimulus' src='images/baseline/Beach 2.jpg'></img></p>","null","","1550698307580","14","","","","","",""
"null","","html-keyboard-response","402","2883267","0.0-8.0-0.0-15.4","26","<p><img class= 'stimulus' src='images/baseline/pexels-photo-210617.jpeg'></img></p>","null","","1550698307680","","","","","","",""
"null","","html-keyboard-response","403","2883367","0.0-8.0-0.0-16.4","26","<p><img class= 'stimulus' src='images/baseline/Lake 15.jpg'></img></p>","null","","1550698307780","","","","","","",""
"null","","html-keyboard-response","404","2883483","0.0-8.0-0.0-17.4","26","<p><img class= 'stimulus' src='images/baseline/04085v.jpg'></img></p>","null","","1550698307882","","","","","","",""
"777.3000000161119","","html-button-response","405","2885264","0.0-8.0-0.0-18.4","26","<div class = ""response_question"">WAS THE IMAGE ROTATED...</div>","","4","","","4","8","neg","right","test","true"
"878.4999999916181","","html-button-response","406","2886144","0.0-8.0-0.0-0.5","26","","","0","","","","","","","",""
"null","","html-keyboard-response","407","2886217","0.0-8.0-0.0-1.5","26","<p><img class= 'stimulus' src='images/baseline/red rocks from afar.jpg'></img></p>","null","","1550698310631","","","","","","",""
"null","","html-keyboard-response","408","2886317","0.0-8.0-0.0-2.5","26","<p><img class= 'stimulus' src='images/baseline/04014v.jpg'></img></p>","null","","1550698310731","","","","","","",""
"null","","html-keyboard-response","409","2886418","0.0-8.0-0.0-3.5","26","<p><img class= 'stimulus' src='images/baseline/Happy pose 3.jpg'></img></p>","null","","1550698310832","","","","","","",""
"null","","html-keyboard-response","410","2886517","0.0-8.0-0.0-4.5","26","<p><img class= 'stimulus' src='images/negative/Snake 1.jpg'></img></p>","null","","1550698310931","4","","","","","",""
"null","","html-keyboard-response","411","2886617","0.0-8.0-0.0-5.5","26","<p><img class= 'stimulus' src='images/baseline/04300v.jpg'></img></p>","null","","1550698311031","","","","","","",""
"null","","html-keyboard-response","412","2886717","0.0-8.0-0.0-6.5","26","<p><img class= 'stimulus' src='images/baseline/lake 2.jpg'></img></p>","null","","1550698311132","6","","","","","",""
"null","","html-keyboard-response","413","2886817","0.0-8.0-0.0-7.5","26","<p><img class= 'stimulus' src='images/baseline/farmhouse8.jpg'></img></p>","null","","1550698311231","","","","","","",""
"null","","html-keyboard-response","414","2886918","0.0-8.0-0.0-8.5","26","<p><img class= 'stimulus' src='images/baseline/03075v.jpg'></img></p>","null","","1550698311331","8","","","","","",""
"null","","html-keyboard-response","415","2887017","0.0-8.0-0.0-9.5","26","<p><img class= 'stimulus' src='images/baseline/Street 3.jpg'></img></p>","null","","1550698311431","","","","","","",""
"null","","html-keyboard-response","416","2887117","0.0-8.0-0.0-10.5","26","<p><img class= 'stimulus' src='images/baseline/03212v.jpg'></img></p>","null","","1550698311531","","","","","","",""
"null","","html-keyboard-response","417","2887218","0.0-8.0-0.0-11.5","26","<p><img class= 'stimulus' src='images/baseline/church-silhouette-8712964986014Kb.jpg'></img></p>","null","","1550698311630","","","","","","",""
"null","","html-keyboard-response","418","2887317","0.0-8.0-0.0-12.5","26","<p><img class= 'stimulus left-rotate' src='images/target/tree.jpeg'></img></p>","null","","1550698311732","12","","","","","",""
"null","","html-keyboard-response","419","2887417","0.0-8.0-0.0-13.5","26","<p><img class= 'stimulus' src='images/baseline/03162v.jpg'></img></p>","null","","1550698311832","","","","","","",""
"null","","html-keyboard-response","420","2887518","0.0-8.0-0.0-14.5","26","<p><img class= 'stimulus' src='images/baseline/4k-wallpaper-agriculture-clouds-842711.jpg'></img></p>","null","","1550698311932","14","","","","","",""
"null","","html-keyboard-response","421","2887618","0.0-8.0-0.0-15.5","26","<p><img class= 'stimulus' src='images/baseline/landscape7.jpg'></img></p>","null","","1550698312032","","","","","","",""
"null","","html-keyboard-response","422","2887717","0.0-8.0-0.0-16.5","26","<p><img class= 'stimulus' src='images/baseline/03045v.jpg'></img></p>","null","","1550698312131","","","","","","",""
"null","","html-keyboard-response","423","2887833","0.0-8.0-0.0-17.5","26","<p><img class= 'stimulus' src='images/baseline/Sky 1.jpg'></img></p>","null","","1550698312232","","","","","","",""
"803.8999999989755","","html-button-response","424","2889640","0.0-8.0-0.0-18.5","26","<div class = ""response_question"">WAS THE IMAGE ROTATED...</div>","","2","","","4","8","neg","left","test","false"
"710.3000000058673","","html-button-response","425","2890352","0.0-8.0-0.0-0.6","26","","","0","","","","","","","",""
"null","","html-keyboard-response","426","2890434","0.0-8.0-0.0-1.6","26","<p><img class= 'stimulus' src='images/baseline/architecture_modern_architecture_852928.jpg'></img></p>","null","","1550698314849","","","","","","",""
"null","","html-keyboard-response","427","2890534","0.0-8.0-0.0-2.6","26","<p><img class= 'stimulus' src='images/baseline/field 1.jpg'></img></p>","null","","1550698314947","","","","","","",""
"null","","html-keyboard-response","428","2890634","0.0-8.0-0.0-3.6","26","<p><img class= 'stimulus' src='images/baseline/04193v.jpg'></img></p>","null","","1550698315047","","","","","","",""
"null","","html-keyboard-response","429","2890734","0.0-8.0-0.0-4.6","26","<p><img class= 'stimulus' src='images/baseline/architecture-1314416_1920.jpg'></img></p>","null","","1550698315148","4","","","","","",""
"null","","html-keyboard-response","430","2890833","0.0-8.0-0.0-5.6","26","<p><img class= 'stimulus' src='images/baseline/pexels-photo-568236.jpeg'></img></p>","null","","1550698315248","","","","","","",""
"null","","html-keyboard-response","431","2890934","0.0-8.0-0.0-6.6","26","<p><img class= 'stimulus' src='images/baseline/grand-teton-mountains.jpg'></img></p>","null","","1550698315347","6","","","","","",""
"null","","html-keyboard-response","432","2891033","0.0-8.0-0.0-7.6","26","<p><img class= 'stimulus' src='images/baseline/02945v.jpg'></img></p>","null","","1550698315447","","","","","","",""
"null","","html-keyboard-response","433","2891134","0.0-8.0-0.0-8.6","26","<p><img class= 'stimulus' src='images/target/specphotops-563427-unsplash.jpg'></img></p>","null","","1550698315547","8","","","","","",""
"null","","html-keyboard-response","434","2891234","0.0-8.0-0.0-9.6","26","<p><img class= 'stimulus' src='images/baseline/05131v.jpg'></img></p>","null","","1550698315647","","","","","","",""
"null","","html-keyboard-response","435","2891335","0.0-8.0-0.0-10.6","26","<p><img class= 'stimulus' src='images/baseline/05158v.jpg'></img></p>","null","","1550698315747","","","","","","",""
"null","","html-keyboard-response","436","2891434","0.0-8.0-0.0-11.6","26","<p><img class= 'stimulus' src='images/baseline/Street 2.jpg'></img></p>","null","","1550698315847","","","","","","",""
"null","","html-keyboard-response","437","2891534","0.0-8.0-0.0-12.6","26","<p><img class= 'stimulus' src='images/baseline/building5.jpg'></img></p>","null","","1550698315948","12","","","","","",""
"null","","html-keyboard-response","438","2891633","0.0-8.0-0.0-13.6","26","<p><img class= 'stimulus' src='images/baseline/empire-state-building.jpg'></img></p>","null","","1550698316048","","","","","","",""
"null","","html-keyboard-response","439","2891734","0.0-8.0-0.0-14.6","26","<p><img class= 'stimulus' src='images/baseline/Sidewalk 4.jpg'></img></p>","null","","1550698316148","14","","","","","",""
"null","","html-keyboard-response","440","2891834","0.0-8.0-0.0-15.6","26","<p><img class= 'stimulus' src='images/baseline/landscape3.jpg'></img></p>","null","","1550698316247","","","","","","",""
"null","","html-keyboard-response","441","2891934","0.0-8.0-0.0-16.6","26","<p><img class= 'stimulus' src='images/baseline/landscape33.jpg'></img></p>","null","","1550698316347","","","","","","",""
"null","","html-keyboard-response","442","2892050","0.0-8.0-0.0-17.6","26","<p><img class= 'stimulus' src='images/baseline/autumn-in-red-rocks-park.jpg'></img></p>","null","","1550698316448","","","","","","",""
"658.4999999902211","","html-button-response","443","2893713","0.0-8.0-0.0-18.6","26","<div class = ""response_question"">WAS THE IMAGE ROTATED...</div>","","4","","","6","2","bas","right","test","true"
"766.1000000080094","","html-button-response","444","2894480","0.0-8.0-0.0-0.7","26","","","0","","","","","","","",""
"null","","html-keyboard-response","445","2894567","0.0-8.0-0.0-1.7","26","<p><img class= 'stimulus' src='images/baseline/geese-flying-over-lake-at-dusk.jpg'></img></p>","null","","1550698318981","","","","","","",""
"null","","html-keyboard-response","446","2894668","0.0-8.0-0.0-2.7","26","<p><img class= 'stimulus' src='images/baseline/04130v.jpg'></img></p>","null","","1550698319082","","","","","","",""
"null","","html-keyboard-response","447","2894768","0.0-8.0-0.0-3.7","26","<p><img class= 'stimulus' src='images/baseline/kokkari-1523011968Xfr.jpg'></img></p>","null","","1550698319180","","","","","","",""
"null","","html-keyboard-response","448","2894867","0.0-8.0-0.0-4.7","26","<p><img class= 'stimulus' src='images/baseline/landscape31.jpg'></img></p>","null","","1550698319282","4","","","","","",""
"null","","html-keyboard-response","449","2894967","0.0-8.0-0.0-5.7","26","<p><img class= 'stimulus' src='images/baseline/landscape40.jpg'></img></p>","null","","1550698319381","","","","","","",""
"null","","html-keyboard-response","450","2895068","0.0-8.0-0.0-6.7","26","<p><img class= 'stimulus' src='images/negative/Shark 10.jpg'></img></p>","null","","1550698319481","6","","","","","",""
"null","","html-keyboard-response","451","2895167","0.0-8.0-0.0-7.7","26","<p><img class= 'stimulus' src='images/baseline/pexels-photo-534164.jpeg'></img></p>","null","","1550698319581","","","","","","",""
"null","","html-keyboard-response","452","2895268","0.0-8.0-0.0-8.7","26","<p><img class= 'stimulus' src='images/target/pexels-photo-1123982.jpeg'></img></p>","null","","1550698319682","8","","","","","",""
"null","","html-keyboard-response","453","2895368","0.0-8.0-0.0-9.7","26","<p><img class= 'stimulus' src='images/baseline/Lake 14.jpg'></img></p>","null","","1550698319781","","","","","","",""
"null","","html-keyboard-response","454","2895467","0.0-8.0-0.0-10.7","26","<p><img class= 'stimulus' src='images/baseline/04158v.jpg'></img></p>","null","","1550698319882","","","","","","",""
"null","","html-keyboard-response","455","2895567","0.0-8.0-0.0-11.7","26","<p><img class= 'stimulus' src='images/baseline/pexels-photo-808465.jpeg'></img></p>","null","","1550698319980","","","","","","",""
"null","","html-keyboard-response","456","2895668","0.0-8.0-0.0-12.7","26","<p><img class= 'stimulus' src='images/baseline/Beach 3.jpg'></img></p>","null","","1550698320082","12","","","","","",""
"null","","html-keyboard-response","457","2895768","0.0-8.0-0.0-13.7","26","<p><img class= 'stimulus' src='images/baseline/Lake 3.jpg'></img></p>","null","","1550698320180","","","","","","",""
"null","","html-keyboard-response","458","2895867","0.0-8.0-0.0-14.7","26","<p><img class= 'stimulus' src='images/baseline/building8.jpg'></img></p>","null","","1550698320281","14","","","","","",""
"null","","html-keyboard-response","459","2895968","0.0-8.0-0.0-15.7","26","<p><img class= 'stimulus' src='images/baseline/pexels-photo-894312.jpeg'></img></p>","null","","1550698320381","","","","","","",""
"null","","html-keyboard-response","460","2896068","0.0-8.0-0.0-16.7","26","<p><img class= 'stimulus' src='images/baseline/red-rocks-park.jpg'></img></p>","null","","1550698320481","","","","","","",""
"null","","html-keyboard-response","461","2896184","0.0-8.0-0.0-17.7","26","<p><img class= 'stimulus' src='images/baseline/house11.jpg'></img></p>","null","","1550698320581","","","","","","",""
"829.5000000214204","","html-button-response","462","2898017","0.0-8.0-0.0-18.7","26","<div class = ""response_question"">WAS THE IMAGE ROTATED...</div>","","2","","","6","2","neg","right","test","false"
"2549.999999987893","","html-button-response","463","2900568","0.0-8.0-0.0-0.8","26","","","0","","","","","","","",""
"null","","html-keyboard-response","464","2900650","0.0-8.0-0.0-1.8","26","<p><img class= 'stimulus' src='images/baseline/landscape6.jpg'></img></p>","null","","1550698325064","","","","","","",""
"null","","html-keyboard-response","465","2900751","0.0-8.0-0.0-2.8","26","<p><img class= 'stimulus' src='images/baseline/04064v.jpg'></img></p>","null","","1550698325164","","","","","","",""
"null","","html-keyboard-response","466","2900850","0.0-8.0-0.0-3.8","26","<p><img class= 'stimulus' src='images/baseline/04060v.jpg'></img></p>","null","","1550698325266","","","","","","",""
"null","","html-keyboard-response","467","2900951","0.0-8.0-0.0-4.8","26","<p><img class= 'stimulus' src='images/baseline/bird-flying-at-sunset.jpg'></img></p>","null","","1550698325365","4","","","","","",""
"null","","html-keyboard-response","468","2901050","0.0-8.0-0.0-5.8","26","<p><img class= 'stimulus' src='images/baseline/Cold 7.jpg'></img></p>","null","","1550698325464","","","","","","",""
"null","","html-keyboard-response","469","2901150","0.0-8.0-0.0-6.8","26","<p><img class= 'stimulus' src='images/negative/Car accident 3.jpg'></img></p>","null","","1550698325564","6","","","","","",""
"null","","html-keyboard-response","470","2901252","0.0-8.0-0.0-7.8","26","<p><img class= 'stimulus' src='images/baseline/Paysage_karabagh_02.jpg'></img></p>","null","","1550698325663","","","","","","",""
"null","","html-keyboard-response","471","2901351","0.0-8.0-0.0-8.8","26","<p><img class= 'stimulus left-rotate' src='images/target/chicago-673558_640.jpg'></img></p>","null","","1550698325764","8","","","","","",""
"null","","html-keyboard-response","472","2901451","0.0-8.0-0.0-9.8","26","<p><img class= 'stimulus' src='images/baseline/valley 1.jpg'></img></p>","null","","1550698325865","","","","","","",""
"null","","html-keyboard-response","473","2901552","0.0-8.0-0.0-10.8","26","<p><img class= 'stimulus' src='images/baseline/05303v.jpg'></img></p>","null","","1550698325966","","","","","","",""
"null","","html-keyboard-response","474","2901650","0.0-8.0-0.0-11.8","26","<p><img class= 'stimulus' src='images/baseline/05292v.jpg'></img></p>","null","","1550698326064","","","","","","",""
"null","","html-keyboard-response","475","2901750","0.0-8.0-0.0-12.8","26","<p><img class= 'stimulus' src='images/baseline/farmhouse4.jpg'></img></p>","null","","1550698326165","12","","","","","",""
"null","","html-keyboard-response","476","2901852","0.0-8.0-0.0-13.8","26","<p><img class= 'stimulus' src='images/baseline/farmhouse7.jpg'></img></p>","null","","1550698326265","","","","","","",""
"null","","html-keyboard-response","477","2901950","0.0-8.0-0.0-14.8","26","<p><img class= 'stimulus' src='images/baseline/meadow-with-mountain-in-background.jpg'></img></p>","null","","1550698326365","14","","","","","",""
"null","","html-keyboard-response","478","2902051","0.0-8.0-0.0-15.8","26","<p><img class= 'stimulus' src='images/baseline/pexels-photo-1054289.jpeg'></img></p>","null","","1550698326465","","","","","","",""
"null","","html-keyboard-response","479","2902150","0.0-8.0-0.0-16.8","26","<p><img class= 'stimulus' src='images/baseline/pexels-photo-259280.jpeg'></img></p>","null","","1550698326563","","","","","","",""
"null","","html-keyboard-response","480","2902268","0.0-8.0-0.0-17.8","26","<p><img class= 'stimulus' src='images/baseline/farmhouse1.jpg'></img></p>","null","","1550698326665","","","","","","",""
"1128.5999999968335","","html-button-response","481","2904401","0.0-8.0-0.0-18.8","26","<div class = ""response_question"">WAS THE IMAGE ROTATED...</div>","","2","","","6","2","neg","left","test","false"
"4230.299999995623","","html-button-response","482","2908633","0.0-8.0-0.0-0.9","26","","","0","","","","","","","",""
"null","","html-keyboard-response","483","2908718","0.0-8.0-0.0-1.9","26","<p><img class= 'stimulus' src='images/baseline/Sunset 3.jpg'></img></p>","null","","1550698333132","","","","","","",""
"null","","html-keyboard-response","484","2908819","0.0-8.0-0.0-2.9","26","<p><img class= 'stimulus' src='images/baseline/house3.jpg'></img></p>","null","","1550698333231","","","","","","",""
"null","","html-keyboard-response","485","2908918","0.0-8.0-0.0-3.9","26","<p><img class= 'stimulus' src='images/baseline/landscape38.jpg'></img></p>","null","","1550698333331","","","","","","",""
"null","","html-keyboard-response","486","2909018","0.0-8.0-0.0-4.9","26","<p><img class= 'stimulus' src='images/baseline/landscape2.jpg'></img></p>","null","","1550698333431","4","","","","","",""
"null","","html-keyboard-response","487","2909118","0.0-8.0-0.0-5.9","26","<p><img class= 'stimulus' src='images/baseline/Kocherbaumwald-01.jpg'></img></p>","null","","1550698333532","","","","","","",""
"null","","html-keyboard-response","488","2909217","0.0-8.0-0.0-6.9","26","<p><img class= 'stimulus' src='images/baseline/farmhouse11.jpg'></img></p>","null","","1550698333632","6","","","","","",""
"null","","html-keyboard-response","489","2909318","0.0-8.0-0.0-7.9","26","<p><img class= 'stimulus' src='images/baseline/05240v.jpg'></img></p>","null","","1550698333731","","","","","","",""
"null","","html-keyboard-response","490","2909418","0.0-8.0-0.0-8.9","26","<p><img class= 'stimulus' src='images/baseline/Path 1.jpg'></img></p>","null","","1550698333831","8","","","","","",""
"null","","html-keyboard-response","491","2909518","0.0-8.0-0.0-9.9","26","<p><img class= 'stimulus' src='images/baseline/03114v.jpg'></img></p>","null","","1550698333931","","","","","","",""
"null","","html-keyboard-response","492","2909618","0.0-8.0-0.0-10.9","26","<p><img class= 'stimulus' src='images/baseline/Street 5.jpg'></img></p>","null","","1550698334031","","","","","","",""
"null","","html-keyboard-response","493","2909719","0.0-8.0-0.0-11.9","26","<p><img class= 'stimulus' src='images/baseline/farmhouse9.jpg'></img></p>","null","","1550698334131","","","","","","",""
"null","","html-keyboard-response","494","2909818","0.0-8.0-0.0-12.9","26","<p><img class= 'stimulus' src='images/baseline/agriculture-countryside-crop-259280.jpg'></img></p>","null","","1550698334232","12","","","","","",""
"null","","html-keyboard-response","495","2909917","0.0-8.0-0.0-13.9","26","<p><img class= 'stimulus' src='images/baseline/Lake 9.jpg'></img></p>","null","","1550698334332","","","","","","",""
"null","","html-keyboard-response","496","2910018","0.0-8.0-0.0-14.9","26","<p><img class= 'stimulus' src='images/baseline/Sunset 6.jpg'></img></p>","null","","1550698334431","14","","","","","",""
"null","","html-keyboard-response","497","2910118","0.0-8.0-0.0-15.9","26","<p><img class= 'stimulus' src='images/baseline/lake 1.jpg'></img></p>","null","","1550698334531","","","","","","",""
"null","","html-keyboard-response","498","2910218","0.0-8.0-0.0-16.9","26","<p><img class= 'stimulus' src='images/baseline/02988v.jpg'></img></p>","null","","1550698334631","","","","","","",""
"null","","html-keyboard-response","499","2910334","0.0-8.0-0.0-17.9","26","<p><img class= 'stimulus' src='images/baseline/04031v.jpg'></img></p>","null","","1550698334730","","","","","","",""
"1795.6000000122003","","html-button-response","500","2913136","0.0-8.0-0.0-18.9","26","<div class = ""response_question"">WAS THE IMAGE ROTATED...</div>","","5","","","null","null","null","null","test","null"
"2478.300000017509","","html-button-response","501","2915616","0.0-8.0-0.0-0.10","26","","","0","","","","","","","",""
"null","","html-keyboard-response","502","2915701","0.0-8.0-0.0-1.10","26","<p><img class= 'stimulus' src='images/baseline/Lake 8.jpg'></img></p>","null","","1550698340114","","","","","","",""
"null","","html-keyboard-response","503","2915802","0.0-8.0-0.0-2.10","26","<p><img class= 'stimulus' src='images/baseline/__08_-_ITALY_-_Forli_under_snow_-_winter_landscape_of_city_(christmas).jpg'></img></p>","null","","1550698340214","","","","","","",""
"null","","html-keyboard-response","504","2915901","0.0-8.0-0.0-3.10","26","<p><img class= 'stimulus' src='images/baseline/landscape14.jpg'></img></p>","null","","1550698340314","","","","","","",""
