"rt","responses","trial_type","trial_index","time_elapsed","internal_node_id","participant_id","stimulus","key_press","button_pressed","stim_onset","sequence_position","distractor_position","target_lag","distractor_type","target_orientation","phase","correct"
"12086.699999999837","{""Q0"":""16""}","survey-text","0","12092","0.0-0.0","16","","","","","","","","","","",""
"2686569.399999993","","html-keyboard-response","1","2698670","0.0-1.0","16","Welcome to the experiment.","67","","","","","","","","",""
"19810.500000006985","","html-button-response","2","2718485","0.0-2.0","16","<p>Several images will be presented sequentially.        Each image will only be on the screen for about 100 milliseconds.</p>        <p> One of the images may be rotated 90 degrees right or left.        Watch for this image and remember if it is rotated right or left.</p>               <p>Images of people and animals will appear, and sometimes they will be unpleasant.        These will never be the rotated target image.</p>","","0","","","","","","","",""
"2237.899999992922","","html-button-response","3","2720725","0.0-3.0","16","<p><img class=""stimulus left-rotate"" src=""images/target/lookout_tower.jpg""></img></p><p>This is an example of an image rotated to the left.</p>","","0","","","","","","","",""
"1430.800000002142","","html-button-response","4","2722157","0.0-4.0","16","<p><img class=""stimulus"" src=""images/target/pexels-photo-236294.jpeg""></img></p><p>This is an example of an image rotated to the right.</p>","","0","","","","","","","",""
"12206.899999990128","","html-button-response","5","2734364","0.0-5.0","16","<p>We will now begin a short practice session.</p>         <p>A + symbol will appear in the middle of the screen. Please fix your gaze on the center of the +, and then click the mouse button to begin the image sequence.</p>         <p>Please avoid blinking or eye movements while the images are on the screen.</p>        <p>The image sequence will start relatively slow. After a few sequences, it will speed up.</p>","","0","","","","","","","",""
"5910.499999998137","","html-button-response","6","2740276","0.0-6.0-0.0","16","","","0","","","","","","","",""
"null","","html-keyboard-response","7","2740471","0.0-6.0-1.0","16","<p><img class= 'stimulus' src='images/baseline/chicago-skyline-at-night-1476869511p8U.jpg'></img></p>","null","","1550093802196","","","","","","",""
"null","","html-keyboard-response","8","2740670","0.0-6.0-2.0","16","<p><img class= 'stimulus' src='images/baseline/pexels-photo-440731.jpeg'></img></p>","null","","1550093802397","","","","","","",""
"null","","html-keyboard-response","9","2740871","0.0-6.0-3.0","16","<p><img class= 'stimulus' src='images/baseline/Paysage_karabagh_02.jpg'></img></p>","null","","1550093802598","","","","","","",""
"null","","html-keyboard-response","10","2741071","0.0-6.0-4.0","16","<p><img class= 'stimulus' src='images/baseline/building5.jpg'></img></p>","null","","1550093802798","4","","","","","",""
"null","","html-keyboard-response","11","2741271","0.0-6.0-5.0","16","<p><img class= 'stimulus' src='images/baseline/05145v.jpg'></img></p>","null","","1550093802997","","","","","","",""
"null","","html-keyboard-response","12","2741472","0.0-6.0-6.0","16","<p><img class= 'stimulus left-rotate' src='images/target/pexels-photo-1102846.jpeg'></img></p>","null","","1550093803197","6","","","","","",""
"null","","html-keyboard-response","13","2741671","0.0-6.0-7.0","16","<p><img class= 'stimulus' src='images/baseline/Dock 1.jpg'></img></p>","null","","1550093803398","","","","","","",""
"null","","html-keyboard-response","14","2741872","0.0-6.0-8.0","16","<p><img class= 'stimulus' src='images/baseline/snowy tree.jpg'></img></p>","null","","1550093803599","8","","","","","",""
"null","","html-keyboard-response","15","2742071","0.0-6.0-9.0","16","<p><img class= 'stimulus' src='images/baseline/hills 4.jpg'></img></p>","null","","1550093803797","","","","","","",""
"null","","html-keyboard-response","16","2742273","0.0-6.0-10.0","16","<p><img class= 'stimulus' src='images/baseline/farmhouse2.jpg'></img></p>","null","","1550093803998","","","","","","",""
"null","","html-keyboard-response","17","2742472","0.0-6.0-11.0","16","<p><img class= 'stimulus' src='images/baseline/03056v.jpg'></img></p>","null","","1550093804198","","","","","","",""
"null","","html-keyboard-response","18","2742672","0.0-6.0-12.0","16","<p><img class= 'stimulus' src='images/baseline/pexels-photo-750108.jpeg'></img></p>","null","","1550093804398","12","","","","","",""
"null","","html-keyboard-response","19","2742872","0.0-6.0-13.0","16","<p><img class= 'stimulus' src='images/baseline/03148v.jpg'></img></p>","null","","1550093804598","","","","","","",""
"null","","html-keyboard-response","20","2743072","0.0-6.0-14.0","16","<p><img class= 'stimulus' src='images/baseline/Lake 5.jpg'></img></p>","null","","1550093804799","14","","","","","",""
"null","","html-keyboard-response","21","2743271","0.0-6.0-15.0","16","<p><img class= 'stimulus' src='images/baseline/pexels-photo-1054289.jpeg'></img></p>","null","","1550093804998","","","","","","",""
"null","","html-keyboard-response","22","2743472","0.0-6.0-16.0","16","<p><img class= 'stimulus' src='images/baseline/__08_-_ITALY_-_Forli_under_snow_-_winter_landscape_of_city_(christmas).jpg'></img></p>","null","","1550093805199","","","","","","",""
"null","","html-keyboard-response","23","2743689","0.0-6.0-17.0","16","<p><img class= 'stimulus' src='images/baseline/05279v.jpg'></img></p>","null","","1550093805400","","","","","","",""
"6972.999999998137","","html-button-response","24","2751656","0.0-6.0-18.0","16","<div class = ""response_question"">WAS THE IMAGE ROTATED...</div>","","5","","","4","2","bas","left","practice","false"
"1861.6999999941327","","html-button-response","25","2753519","0.0-6.0-0.1","16","","","0","","","","","","","",""
"null","","html-keyboard-response","26","2753691","0.0-6.0-1.1","16","<p><img class= 'stimulus' src='images/baseline/trees 23.jpg'></img></p>","null","","1550093815418","","","","","","",""
"null","","html-keyboard-response","27","2753892","0.0-6.0-2.1","16","<p><img class= 'stimulus' src='images/baseline/04130v.jpg'></img></p>","null","","1550093815619","","","","","","",""
"null","","html-keyboard-response","28","2754094","0.0-6.0-3.1","16","<p><img class= 'stimulus' src='images/baseline/99_-_Machu_Picchu_-_Juin_2009.edit3.jpg'></img></p>","null","","1550093815819","","","","","","",""
"null","","html-keyboard-response","29","2754293","0.0-6.0-4.1","16","<p><img class= 'stimulus' src='images/baseline/road.jpg'></img></p>","null","","1550093816019","4","","","","","",""
"null","","html-keyboard-response","30","2754493","0.0-6.0-5.1","16","<p><img class= 'stimulus' src='images/baseline/Desert_View_Indian_Wells.jpg'></img></p>","null","","1550093816219","","","","","","",""
"null","","html-keyboard-response","31","2754693","0.0-6.0-6.1","16","<p><img class= 'stimulus' src='images/baseline/landscape34.jpg'></img></p>","null","","1550093816419","6","","","","","",""
"null","","html-keyboard-response","32","2754894","0.0-6.0-7.1","16","<p><img class= 'stimulus' src='images/baseline/landscape7.jpg'></img></p>","null","","1550093816619","","","","","","",""
"null","","html-keyboard-response","33","2755094","0.0-6.0-8.1","16","<p><img class= 'stimulus' src='images/baseline/landscape13.jpg'></img></p>","null","","1550093816819","8","","","","","",""
"null","","html-keyboard-response","34","2755293","0.0-6.0-9.1","16","<p><img class= 'stimulus' src='images/baseline/Linden,_paysage.jpg'></img></p>","null","","1550093817020","","","","","","",""
"null","","html-keyboard-response","35","2755493","0.0-6.0-10.1","16","<p><img class= 'stimulus' src='images/baseline/sunset-over-the-lake.jpg'></img></p>","null","","1550093817219","","","","","","",""
"null","","html-keyboard-response","36","2755692","0.0-6.0-11.1","16","<p><img class= 'stimulus' src='images/baseline/04284v.jpg'></img></p>","null","","1550093817419","","","","","","",""
"null","","html-keyboard-response","37","2755892","0.0-6.0-12.1","16","<p><img class= 'stimulus' src='images/baseline/02977v.jpg'></img></p>","null","","1550093817620","12","","","","","",""
"null","","html-keyboard-response","38","2756092","0.0-6.0-13.1","16","<p><img class= 'stimulus' src='images/baseline/field 4.jpg'></img></p>","null","","1550093817819","","","","","","",""
"null","","html-keyboard-response","39","2756293","0.0-6.0-14.1","16","<p><img class= 'stimulus left-rotate' src='images/target/pexels-photo-932328.jpeg'></img></p>","null","","1550093818020","14","","","","","",""
"null","","html-keyboard-response","40","2756493","0.0-6.0-15.1","16","<p><img class= 'stimulus' src='images/baseline/Lake 3.jpg'></img></p>","null","","1550093818219","","","","","","",""
"null","","html-keyboard-response","41","2756693","0.0-6.0-16.1","16","<p><img class= 'stimulus' src='images/baseline/Peyto_Lake-Banff_NP-Canada.jpg'></img></p>","null","","1550093818420","","","","","","",""
"null","","html-keyboard-response","42","2756911","0.0-6.0-17.1","16","<p><img class= 'stimulus' src='images/baseline/tennis-court-net-buried-in-snow.jpg'></img></p>","null","","1550093818620","","","","","","",""
"1812.7999999998137","","html-button-response","43","2759727","0.0-6.0-18.1","16","<div class = ""response_question"">WAS THE IMAGE ROTATED...</div>","","0","","","6","8","bas","left","practice","true"
"2998.500000001397","","html-button-response","44","2762727","0.0-6.0-0.2","16","","","0","","","","","","","",""
"null","","html-keyboard-response","45","2762909","0.0-6.0-1.2","16","<p><img class= 'stimulus' src='images/baseline/04162v.jpg'></img></p>","null","","1550093824637","","","","","","",""
"null","","html-keyboard-response","46","2763110","0.0-6.0-2.2","16","<p><img class= 'stimulus' src='images/baseline/pexels-photo-59321.jpeg'></img></p>","null","","1550093824836","","","","","","",""
"null","","html-keyboard-response","47","2763311","0.0-6.0-3.2","16","<p><img class= 'stimulus' src='images/baseline/03066v.jpg'></img></p>","null","","1550093825037","","","","","","",""
"null","","html-keyboard-response","48","2763510","0.0-6.0-4.2","16","<p><img class= 'stimulus' src='images/baseline/03204v.jpg'></img></p>","null","","1550093825236","4","","","","","",""
"null","","html-keyboard-response","49","2763709","0.0-6.0-5.2","16","<p><img class= 'stimulus' src='images/baseline/architecture-1314416_1920.jpg'></img></p>","null","","1550093825436","","","","","","",""
"null","","html-keyboard-response","50","2763910","0.0-6.0-6.2","16","<p><img class= 'stimulus' src='images/baseline/Lake 13.jpg'></img></p>","null","","1550093825636","6","","","","","",""
"null","","html-keyboard-response","51","2764110","0.0-6.0-7.2","16","<p><img class= 'stimulus' src='images/baseline/04196v.jpg'></img></p>","null","","1550093825837","","","","","","",""
"null","","html-keyboard-response","52","2764310","0.0-6.0-8.2","16","<p><img class= 'stimulus' src='images/baseline/Path 1.jpg'></img></p>","null","","1550093826036","8","","","","","",""
"null","","html-keyboard-response","53","2764509","0.0-6.0-9.2","16","<p><img class= 'stimulus' src='images/baseline/landscape12.jpg'></img></p>","null","","1550093826235","","","","","","",""
"null","","html-keyboard-response","54","2764709","0.0-6.0-10.2","16","<p><img class= 'stimulus' src='images/baseline/flooded-bridge.jpg'></img></p>","null","","1550093826435","","","","","","",""
"null","","html-keyboard-response","55","2764909","0.0-6.0-11.2","16","<p><img class= 'stimulus' src='images/baseline/Waterfall 1.jpg'></img></p>","null","","1550093826635","","","","","","",""
"null","","html-keyboard-response","56","2765110","0.0-6.0-12.2","16","<p><img class= 'stimulus' src='images/target/landscape3.jpg'></img></p>","null","","1550093826835","12","","","","","",""
"null","","html-keyboard-response","57","2765309","0.0-6.0-13.2","16","<p><img class= 'stimulus' src='images/baseline/Street 3.jpg'></img></p>","null","","1550093827035","","","","","","",""
"null","","html-keyboard-response","58","2765511","0.0-6.0-14.2","16","<p><img class= 'stimulus' src='images/baseline/Lake 9.jpg'></img></p>","null","","1550093827235","14","","","","","",""
"null","","html-keyboard-response","59","2765710","0.0-6.0-15.2","16","<p><img class= 'stimulus' src='images/baseline/house7.jpg'></img></p>","null","","1550093827437","","","","","","",""
"null","","html-keyboard-response","60","2765910","0.0-6.0-16.2","16","<p><img class= 'stimulus' src='images/baseline/road 1(1).jpg'></img></p>","null","","1550093827638","","","","","","",""
"null","","html-keyboard-response","61","2766126","0.0-6.0-17.2","16","<p><img class= 'stimulus' src='images/baseline/agriculture-bright-clouds-440731.jpg'></img></p>","null","","1550093827836","","","","","","",""
"1758.0999999917112","","html-button-response","62","2768887","0.0-6.0-18.2","16","<div class = ""response_question"">WAS THE IMAGE ROTATED...</div>","","3","","","4","8","bas","right","practice","true"
"1974.2999999872409","","html-button-response","63","2770863","0.0-6.0-0.3","16","","","0","","","","","","","",""
"null","","html-keyboard-response","64","2771043","0.0-6.0-1.3","16","<p><img class= 'stimulus' src='images/baseline/Nature 1.jpg'></img></p>","null","","1550093832770","","","","","","",""
"null","","html-keyboard-response","65","2771243","0.0-6.0-2.3","16","<p><img class= 'stimulus' src='images/baseline/geese-flying-over-lake-at-dusk.jpg'></img></p>","null","","1550093832970","","","","","","",""
"null","","html-keyboard-response","66","2771443","0.0-6.0-3.3","16","<p><img class= 'stimulus' src='images/baseline/02982v.jpg'></img></p>","null","","1550093833171","","","","","","",""
"null","","html-keyboard-response","67","2771643","0.0-6.0-4.3","16","<p><img class= 'stimulus' src='images/baseline/05292v.jpg'></img></p>","null","","1550093833370","4","","","","","",""
"null","","html-keyboard-response","68","2771844","0.0-6.0-5.3","16","<p><img class= 'stimulus' src='images/baseline/05161v.jpg'></img></p>","null","","1550093833570","","","","","","",""
"null","","html-keyboard-response","69","2772043","0.0-6.0-6.3","16","<p><img class= 'stimulus' src='images/baseline/Paysage_enneige_02.jpg'></img></p>","null","","1550093833770","6","","","","","",""
"null","","html-keyboard-response","70","2772243","0.0-6.0-7.3","16","<p><img class= 'stimulus' src='images/baseline/house8.jpg'></img></p>","null","","1550093833971","","","","","","",""
"null","","html-keyboard-response","71","2772443","0.0-6.0-8.3","16","<p><img class= 'stimulus' src='images/baseline/05252v.jpg'></img></p>","null","","1550093834169","8","","","","","",""
"null","","html-keyboard-response","72","2772644","0.0-6.0-9.3","16","<p><img class= 'stimulus' src='images/baseline/dirt-road-or-trail-through-park.jpg'></img></p>","null","","1550093834371","","","","","","",""
"null","","html-keyboard-response","73","2772844","0.0-6.0-10.3","16","<p><img class= 'stimulus' src='images/baseline/building12.jpg'></img></p>","null","","1550093834571","","","","","","",""
"null","","html-keyboard-response","74","2773045","0.0-6.0-11.3","16","<p><img class= 'stimulus' src='images/baseline/05158v.jpg'></img></p>","null","","1550093834771","","","","","","",""
"null","","html-keyboard-response","75","2773245","0.0-6.0-12.3","16","<p><img class= 'stimulus left-rotate' src='images/target/tree spring.jpeg'></img></p>","null","","1550093834971","12","","","","","",""
"null","","html-keyboard-response","76","2773444","0.0-6.0-13.3","16","<p><img class= 'stimulus' src='images/baseline/field 3.jpg'></img></p>","null","","1550093835171","","","","","","",""
"null","","html-keyboard-response","77","2773645","0.0-6.0-14.3","16","<p><img class= 'stimulus' src='images/baseline/scenic-mountain-landscape.jpg'></img></p>","null","","1550093835372","14","","","","","",""
"null","","html-keyboard-response","78","2773844","0.0-6.0-15.3","16","<p><img class= 'stimulus' src='images/baseline/Beach 8.jpg'></img></p>","null","","1550093835571","","","","","","",""
"null","","html-keyboard-response","79","2774043","0.0-6.0-16.3","16","<p><img class= 'stimulus' src='images/baseline/05303v.jpg'></img></p>","null","","1550093835770","","","","","","",""
"null","","html-keyboard-response","80","2774261","0.0-6.0-17.3","16","<p><img class= 'stimulus' src='images/baseline/city-silhouette-at-sunset-871291580819Esw.jpg'></img></p>","null","","1550093835971","","","","","","",""
"1725.4000000101514","","html-button-response","81","2776991","0.0-6.0-18.3","16","<div class = ""response_question"">WAS THE IMAGE ROTATED...</div>","","0","","","4","8","bas","left","practice","true"
"1358.8999999919906","","html-button-response","82","2778351","0.0-6.0-0.4","16","","","0","","","","","","","",""
"null","","html-keyboard-response","83","2778477","0.0-6.0-1.4","16","<p><img class= 'stimulus' src='images/baseline/landscape11.jpg'></img></p>","null","","1550093840253","","","","","","",""
"null","","html-keyboard-response","84","2778627","0.0-6.0-2.4","16","<p><img class= 'stimulus' src='images/baseline/Nature 2.jpg'></img></p>","null","","1550093840402","","","","","","",""
"null","","html-keyboard-response","85","2778776","0.0-6.0-3.4","16","<p><img class= 'stimulus' src='images/baseline/05247v.jpg'></img></p>","null","","1550093840552","","","","","","",""
"null","","html-keyboard-response","86","2778925","0.0-6.0-4.4","16","<p><img class= 'stimulus' src='images/baseline/04117v.jpg'></img></p>","null","","1550093840703","4","","","","","",""
"null","","html-keyboard-response","87","2779076","0.0-6.0-5.4","16","<p><img class= 'stimulus' src='images/baseline/landscape3.jpg'></img></p>","null","","1550093840853","","","","","","",""
"null","","html-keyboard-response","88","2779226","0.0-6.0-6.4","16","<p><img class= 'stimulus' src='images/baseline/03041v.jpg'></img></p>","null","","1550093841002","6","","","","","",""
"null","","html-keyboard-response","89","2779377","0.0-6.0-7.4","16","<p><img class= 'stimulus' src='images/baseline/pexels-photo-894312.jpeg'></img></p>","null","","1550093841152","","","","","","",""
"null","","html-keyboard-response","90","2779525","0.0-6.0-8.4","16","<p><img class= 'stimulus' src='images/target/skyscraper-3855012_640.jpg'></img></p>","null","","1550093841303","8","","","","","",""
"null","","html-keyboard-response","91","2779676","0.0-6.0-9.4","16","<p><img class= 'stimulus' src='images/baseline/grand-teton-mountains.jpg'></img></p>","null","","1550093841451","","","","","","",""
"null","","html-keyboard-response","92","2779825","0.0-6.0-10.4","16","<p><img class= 'stimulus' src='images/baseline/Beach 3.jpg'></img></p>","null","","1550093841601","","","","","","",""
"null","","html-keyboard-response","93","2779976","0.0-6.0-11.4","16","<p><img class= 'stimulus' src='images/baseline/empire-state-building.jpg'></img></p>","null","","1550093841752","","","","","","",""
"null","","html-keyboard-response","94","2780125","0.0-6.0-12.4","16","<p><img class= 'stimulus' src='images/baseline/cyrillic.jpg'></img></p>","null","","1550093841902","12","","","","","",""
"null","","html-keyboard-response","95","2780275","0.0-6.0-13.4","16","<p><img class= 'stimulus' src='images/baseline/03220v.jpg'></img></p>","null","","1550093842052","","","","","","",""
"null","","html-keyboard-response","96","2780425","0.0-6.0-14.4","16","<p><img class= 'stimulus' src='images/baseline/Street 5.jpg'></img></p>","null","","1550093842201","14","","","","","",""
"null","","html-keyboard-response","97","2780575","0.0-6.0-15.4","16","<p><img class= 'stimulus' src='images/baseline/valley 1.jpg'></img></p>","null","","1550093842351","","","","","","",""
"null","","html-keyboard-response","98","2780725","0.0-6.0-16.4","16","<p><img class= 'stimulus' src='images/baseline/bird-flying-at-sunset.jpg'></img></p>","null","","1550093842501","","","","","","",""
"null","","html-keyboard-response","99","2780892","0.0-6.0-17.4","16","<p><img class= 'stimulus' src='images/baseline/pexels-photo-221125.jpeg'></img></p>","null","","1550093842651","","","","","","",""
"3031.400000006892","","html-button-response","100","2784927","0.0-6.0-18.4","16","<div class = ""response_question"">WAS THE IMAGE ROTATED...</div>","","2","","","6","2","bas","right","practice","false"
"2702.4000000096858","","html-button-response","101","2787631","0.0-6.0-0.5","16","","","0","","","","","","","",""
"null","","html-keyboard-response","102","2787759","0.0-6.0-1.5","16","<p><img class= 'stimulus' src='images/baseline/landscape17.jpg'></img></p>","null","","1550093849534","","","","","","",""
"null","","html-keyboard-response","103","2787909","0.0-6.0-2.5","16","<p><img class= 'stimulus' src='images/baseline/03112v.jpg'></img></p>","null","","1550093849684","","","","","","",""
"null","","html-keyboard-response","104","2788058","0.0-6.0-3.5","16","<p><img class= 'stimulus' src='images/baseline/Sky 1.jpg'></img></p>","null","","1550093849834","","","","","","",""
"null","","html-keyboard-response","105","2788207","0.0-6.0-4.5","16","<p><img class= 'stimulus' src='images/baseline/lone-old-cottonwood-tree.jpg'></img></p>","null","","1550093849985","4","","","","","",""
"null","","html-keyboard-response","106","2788358","0.0-6.0-5.5","16","<p><img class= 'stimulus' src='images/baseline/04229v.jpg'></img></p>","null","","1550093850134","","","","","","",""
"null","","html-keyboard-response","107","2788508","0.0-6.0-6.5","16","<p><img class= 'stimulus' src='images/baseline/building3.jpg'></img></p>","null","","1550093850283","6","","","","","",""
"null","","html-keyboard-response","108","2788658","0.0-6.0-7.5","16","<p><img class= 'stimulus' src='images/baseline/Street 4.jpg'></img></p>","null","","1550093850435","","","","","","",""
"null","","html-keyboard-response","109","2788809","0.0-6.0-8.5","16","<p><img class= 'stimulus left-rotate' src='images/target/pexels-photo-1534411.jpeg'></img></p>","null","","1550093850584","8","","","","","",""
"null","","html-keyboard-response","110","2788960","0.0-6.0-9.5","16","<p><img class= 'stimulus' src='images/baseline/Skyscraper 1.jpg'></img></p>","null","","1550093850736","","","","","","",""
"null","","html-keyboard-response","111","2789108","0.0-6.0-10.5","16","<p><img class= 'stimulus' src='images/baseline/farmhouse1.jpg'></img></p>","null","","1550093850885","","","","","","",""
"null","","html-keyboard-response","112","2789259","0.0-6.0-11.5","16","<p><img class= 'stimulus' src='images/baseline/03098v.jpg'></img></p>","null","","1550093851036","","","","","","",""
"null","","html-keyboard-response","113","2789408","0.0-6.0-12.5","16","<p><img class= 'stimulus' src='images/baseline/04158v.jpg'></img></p>","null","","1550093851185","12","","","","","",""
"null","","html-keyboard-response","114","2789559","0.0-6.0-13.5","16","<p><img class= 'stimulus' src='images/baseline/seoul-410266_1920.jpg'></img></p>","null","","1550093851335","","","","","","",""
"null","","html-keyboard-response","115","2789709","0.0-6.0-14.5","16","<p><img class= 'stimulus' src='images/baseline/house3.jpg'></img></p>","null","","1550093851485","14","","","","","",""
"null","","html-keyboard-response","116","2789858","0.0-6.0-15.5","16","<p><img class= 'stimulus' src='images/baseline/farmhouse9.jpg'></img></p>","null","","1550093851635","","","","","","",""
"null","","html-keyboard-response","117","2790009","0.0-6.0-16.5","16","<p><img class= 'stimulus' src='images/baseline/field 1.jpg'></img></p>","null","","1550093851785","","","","","","",""
"null","","html-keyboard-response","118","2790175","0.0-6.0-17.5","16","<p><img class= 'stimulus' src='images/baseline/landscape33.jpg'></img></p>","null","","1550093851935","","","","","","",""
"2033.199999990873","","html-button-response","119","2793215","0.0-6.0-18.5","16","<div class = ""response_question"">WAS THE IMAGE ROTATED...</div>","","0","","","6","2","bas","left","practice","true"
"1830.6000000010245","","html-button-response","120","2795047","0.0-6.0-0.6","16","","","0","","","","","","","",""
"null","","html-keyboard-response","121","2795176","0.0-6.0-1.6","16","<p><img class= 'stimulus' src='images/baseline/landscape37.jpg'></img></p>","null","","1550093856951","","","","","","",""
"null","","html-keyboard-response","122","2795325","0.0-6.0-2.6","16","<p><img class= 'stimulus' src='images/baseline/pexels-photo-1287089.jpeg'></img></p>","null","","1550093857103","","","","","","",""
"null","","html-keyboard-response","123","2795474","0.0-6.0-3.6","16","<p><img class= 'stimulus' src='images/baseline/field 2.jpg'></img></p>","null","","1550093857251","","","","","","",""
"null","","html-keyboard-response","124","2795625","0.0-6.0-4.6","16","<p><img class= 'stimulus' src='images/baseline/04064v.jpg'></img></p>","null","","1550093857401","4","","","","","",""
"null","","html-keyboard-response","125","2795775","0.0-6.0-5.6","16","<p><img class= 'stimulus' src='images/baseline/landscape29.jpg'></img></p>","null","","1550093857551","","","","","","",""
"null","","html-keyboard-response","126","2795926","0.0-6.0-6.6","16","<p><img class= 'stimulus' src='images/baseline/pexels-photo-459203.jpeg'></img></p>","null","","1550093857701","6","","","","","",""
"null","","html-keyboard-response","127","2796075","0.0-6.0-7.6","16","<p><img class= 'stimulus' src='images/baseline/05186v.jpg'></img></p>","null","","1550093857851","","","","","","",""
"null","","html-keyboard-response","128","2796224","0.0-6.0-8.6","16","<p><img class= 'stimulus' src='images/baseline/Sidewalk 4.jpg'></img></p>","null","","1550093858002","8","","","","","",""
"null","","html-keyboard-response","129","2796375","0.0-6.0-9.6","16","<p><img class= 'stimulus' src='images/baseline/red rocks from afar.jpg'></img></p>","null","","1550093858151","","","","","","",""
"null","","html-keyboard-response","130","2796525","0.0-6.0-10.6","16","<p><img class= 'stimulus' src='images/baseline/03212v.jpg'></img></p>","null","","1550093858301","","","","","","",""
"null","","html-keyboard-response","131","2796674","0.0-6.0-11.6","16","<p><img class= 'stimulus' src='images/baseline/autumn-in-red-rocks-park.jpg'></img></p>","null","","1550093858451","","","","","","",""
"null","","html-keyboard-response","132","2796824","0.0-6.0-12.6","16","<p><img class= 'stimulus' src='images/baseline/landscape40.jpg'></img></p>","null","","1550093858602","12","","","","","",""
"null","","html-keyboard-response","133","2796975","0.0-6.0-13.6","16","<p><img class= 'stimulus' src='images/baseline/04014v.jpg'></img></p>","null","","1550093858751","","","","","","",""
"null","","html-keyboard-response","134","2797125","0.0-6.0-14.6","16","<p><img class= 'stimulus' src='images/target/dreifaltigkeitskirche_sandhausen_837699.jpg'></img></p>","null","","1550093858901","14","","","","","",""
"null","","html-keyboard-response","135","2797275","0.0-6.0-15.6","16","<p><img class= 'stimulus' src='images/baseline/pexels-photo-808465.jpeg'></img></p>","null","","1550093859051","","","","","","",""
"null","","html-keyboard-response","136","2797424","0.0-6.0-16.6","16","<p><img class= 'stimulus' src='images/baseline/05203v.jpg'></img></p>","null","","1550093859202","","","","","","",""
"null","","html-keyboard-response","137","2797591","0.0-6.0-17.6","16","<p><img class= 'stimulus' src='images/baseline/04193v.jpg'></img></p>","null","","1550093859352","","","","","","",""
"1108.6999999973923","","html-button-response","138","2799703","0.0-6.0-18.6","16","<div class = ""response_question"">WAS THE IMAGE ROTATED...</div>","","3","","","6","8","bas","right","practice","true"
"1366.8000000030734","","html-button-response","139","2801071","0.0-6.0-0.7","16","","","0","","","","","","","",""
"null","","html-keyboard-response","140","2801208","0.0-6.0-1.7","16","<p><img class= 'stimulus' src='images/baseline/03075v.jpg'></img></p>","null","","1550093862985","","","","","","",""
"null","","html-keyboard-response","141","2801357","0.0-6.0-2.7","16","<p><img class= 'stimulus' src='images/baseline/pexels-photo-351264.jpeg'></img></p>","null","","1550093863134","","","","","","",""
"null","","html-keyboard-response","142","2801508","0.0-6.0-3.7","16","<p><img class= 'stimulus' src='images/baseline/04040v.jpg'></img></p>","null","","1550093863285","","","","","","",""
"null","","html-keyboard-response","143","2801658","0.0-6.0-4.7","16","<p><img class= 'stimulus' src='images/baseline/landscape15.jpg'></img></p>","null","","1550093863434","4","","","","","",""
"null","","html-keyboard-response","144","2801808","0.0-6.0-5.7","16","<p><img class= 'stimulus' src='images/baseline/4k-wallpaper-agriculture-clouds-842711.jpg'></img></p>","null","","1550093863583","","","","","","",""
"null","","html-keyboard-response","145","2801958","0.0-6.0-6.7","16","<p><img class= 'stimulus' src='images/target/landscape1.jpg'></img></p>","null","","1550093863735","6","","","","","",""
"null","","html-keyboard-response","146","2802108","0.0-6.0-7.7","16","<p><img class= 'stimulus' src='images/baseline/pexels-photo-1261728.jpeg'></img></p>","null","","1550093863884","","","","","","",""
"null","","html-keyboard-response","147","2802259","0.0-6.0-8.7","16","<p><img class= 'stimulus' src='images/baseline/agriculture-cereal-clouds-175389.jpg'></img></p>","null","","1550093864035","8","","","","","",""
"null","","html-keyboard-response","148","2802409","0.0-6.0-9.7","16","<p><img class= 'stimulus' src='images/baseline/landscape2.jpg'></img></p>","null","","1550093864185","","","","","","",""
"null","","html-keyboard-response","149","2802557","0.0-6.0-10.7","16","<p><img class= 'stimulus' src='images/baseline/valley 2.jpg'></img></p>","null","","1550093864334","","","","","","",""
"null","","html-keyboard-response","150","2802707","0.0-6.0-11.7","16","<p><img class= 'stimulus' src='images/baseline/farmhouse11.jpg'></img></p>","null","","1550093864484","","","","","","",""
"null","","html-keyboard-response","151","2802858","0.0-6.0-12.7","16","<p><img class= 'stimulus' src='images/baseline/landscape22.jpg'></img></p>","null","","1550093864634","12","","","","","",""
"null","","html-keyboard-response","152","2803008","0.0-6.0-13.7","16","<p><img class= 'stimulus' src='images/baseline/building8.jpg'></img></p>","null","","1550093864784","","","","","","",""
"null","","html-keyboard-response","153","2803158","0.0-6.0-14.7","16","<p><img class= 'stimulus' src='images/baseline/lake3.jpg'></img></p>","null","","1550093864935","14","","","","","",""
"null","","html-keyboard-response","154","2803307","0.0-6.0-15.7","16","<p><img class= 'stimulus' src='images/baseline/05139v.jpg'></img></p>","null","","1550093865084","","","","","","",""
"null","","html-keyboard-response","155","2803458","0.0-6.0-16.7","16","<p><img class= 'stimulus' src='images/baseline/pexels-photo-280222.jpeg'></img></p>","null","","1550093865234","","","","","","",""
"null","","html-keyboard-response","156","2803625","0.0-6.0-17.7","16","<p><img class= 'stimulus' src='images/baseline/architecture_modern_architecture_852928.jpg'></img></p>","null","","1550093865386","","","","","","",""
"860.0000000004657","","html-button-response","157","2805488","0.0-6.0-18.7","16","<div class = ""response_question"">WAS THE IMAGE ROTATED...</div>","","3","","","4","2","bas","right","practice","true"
"3350.399999995716","","html-button-response","158","2808839","0.0-6.0-0.8","16","","","0","","","","","","","",""
"null","","html-keyboard-response","159","2808924","0.0-6.0-1.8","16","<p><img class= 'stimulus' src='images/baseline/kokkari-1523011968Xfr.jpg'></img></p>","null","","1550093870752","","","","","","",""
"null","","html-keyboard-response","160","2809026","0.0-6.0-2.8","16","<p><img class= 'stimulus' src='images/baseline/church-silhouette-8712964986014Kb.jpg'></img></p>","null","","1550093870850","","","","","","",""
"null","","html-keyboard-response","161","2809124","0.0-6.0-3.8","16","<p><img class= 'stimulus' src='images/baseline/02988v.jpg'></img></p>","null","","1550093870950","","","","","","",""
"null","","html-keyboard-response","162","2809225","0.0-6.0-4.8","16","<p><img class= 'stimulus' src='images/baseline/Lake 15.jpg'></img></p>","null","","1550093871051","4","","","","","",""
"null","","html-keyboard-response","163","2809324","0.0-6.0-5.8","16","<p><img class= 'stimulus' src='images/baseline/pexels-photo-1048039.jpeg'></img></p>","null","","1550093871152","","","","","","",""
"null","","html-keyboard-response","164","2809424","0.0-6.0-6.8","16","<p><img class= 'stimulus' src='images/baseline/landscape16.jpg'></img></p>","null","","1550093871251","6","","","","","",""
"null","","html-keyboard-response","165","2809525","0.0-6.0-7.8","16","<p><img class= 'stimulus' src='images/baseline/architecture-956332_1280.jpg'></img></p>","null","","1550093871351","","","","","","",""
"null","","html-keyboard-response","166","2809625","0.0-6.0-8.8","16","<p><img class= 'stimulus' src='images/baseline/04085v.jpg'></img></p>","null","","1550093871451","8","","","","","",""
"null","","html-keyboard-response","167","2809724","0.0-6.0-9.8","16","<p><img class= 'stimulus' src='images/baseline/04086v.jpg'></img></p>","null","","1550093871551","","","","","","",""
"null","","html-keyboard-response","168","2809824","0.0-6.0-10.8","16","<p><img class= 'stimulus' src='images/baseline/04021v.jpg'></img></p>","null","","1550093871651","","","","","","",""
"null","","html-keyboard-response","169","2809925","0.0-6.0-11.8","16","<p><img class= 'stimulus' src='images/baseline/landscape31.jpg'></img></p>","null","","1550093871752","","","","","","",""
"null","","html-keyboard-response","170","2810024","0.0-6.0-12.8","16","<p><img class= 'stimulus' src='images/baseline/landscape8.jpg'></img></p>","null","","1550093871852","12","","","","","",""
"null","","html-keyboard-response","171","2810124","0.0-6.0-13.8","16","<p><img class= 'stimulus' src='images/baseline/pexels-photo-534164.jpeg'></img></p>","null","","1550093871951","","","","","","",""
"null","","html-keyboard-response","172","2810224","0.0-6.0-14.8","16","<p><img class= 'stimulus' src='images/target/building17.jpg'></img></p>","null","","1550093872051","14","","","","","",""
"null","","html-keyboard-response","173","2810324","0.0-6.0-15.8","16","<p><img class= 'stimulus' src='images/baseline/Sunset 5.jpg'></img></p>","null","","1550093872152","","","","","","",""
"null","","html-keyboard-response","174","2810424","0.0-6.0-16.8","16","<p><img class= 'stimulus' src='images/baseline/landscape14.jpg'></img></p>","null","","1550093872250","","","","","","",""
"null","","html-keyboard-response","175","2810541","0.0-6.0-17.8","16","<p><img class= 'stimulus' src='images/baseline/02962v.jpg'></img></p>","null","","1550093872350","","","","","","",""
"1158.3000000100583","","html-button-response","176","2812703","0.0-6.0-18.8","16","<div class = ""response_question"">WAS THE IMAGE ROTATED...</div>","","3","","","6","8","bas","right","practice","true"
"926.3999999966472","","html-button-response","177","2813631","0.0-6.0-0.9","16","","","0","","","","","","","",""
"null","","html-keyboard-response","178","2813710","0.0-6.0-1.9","16","<p><img class= 'stimulus' src='images/baseline/04062v.jpg'></img></p>","null","","1550093875534","","","","","","",""
"null","","html-keyboard-response","179","2813809","0.0-6.0-2.9","16","<p><img class= 'stimulus' src='images/baseline/04010v.jpg'></img></p>","null","","1550093875635","","","","","","",""
"null","","html-keyboard-response","180","2813908","0.0-6.0-3.9","16","<p><img class= 'stimulus' src='images/baseline/building16.jpg'></img></p>","null","","1550093875734","","","","","","",""
"null","","html-keyboard-response","181","2814008","0.0-6.0-4.9","16","<p><img class= 'stimulus' src='images/baseline/landscape1.jpg'></img></p>","null","","1550093875835","4","","","","","",""
"null","","html-keyboard-response","182","2814108","0.0-6.0-5.9","16","<p><img class= 'stimulus' src='images/baseline/lake 1.jpg'></img></p>","null","","1550093875935","","","","","","",""
"null","","html-keyboard-response","183","2814208","0.0-6.0-6.9","16","<p><img class= 'stimulus' src='images/target/buildin.png'></img></p>","null","","1550093876036","6","","","","","",""
"null","","html-keyboard-response","184","2814308","0.0-6.0-7.9","16","<p><img class= 'stimulus' src='images/baseline/town-square-in-wroclaw-1539098440MZy.jpg'></img></p>","null","","1550093876134","","","","","","",""
"null","","html-keyboard-response","185","2814408","0.0-6.0-8.9","16","<p><img class= 'stimulus' src='images/baseline/04222v.jpg'></img></p>","null","","1550093876234","8","","","","","",""
"null","","html-keyboard-response","186","2814508","0.0-6.0-9.9","16","<p><img class= 'stimulus' src='images/baseline/05167v.jpg'></img></p>","null","","1550093876334","","","","","","",""
"null","","html-keyboard-response","187","2814608","0.0-6.0-10.9","16","<p><img class= 'stimulus' src='images/baseline/farmhouse6.jpg'></img></p>","null","","1550093876435","","","","","","",""
"null","","html-keyboard-response","188","2814708","0.0-6.0-11.9","16","<p><img class= 'stimulus' src='images/baseline/Cold 7.jpg'></img></p>","null","","1550093876534","","","","","","",""
"null","","html-keyboard-response","189","2814808","0.0-6.0-12.9","16","<p><img class= 'stimulus' src='images/baseline/hiking-trail.jpg'></img></p>","null","","1550093876634","12","","","","","",""
"null","","html-keyboard-response","190","2814907","0.0-6.0-13.9","16","<p><img class= 'stimulus' src='images/baseline/river 1.jpg'></img></p>","null","","1550093876734","","","","","","",""
"null","","html-keyboard-response","191","2815009","0.0-6.0-14.9","16","<p><img class= 'stimulus' src='images/baseline/hills 1.jpg'></img></p>","null","","1550093876834","14","","","","","",""
"null","","html-keyboard-response","192","2815108","0.0-6.0-15.9","16","<p><img class= 'stimulus' src='images/baseline/agriculture-countryside-crop-259280.jpg'></img></p>","null","","1550093876935","","","","","","",""
"null","","html-keyboard-response","193","2815207","0.0-6.0-16.9","16","<p><img class= 'stimulus' src='images/baseline/03045v.jpg'></img></p>","null","","1550093877035","","","","","","",""
"null","","html-keyboard-response","194","2815325","0.0-6.0-17.9","16","<p><img class= 'stimulus' src='images/baseline/05240v.jpg'></img></p>","null","","1550093877134","","","","","","",""
"806.2000000062399","","html-button-response","195","2817135","0.0-6.0-18.9","16","<div class = ""response_question"">WAS THE IMAGE ROTATED...</div>","","4","","","4","2","bas","right","practice","true"
"1110.399999990128","","html-button-response","196","2818247","0.0-6.0-0.10","16","","","0","","","","","","","",""
"null","","html-keyboard-response","197","2818325","0.0-6.0-1.10","16","<p><img class= 'stimulus' src='images/baseline/meadow-with-mountain-in-background.jpg'></img></p>","null","","1550093880151","","","","","","",""
"null","","html-keyboard-response","198","2818425","0.0-6.0-2.10","16","<p><img class= 'stimulus' src='images/baseline/farmhouse7.jpg'></img></p>","null","","1550093880253","","","","","","",""
"null","","html-keyboard-response","199","2818525","0.0-6.0-3.10","16","<p><img class= 'stimulus' src='images/baseline/Bahia_Onelli_Parque_Nacional_Los_Glaciares_Patagonia_Argentina_Luca_Galuzzi_2005.jpg'></img></p>","null","","1550093880353","","","","","","",""
"null","","html-keyboard-response","200","2818626","0.0-6.0-4.10","16","<p><img class= 'stimulus' src='images/baseline/Niinsaare_jarv.jpg'></img></p>","null","","1550093880452","4","","","","","",""
"null","","html-keyboard-response","201","2818725","0.0-6.0-5.10","16","<p><img class= 'stimulus' src='images/baseline/04300v.jpg'></img></p>","null","","1550093880551","","","","","","",""
"null","","html-keyboard-response","202","2818825","0.0-6.0-6.10","16","<p><img class= 'stimulus' src='images/baseline/Skijump 1.jpg'></img></p>","null","","1550093880652","6","","","","","",""
"null","","html-keyboard-response","203","2818925","0.0-6.0-7.10","16","<p><img class= 'stimulus' src='images/baseline/05131v.jpg'></img></p>","null","","1550093880752","","","","","","",""
"null","","html-keyboard-response","204","2819025","0.0-6.0-8.10","16","<p><img class= 'stimulus' src='images/baseline/02960v.jpg'></img></p>","null","","1550093880852","8","","","","","",""
"null","","html-keyboard-response","205","2819125","0.0-6.0-9.10","16","<p><img class= 'stimulus' src='images/baseline/03162v.jpg'></img></p>","null","","1550093880953","","","","","","",""
"null","","html-keyboard-response","206","2819225","0.0-6.0-10.10","16","<p><img class= 'stimulus' src='images/baseline/house1.jpg'></img></p>","null","","1550093881051","","","","","","",""
"null","","html-keyboard-response","207","2819325","0.0-6.0-11.10","16","<p><img class= 'stimulus' src='images/baseline/horse_statue.jpg'></img></p>","null","","1550093881151","","","","","","",""
"null","","html-keyboard-response","208","2819426","0.0-6.0-12.10","16","<p><img class= 'stimulus' src='images/baseline/Lake 16.jpg'></img></p>","null","","1550093881251","12","","","","","",""
"null","","html-keyboard-response","209","2819524","0.0-6.0-13.10","16","<p><img class= 'stimulus' src='images/baseline/04201v.jpg'></img></p>","null","","1550093881353","","","","","","",""
"null","","html-keyboard-response","210","2819625","0.0-6.0-14.10","16","<p><img class= 'stimulus left-rotate' src='images/target/transamerica-pyramid-530061_640.jpg'></img></p>","null","","1550093881453","14","","","","","",""
"null","","html-keyboard-response","211","2819724","0.0-6.0-15.10","16","<p><img class= 'stimulus' src='images/baseline/building9.jpg'></img></p>","null","","1550093881552","","","","","","",""
"null","","html-keyboard-response","212","2819825","0.0-6.0-16.10","16","<p><img class= 'stimulus' src='images/baseline/landscape4.jpg'></img></p>","null","","1550093881651","","","","","","",""
"null","","html-keyboard-response","213","2819942","0.0-6.0-17.10","16","<p><img class= 'stimulus' src='images/baseline/Beach 2.jpg'></img></p>","null","","1550093881752","","","","","","",""
"764.9000000092201","","html-button-response","214","2821711","0.0-6.0-18.10","16","<div class = ""response_question"">WAS THE IMAGE ROTATED...</div>","","0","","","6","8","bas","left","practice","true"
"846.4999999995343","","html-button-response","215","2822559","0.0-6.0-0.11","16","","","0","","","","","","","",""
"null","","html-keyboard-response","216","2822641","0.0-6.0-1.11","16","<p><img class= 'stimulus' src='images/baseline/pexels-photo-414491.jpeg'></img></p>","null","","1550093884467","","","","","","",""
"null","","html-keyboard-response","217","2822741","0.0-6.0-2.11","16","<p><img class= 'stimulus' src='images/baseline/house10.jpg'></img></p>","null","","1550093884568","","","","","","",""
"null","","html-keyboard-response","218","2822841","0.0-6.0-3.11","16","<p><img class= 'stimulus' src='images/baseline/sunny-landscape-with-dry-brush-and-mountain-background.jpg'></img></p>","null","","1550093884667","","","","","","",""
"null","","html-keyboard-response","219","2822941","0.0-6.0-4.11","16","<p><img class= 'stimulus' src='images/baseline/house11.jpg'></img></p>","null","","1550093884768","4","","","","","",""
"null","","html-keyboard-response","220","2823042","0.0-6.0-5.11","16","<p><img class= 'stimulus' src='images/baseline/pexels-photo-1837621.jpeg'></img></p>","null","","1550093884868","","","","","","",""
"null","","html-keyboard-response","221","2823143","0.0-6.0-6.11","16","<p><img class= 'stimulus' src='images/baseline/pexels-photo-1840893.jpeg'></img></p>","null","","1550093884968","6","","","","","",""
"null","","html-keyboard-response","222","2823241","0.0-6.0-7.11","16","<p><img class= 'stimulus' src='images/baseline/Road 1.jpg'></img></p>","null","","1550093885068","","","","","","",""
"null","","html-keyboard-response","223","2823341","0.0-6.0-8.11","16","<p><img class= 'stimulus' src='images/baseline/red-rocks-park.jpg'></img></p>","null","","1550093885168","8","","","","","",""
"null","","html-keyboard-response","224","2823441","0.0-6.0-9.11","16","<p><img class= 'stimulus' src='images/baseline/pexels-photo-210617.jpeg'></img></p>","null","","1550093885268","","","","","","",""
"null","","html-keyboard-response","225","2823541","0.0-6.0-10.11","16","<p><img class= 'stimulus' src='images/baseline/Sailing 3.jpg'></img></p>","null","","1550093885368","","","","","","",""
"null","","html-keyboard-response","226","2823641","0.0-6.0-11.11","16","<p><img class= 'stimulus' src='images/baseline/sun-through-winter-tree-branches1.jpg'></img></p>","null","","1550093885469","","","","","","",""
"null","","html-keyboard-response","227","2823741","0.0-6.0-12.11","16","<p><img class= 'stimulus left-rotate' src='images/target/building15.jpg'></img></p>","null","","1550093885567","12","","","","","",""
"null","","html-keyboard-response","228","2823841","0.0-6.0-13.11","16","<p><img class= 'stimulus' src='images/baseline/vintage-art-deco-storefront.jpg'></img></p>","null","","1550093885668","","","","","","",""
"null","","html-keyboard-response","229","2823941","0.0-6.0-14.11","16","<p><img class= 'stimulus' src='images/baseline/pexels-photo-568236.jpeg'></img></p>","null","","1550093885767","14","","","","","",""
"null","","html-keyboard-response","230","2824042","0.0-6.0-15.11","16","<p><img class= 'stimulus' src='images/baseline/pexels-photo-259280.jpeg'></img></p>","null","","1550093885869","","","","","","",""
"null","","html-keyboard-response","231","2824142","0.0-6.0-16.11","16","<p><img class= 'stimulus' src='images/baseline/foreclosed_home.jpg'></img></p>","null","","1550093885969","","","","","","",""
"null","","html-keyboard-response","232","2824258","0.0-6.0-17.11","16","<p><img class= 'stimulus' src='images/baseline/house2.jpg'></img></p>","null","","1550093886068","","","","","","",""
"1443.4999999939464","","html-button-response","233","2826711","0.0-6.0-18.11","16","<div class = ""response_question"">WAS THE IMAGE ROTATED...</div>","","2","","","4","8","bas","left","practice","false"
"2198.300000003539","","html-button-response","234","2828911","0.0-6.0-0.12","16","","","0","","","","","","","",""
"null","","html-keyboard-response","235","2828992","0.0-6.0-1.12","16","<p><img class= 'stimulus' src='images/baseline/landscape36.jpg'></img></p>","null","","1550093890818","","","","","","",""
"null","","html-keyboard-response","236","2829091","0.0-6.0-2.12","16","<p><img class= 'stimulus' src='images/baseline/03114v.jpg'></img></p>","null","","1550093890917","","","","","","",""
"null","","html-keyboard-response","237","2829192","0.0-6.0-3.12","16","<p><img class= 'stimulus' src='images/baseline/04063v.jpg'></img></p>","null","","1550093891017","","","","","","",""
"null","","html-keyboard-response","238","2829292","0.0-6.0-4.12","16","<p><img class= 'stimulus' src='images/baseline/05198v.jpg'></img></p>","null","","1550093891118","4","","","","","",""
"null","","html-keyboard-response","239","2829392","0.0-6.0-5.12","16","<p><img class= 'stimulus' src='images/baseline/Sunset 4.jpg'></img></p>","null","","1550093891218","","","","","","",""
"null","","html-keyboard-response","240","2829491","0.0-6.0-6.12","16","<p><img class= 'stimulus' src='images/baseline/Lake 4.jpg'></img></p>","null","","1550093891319","6","","","","","",""
"null","","html-keyboard-response","241","2829592","0.0-6.0-7.12","16","<p><img class= 'stimulus' src='images/baseline/pexels-photo-541101.jpeg'></img></p>","null","","1550093891419","","","","","","",""
"null","","html-keyboard-response","242","2829691","0.0-6.0-8.12","16","<p><img class= 'stimulus' src='images/baseline/03180v.jpg'></img></p>","null","","1550093891518","8","","","","","",""
"null","","html-keyboard-response","243","2829791","0.0-6.0-9.12","16","<p><img class= 'stimulus' src='images/baseline/Kocherbaumwald-01.jpg'></img></p>","null","","1550093891618","","","","","","",""
"null","","html-keyboard-response","244","2829892","0.0-6.0-10.12","16","<p><img class= 'stimulus' src='images/baseline/Camping 10.jpg'></img></p>","null","","1550093891718","","","","","","",""
"null","","html-keyboard-response","245","2829991","0.0-6.0-11.12","16","<p><img class= 'stimulus' src='images/baseline/04179v.jpg'></img></p>","null","","1550093891818","","","","","","",""
"null","","html-keyboard-response","246","2830091","0.0-6.0-12.12","16","<p><img class= 'stimulus' src='images/target/tree_1.jpg'></img></p>","null","","1550093891918","12","","","","","",""
"null","","html-keyboard-response","247","2830192","0.0-6.0-13.12","16","<p><img class= 'stimulus' src='images/baseline/landscape39.jpg'></img></p>","null","","1550093892018","","","","","","",""
"null","","html-keyboard-response","248","2830291","0.0-6.0-14.12","16","<p><img class= 'stimulus' src='images/baseline/Aletschgletscher-Eggishorn.jpg'></img></p>","null","","1550093892117","14","","","","","",""
"null","","html-keyboard-response","249","2830391","0.0-6.0-15.12","16","<p><img class= 'stimulus' src='images/baseline/02945v.jpg'></img></p>","null","","1550093892217","","","","","","",""
"null","","html-keyboard-response","250","2830492","0.0-6.0-16.12","16","<p><img class= 'stimulus' src='images/baseline/Lake 14.jpg'></img></p>","null","","1550093892319","","","","","","",""
"null","","html-keyboard-response","251","2830608","0.0-6.0-17.12","16","<p><img class= 'stimulus' src='images/baseline/landscape19.jpg'></img></p>","null","","1550093892418","","","","","","",""
"875.699999989476","","html-button-response","252","2832487","0.0-6.0-18.12","16","<div class = ""response_question"">WAS THE IMAGE ROTATED...</div>","","3","","","4","8","bas","right","practice","true"
"838.1999999983236","","html-button-response","253","2833327","0.0-6.0-0.13","16","","","0","","","","","","","",""
"null","","html-keyboard-response","254","2833408","0.0-6.0-1.13","16","<p><img class= 'stimulus' src='images/baseline/Lake 7.jpg'></img></p>","null","","1550093895235","","","","","","",""
"null","","html-keyboard-response","255","2833509","0.0-6.0-2.13","16","<p><img class= 'stimulus' src='images/baseline/lookout_tower.jpg'></img></p>","null","","1550093895334","","","","","","",""
"null","","html-keyboard-response","256","2833609","0.0-6.0-3.13","16","<p><img class= 'stimulus' src='images/baseline/building4.jpg'></img></p>","null","","1550093895435","","","","","","",""
"null","","html-keyboard-response","257","2833707","0.0-6.0-4.13","16","<p><img class= 'stimulus' src='images/baseline/Dirt 2.jpg'></img></p>","null","","1550093895534","4","","","","","",""
"null","","html-keyboard-response","258","2833808","0.0-6.0-5.13","16","<p><img class= 'stimulus' src='images/baseline/landscape35.jpg'></img></p>","null","","1550093895635","","","","","","",""
"null","","html-keyboard-response","259","2833909","0.0-6.0-6.13","16","<p><img class= 'stimulus' src='images/baseline/landscape38.jpg'></img></p>","null","","1550093895735","6","","","","","",""
"null","","html-keyboard-response","260","2834008","0.0-6.0-7.13","16","<p><img class= 'stimulus' src='images/baseline/04098v.jpg'></img></p>","null","","1550093895834","","","","","","",""
"null","","html-keyboard-response","261","2834108","0.0-6.0-8.13","16","<p><img class= 'stimulus' src='images/target/buildin5.jpg'></img></p>","null","","1550093895934","8","","","","","",""
"null","","html-keyboard-response","262","2834207","0.0-6.0-9.13","16","<p><img class= 'stimulus' src='images/baseline/05189v.jpg'></img></p>","null","","1550093896034","","","","","","",""
"null","","html-keyboard-response","263","2834308","0.0-6.0-10.13","16","<p><img class= 'stimulus' src='images/baseline/Street 1.jpg'></img></p>","null","","1550093896134","","","","","","",""
"null","","html-keyboard-response","264","2834408","0.0-6.0-11.13","16","<p><img class= 'stimulus' src='images/baseline/04060v.jpg'></img></p>","null","","1550093896235","","","","","","",""
"null","","html-keyboard-response","265","2834508","0.0-6.0-12.13","16","<p><img class= 'stimulus' src='images/baseline/cranes 1.jpg'></img></p>","null","","1550093896335","12","","","","","",""
"null","","html-keyboard-response","266","2834609","0.0-6.0-13.13","16","<p><img class= 'stimulus' src='images/baseline/05179v.jpg'></img></p>","null","","1550093896435","","","","","","",""
"null","","html-keyboard-response","267","2834709","0.0-6.0-14.13","16","<p><img class= 'stimulus' src='images/baseline/02947v.jpg'></img></p>","null","","1550093896535","14","","","","","",""
"null","","html-keyboard-response","268","2834808","0.0-6.0-15.13","16","<p><img class= 'stimulus' src='images/baseline/hills 3.jpg'></img></p>","null","","1550093896634","","","","","","",""
"null","","html-keyboard-response","269","2834908","0.0-6.0-16.13","16","<p><img class= 'stimulus' src='images/baseline/building2.jpg'></img></p>","null","","1550093896734","","","","","","",""
"null","","html-keyboard-response","270","2835025","0.0-6.0-17.13","16","<p><img class= 'stimulus' src='images/baseline/Lake 8.jpg'></img></p>","null","","1550093896834","","","","","","",""
"2467.0999999940395","","html-button-response","271","2838495","0.0-6.0-18.13","16","<div class = ""response_question"">WAS THE IMAGE ROTATED...</div>","","3","","","6","2","bas","right","practice","true"
"742.2999999979511","","html-button-response","272","2839239","0.0-6.0-0.14","16","","","0","","","","","","","",""
"null","","html-keyboard-response","273","2839324","0.0-6.0-1.14","16","<p><img class= 'stimulus' src='images/baseline/Skyscraper 2.jpg'></img></p>","null","","1550093901151","","","","","","",""
"null","","html-keyboard-response","274","2839425","0.0-6.0-2.14","16","<p><img class= 'stimulus' src='images/baseline/02971v.jpg'></img></p>","null","","1550093901251","","","","","","",""
"null","","html-keyboard-response","275","2839525","0.0-6.0-3.14","16","<p><img class= 'stimulus' src='images/baseline/Sunset 3.jpg'></img></p>","null","","1550093901351","","","","","","",""
"null","","html-keyboard-response","276","2839625","0.0-6.0-4.14","16","<p><img class= 'stimulus' src='images/baseline/farmhouse8.jpg'></img></p>","null","","1550093901452","4","","","","","",""
"null","","html-keyboard-response","277","2839725","0.0-6.0-5.14","16","<p><img class= 'stimulus' src='images/baseline/03201v.jpg'></img></p>","null","","1550093901551","","","","","","",""
"null","","html-keyboard-response","278","2839825","0.0-6.0-6.14","16","<p><img class= 'stimulus left-rotate' src='images/target/1937-single-tree-at-the-top-of-stone-mountain-pv.jpg'></img></p>","null","","1550093901651","6","","","","","",""
"null","","html-keyboard-response","279","2839924","0.0-6.0-7.14","16","<p><img class= 'stimulus' src='images/baseline/Grass 6.jpg'></img></p>","null","","1550093901750","","","","","","",""
"null","","html-keyboard-response","280","2840025","0.0-6.0-8.14","16","<p><img class= 'stimulus' src='images/baseline/farmhouse3.jpg'></img></p>","null","","1550093901851","8","","","","","",""
"null","","html-keyboard-response","281","2840125","0.0-6.0-9.14","16","<p><img class= 'stimulus' src='images/baseline/Street 2.jpg'></img></p>","null","","1550093901951","","","","","","",""
"null","","html-keyboard-response","282","2840225","0.0-6.0-10.14","16","<p><img class= 'stimulus' src='images/baseline/landscape23.jpg'></img></p>","null","","1550093902052","","","","","","",""
"null","","html-keyboard-response","283","2840326","0.0-6.0-11.14","16","<p><img class= 'stimulus' src='images/baseline/04031v.jpg'></img></p>","null","","1550093902151","","","","","","",""
"null","","html-keyboard-response","284","2840425","0.0-6.0-12.14","16","<p><img class= 'stimulus' src='images/baseline/Bridge 1.jpg'></img></p>","null","","1550093902251","12","","","","","",""
"null","","html-keyboard-response","285","2840524","0.0-6.0-13.14","16","<p><img class= 'stimulus' src='images/baseline/pexels-photo-427676.jpeg'></img></p>","null","","1550093902352","","","","","","",""
"null","","html-keyboard-response","286","2840625","0.0-6.0-14.14","16","<p><img class= 'stimulus' src='images/baseline/house6.jpg'></img></p>","null","","1550093902452","14","","","","","",""
"null","","html-keyboard-response","287","2840724","0.0-6.0-15.14","16","<p><img class= 'stimulus' src='images/baseline/Happy pose 3.jpg'></img></p>","null","","1550093902552","","","","","","",""
"null","","html-keyboard-response","288","2840824","0.0-6.0-16.14","16","<p><img class= 'stimulus' src='images/baseline/Freudenberg_sg_Switzerland.jpg'></img></p>","null","","1550093902652","","","","","","",""
"null","","html-keyboard-response","289","2840942","0.0-6.0-17.14","16","<p><img class= 'stimulus' src='images/baseline/building6.jpg'></img></p>","null","","1550093902752","","","","","","",""
"750.4000000045635","","html-button-response","290","2842695","0.0-6.0-18.14","16","<div class = ""response_question"">WAS THE IMAGE ROTATED...</div>","","0","","","4","2","bas","left","practice","true"
"926.300000006333","","html-button-response","291","2843623","0.0-6.0-0.15","16","","","0","","","","","","","",""
"null","","html-keyboard-response","292","2843708","0.0-6.0-1.15","16","<p><img class= 'stimulus' src='images/baseline/farmhouse4.jpg'></img></p>","null","","1550093905535","","","","","","",""
"null","","html-keyboard-response","293","2843808","0.0-6.0-2.15","16","<p><img class= 'stimulus' src='images/baseline/03063v.jpg'></img></p>","null","","1550093905635","","","","","","",""
"null","","html-keyboard-response","294","2843908","0.0-6.0-3.15","16","<p><img class= 'stimulus' src='images/baseline/05255v.jpg'></img></p>","null","","1550093905735","","","","","","",""
"null","","html-keyboard-response","295","2844008","0.0-6.0-4.15","16","<p><img class= 'stimulus' src='images/baseline/05264v.jpg'></img></p>","null","","1550093905836","4","","","","","",""
"null","","html-keyboard-response","296","2844108","0.0-6.0-5.15","16","<p><img class= 'stimulus' src='images/baseline/05242v.jpg'></img></p>","null","","1550093905935","","","","","","",""
"null","","html-keyboard-response","297","2844209","0.0-6.0-6.15","16","<p><img class= 'stimulus' src='images/baseline/landscape6.jpg'></img></p>","null","","1550093906035","6","","","","","",""
"null","","html-keyboard-response","298","2844309","0.0-6.0-7.15","16","<p><img class= 'stimulus' src='images/baseline/03217v.jpg'></img></p>","null","","1550093906136","","","","","","",""
"null","","html-keyboard-response","299","2844408","0.0-6.0-8.15","16","<p><img class= 'stimulus left-rotate' src='images/target/Wild-West-South-West-Usa-Landscape-America-1663497.jpg'></img></p>","null","","1550093906236","8","","","","","",""
"null","","html-keyboard-response","300","2844508","0.0-6.0-9.15","16","<p><img class= 'stimulus' src='images/baseline/05280v.jpg'></img></p>","null","","1550093906335","","","","","","",""
"null","","html-keyboard-response","301","2844608","0.0-6.0-10.15","16","<p><img class= 'stimulus' src='images/baseline/lake 2.jpg'></img></p>","null","","1550093906434","","","","","","",""
"null","","html-keyboard-response","302","2844708","0.0-6.0-11.15","16","<p><img class= 'stimulus' src='images/baseline/Sunset 6.jpg'></img></p>","null","","1550093906534","","","","","","",""
"null","","html-keyboard-response","303","2844809","0.0-6.0-12.15","16","<p><img class= 'stimulus' src='images/baseline/building_at_national_conservation.jpg'></img></p>","null","","1550093906634","12","","","","","",""
"null","","html-keyboard-response","304","2844908","0.0-6.0-13.15","16","<p><img class= 'stimulus' src='images/baseline/autumn-landscape-with-lake-fall-trees-mountains.jpg'></img></p>","null","","1550093906734","","","","","","",""
"null","","html-keyboard-response","305","2845009","0.0-6.0-14.15","16","<p><img class= 'stimulus' src='images/baseline/hills 4.jpg'></img></p>","null","","1550093906835","14","","","","","",""
"null","","html-keyboard-response","306","2845108","0.0-6.0-15.15","16","<p><img class= 'stimulus' src='images/baseline/05280v.jpg'></img></p>","null","","1550093906934","","","","","","",""
"null","","html-keyboard-response","307","2845208","0.0-6.0-16.15","16","<p><img class= 'stimulus' src='images/baseline/05247v.jpg'></img></p>","null","","1550093907035","","","","","","",""
"null","","html-keyboard-response","308","2845326","0.0-6.0-17.15","16","<p><img class= 'stimulus' src='images/baseline/landscape8.jpg'></img></p>","null","","1550093907135","","","","","","",""
"2494.1000000108033","","html-button-response","309","2848823","0.0-6.0-18.15","16","<div class = ""response_question"">WAS THE IMAGE ROTATED...</div>","","5","","","6","2","bas","left","practice","false"
"48397.89999999618","","html-button-response","310","2897237","0.0-7.0","16","<p>You have now completed the practice phase. We will now begin the real trials.         This is a reminder that you will be searching for a rotated image among the series of upright images.</p>         <p>Remember, please do not blink or move your eyes while the images are on the screen.</p>         <p>At the end of the experiment, the experimenter will be able to show you how accurate you were.</p>","","0","","","","","","","",""
"1190.9000000013039","","html-button-response","311","2898428","0.0-8.0-0.0-0.0","16","","","0","","","","","","","",""
"null","","html-keyboard-response","312","2898506","0.0-8.0-0.0-1.0","16","<p><img class= 'stimulus' src='images/baseline/04179v.jpg'></img></p>","null","","1550093960332","","","","","","",""
"null","","html-keyboard-response","313","2898605","0.0-8.0-0.0-2.0","16","<p><img class= 'stimulus' src='images/baseline/Dirt 2.jpg'></img></p>","null","","1550093960432","","","","","","",""
"null","","html-keyboard-response","314","2898704","0.0-8.0-0.0-3.0","16","<p><img class= 'stimulus' src='images/baseline/sunny-landscape-with-dry-brush-and-mountain-background.jpg'></img></p>","null","","1550093960532","","","","","","",""
"null","","html-keyboard-response","315","2898805","0.0-8.0-0.0-4.0","16","<p><img class= 'stimulus' src='images/neutral/Orangutan 1.jpg'></img></p>","null","","1550093960633","4","","","","","",""
"null","","html-keyboard-response","316","2898906","0.0-8.0-0.0-5.0","16","<p><img class= 'stimulus' src='images/baseline/house1.jpg'></img></p>","null","","1550093960733","","","","","","",""
"null","","html-keyboard-response","317","2899005","0.0-8.0-0.0-6.0","16","<p><img class= 'stimulus left-rotate' src='images/target/chicago-673558_640.jpg'></img></p>","null","","1550093960833","6","","","","","",""
"null","","html-keyboard-response","318","2899105","0.0-8.0-0.0-7.0","16","<p><img class= 'stimulus' src='images/baseline/pexels-photo-750108.jpeg'></img></p>","null","","1550093960933","","","","","","",""
"null","","html-keyboard-response","319","2899206","0.0-8.0-0.0-8.0","16","<p><img class= 'stimulus' src='images/baseline/farmhouse1.jpg'></img></p>","null","","1550093961032","8","","","","","",""
"null","","html-keyboard-response","320","2899306","0.0-8.0-0.0-9.0","16","<p><img class= 'stimulus' src='images/baseline/lake3.jpg'></img></p>","null","","1550093961132","","","","","","",""
"null","","html-keyboard-response","321","2899405","0.0-8.0-0.0-10.0","16","<p><img class= 'stimulus' src='images/baseline/05264v.jpg'></img></p>","null","","1550093961233","","","","","","",""
"null","","html-keyboard-response","322","2899505","0.0-8.0-0.0-11.0","16","<p><img class= 'stimulus' src='images/baseline/05131v.jpg'></img></p>","null","","1550093961333","","","","","","",""
"null","","html-keyboard-response","323","2899606","0.0-8.0-0.0-12.0","16","<p><img class= 'stimulus' src='images/baseline/valley 2.jpg'></img></p>","null","","1550093961432","12","","","","","",""
"null","","html-keyboard-response","324","2899706","0.0-8.0-0.0-13.0","16","<p><img class= 'stimulus' src='images/baseline/pexels-photo-1054289.jpeg'></img></p>","null","","1550093961532","","","","","","",""
"null","","html-keyboard-response","325","2899806","0.0-8.0-0.0-14.0","16","<p><img class= 'stimulus' src='images/baseline/pexels-photo-351264.jpeg'></img></p>","null","","1550093961632","14","","","","","",""
"null","","html-keyboard-response","326","2899906","0.0-8.0-0.0-15.0","16","<p><img class= 'stimulus' src='images/baseline/05198v.jpg'></img></p>","null","","1550093961733","","","","","","",""
"null","","html-keyboard-response","327","2900006","0.0-8.0-0.0-16.0","16","<p><img class= 'stimulus' src='images/baseline/03114v.jpg'></img></p>","null","","1550093961832","","","","","","",""
"null","","html-keyboard-response","328","2900122","0.0-8.0-0.0-17.0","16","<p><img class= 'stimulus' src='images/baseline/field 3.jpg'></img></p>","null","","1550093961933","","","","","","",""
"892.899999991525","","html-button-response","329","2902021","0.0-8.0-0.0-18.0","16","<div class = ""response_question"">WAS THE IMAGE ROTATED...</div>","","1","","","4","2","neu","left","test","true"
"1334.0999999926426","","html-button-response","330","2903356","0.0-8.0-0.0-0.1","16","","","0","","","","","","","",""
"null","","html-keyboard-response","331","2903439","0.0-8.0-0.0-1.1","16","<p><img class= 'stimulus' src='images/baseline/04040v.jpg'></img></p>","null","","1550093965266","","","","","","",""
"null","","html-keyboard-response","332","2903538","0.0-8.0-0.0-2.1","16","<p><img class= 'stimulus' src='images/baseline/valley 1.jpg'></img></p>","null","","1550093965366","","","","","","",""
"null","","html-keyboard-response","333","2903639","0.0-8.0-0.0-3.1","16","<p><img class= 'stimulus' src='images/baseline/02960v.jpg'></img></p>","null","","1550093965465","","","","","","",""
"null","","html-keyboard-response","334","2903739","0.0-8.0-0.0-4.1","16","<p><img class= 'stimulus' src='images/baseline/Sky 1.jpg'></img></p>","null","","1550093965565","4","","","","","",""
"null","","html-keyboard-response","335","2903839","0.0-8.0-0.0-5.1","16","<p><img class= 'stimulus' src='images/baseline/Lake 3.jpg'></img></p>","null","","1550093965666","","","","","","",""
"null","","html-keyboard-response","336","2903939","0.0-8.0-0.0-6.1","16","<p><img class= 'stimulus' src='images/baseline/02971v.jpg'></img></p>","null","","1550093965765","6","","","","","",""
"null","","html-keyboard-response","337","2904039","0.0-8.0-0.0-7.1","16","<p><img class= 'stimulus' src='images/baseline/bird-flying-at-sunset.jpg'></img></p>","null","","1550093965865","","","","","","",""
"null","","html-keyboard-response","338","2904140","0.0-8.0-0.0-8.1","16","<p><img class= 'stimulus' src='images/baseline/pexels-photo-459203.jpeg'></img></p>","null","","1550093965965","8","","","","","",""
"null","","html-keyboard-response","339","2904239","0.0-8.0-0.0-9.1","16","<p><img class= 'stimulus' src='images/baseline/04060v.jpg'></img></p>","null","","1550093966065","","","","","","",""
"null","","html-keyboard-response","340","2904339","0.0-8.0-0.0-10.1","16","<p><img class= 'stimulus' src='images/baseline/Path 1.jpg'></img></p>","null","","1550093966165","","","","","","",""
"null","","html-keyboard-response","341","2904440","0.0-8.0-0.0-11.1","16","<p><img class= 'stimulus' src='images/baseline/Street 2.jpg'></img></p>","null","","1550093966266","","","","","","",""
"null","","html-keyboard-response","342","2904538","0.0-8.0-0.0-12.1","16","<p><img class= 'stimulus left-rotate' src='images/target/tree1.jpg'></img></p>","null","","1550093966366","12","","","","","",""
"null","","html-keyboard-response","343","2904638","0.0-8.0-0.0-13.1","16","<p><img class= 'stimulus' src='images/baseline/pexels-photo-808465.jpeg'></img></p>","null","","1550093966465","","","","","","",""
"null","","html-keyboard-response","344","2904738","0.0-8.0-0.0-14.1","16","<p><img class= 'stimulus' src='images/baseline/Street 4.jpg'></img></p>","null","","1550093966565","14","","","","","",""
"null","","html-keyboard-response","345","2904839","0.0-8.0-0.0-15.1","16","<p><img class= 'stimulus' src='images/baseline/Kocherbaumwald-01.jpg'></img></p>","null","","1550093966665","","","","","","",""
"null","","html-keyboard-response","346","2904939","0.0-8.0-0.0-16.1","16","<p><img class= 'stimulus' src='images/baseline/Sunset 5.jpg'></img></p>","null","","1550093966765","","","","","","",""
"null","","html-keyboard-response","347","2905055","0.0-8.0-0.0-17.1","16","<p><img class= 'stimulus' src='images/baseline/02982v.jpg'></img></p>","null","","1550093966866","","","","","","",""
"1242.5999999977648","","html-button-response","348","2907301","0.0-8.0-0.0-18.1","16","<div class = ""response_question"">WAS THE IMAGE ROTATED...</div>","","0","","","4","8","bas","left","test","true"
"2694.6000000024214","","html-button-response","349","2909996","0.0-8.0-0.0-0.2","16","","","0","","","","","","","",""
"null","","html-keyboard-response","350","2910073","0.0-8.0-0.0-1.2","16","<p><img class= 'stimulus' src='images/baseline/kokkari-1523011968Xfr.jpg'></img></p>","null","","1550093971899","","","","","","",""
"null","","html-keyboard-response","351","2910172","0.0-8.0-0.0-2.2","16","<p><img class= 'stimulus' src='images/baseline/pexels-photo-534164.jpeg'></img></p>","null","","1550093971999","","","","","","",""
"null","","html-keyboard-response","352","2910272","0.0-8.0-0.0-3.2","16","<p><img class= 'stimulus' src='images/baseline/grand-teton-mountains.jpg'></img></p>","null","","1550093972099","","","","","","",""
"null","","html-keyboard-response","353","2910373","0.0-8.0-0.0-4.2","16","<p><img class= 'stimulus' src='images/baseline/landscape40.jpg'></img></p>","null","","1550093972199","4","","","","","",""
"null","","html-keyboard-response","354","2910472","0.0-8.0-0.0-5.2","16","<p><img class= 'stimulus' src='images/baseline/lookout_tower.jpg'></img></p>","null","","1550093972299","","","","","","",""
"null","","html-keyboard-response","355","2910572","0.0-8.0-0.0-6.2","16","<p><img class= 'stimulus' src='images/negative/Shark 11.jpg'></img></p>","null","","1550093972400","6","","","","","",""
"null","","html-keyboard-response","356","2910672","0.0-8.0-0.0-7.2","16","<p><img class= 'stimulus' src='images/baseline/pexels-photo-1261728.jpeg'></img></p>","null","","1550093972499","","","","","","",""
"null","","html-keyboard-response","357","2910772","0.0-8.0-0.0-8.2","16","<p><img class= 'stimulus' src='images/target/palm-trees-1209125_640.jpg'></img></p>","null","","1550093972598","8","","","","","",""
"null","","html-keyboard-response","358","2910872","0.0-8.0-0.0-9.2","16","<p><img class= 'stimulus' src='images/baseline/03098v.jpg'></img></p>","null","","1550093972698","","","","","","",""
"null","","html-keyboard-response","359","2910972","0.0-8.0-0.0-10.2","16","<p><img class= 'stimulus' src='images/baseline/hills 3.jpg'></img></p>","null","","1550093972799","","","","","","",""
"null","","html-keyboard-response","360","2911072","0.0-8.0-0.0-11.2","16","<p><img class= 'stimulus' src='images/baseline/05203v.jpg'></img></p>","null","","1550093972898","","","","","","",""
"null","","html-keyboard-response","361","2911172","0.0-8.0-0.0-12.2","16","<p><img class= 'stimulus' src='images/baseline/03217v.jpg'></img></p>","null","","1550093972999","12","","","","","",""
"null","","html-keyboard-response","362","2911274","0.0-8.0-0.0-13.2","16","<p><img class= 'stimulus' src='images/baseline/05186v.jpg'></img></p>","null","","1550093973099","","","","","","",""
"null","","html-keyboard-response","363","2911372","0.0-8.0-0.0-14.2","16","<p><img class= 'stimulus' src='images/baseline/Niinsaare_jarv.jpg'></img></p>","null","","1550093973198","14","","","","","",""
"null","","html-keyboard-response","364","2911473","0.0-8.0-0.0-15.2","16","<p><img class= 'stimulus' src='images/baseline/02962v.jpg'></img></p>","null","","1550093973298","","","","","","",""
"null","","html-keyboard-response","365","2911572","0.0-8.0-0.0-16.2","16","<p><img class= 'stimulus' src='images/baseline/pexels-photo-221125.jpeg'></img></p>","null","","1550093973399","","","","","","",""
"null","","html-keyboard-response","366","2911689","0.0-8.0-0.0-17.2","16","<p><img class= 'stimulus' src='images/baseline/house10.jpg'></img></p>","null","","1550093973499","","","","","","",""
"1143.1000000014901","","html-button-response","367","2913836","0.0-8.0-0.0-18.2","16","<div class = ""response_question"">WAS THE IMAGE ROTATED...</div>","","4","","","6","2","neg","right","test","true"
"1494.2999999914318","","html-button-response","368","2915332","0.0-8.0-0.0-0.3","16","","","0","","","","","","","",""
"null","","html-keyboard-response","369","2915406","0.0-8.0-0.0-1.3","16","<p><img class= 'stimulus' src='images/baseline/03041v.jpg'></img></p>","null","","1550093977232","","","","","","",""
"null","","html-keyboard-response","370","2915506","0.0-8.0-0.0-2.3","16","<p><img class= 'stimulus' src='images/baseline/autumn-landscape-with-lake-fall-trees-mountains.jpg'></img></p>","null","","1550093977332","","","","","","",""
"null","","html-keyboard-response","371","2915606","0.0-8.0-0.0-3.3","16","<p><img class= 'stimulus' src='images/baseline/farmhouse9.jpg'></img></p>","null","","1550093977433","","","","","","",""
"null","","html-keyboard-response","372","2915706","0.0-8.0-0.0-4.3","16","<p><img class= 'stimulus' src='images/baseline/field 1.jpg'></img></p>","null","","1550093977532","4","","","","","",""
"null","","html-keyboard-response","373","2915806","0.0-8.0-0.0-5.3","16","<p><img class= 'stimulus' src='images/baseline/Lake 16.jpg'></img></p>","null","","1550093977633","","","","","","",""
"null","","html-keyboard-response","374","2915905","0.0-8.0-0.0-6.3","16","<p><img class= 'stimulus left-rotate' src='images/target/building19.jpg'></img></p>","null","","1550093977732","6","","","","","",""
"null","","html-keyboard-response","375","2916006","0.0-8.0-0.0-7.3","16","<p><img class= 'stimulus' src='images/baseline/landscape37.jpg'></img></p>","null","","1550093977832","","","","","","",""
"null","","html-keyboard-response","376","2916107","0.0-8.0-0.0-8.3","16","<p><img class= 'stimulus' src='images/baseline/03148v.jpg'></img></p>","null","","1550093977933","8","","","","","",""
"null","","html-keyboard-response","377","2916205","0.0-8.0-0.0-9.3","16","<p><img class= 'stimulus' src='images/baseline/03045v.jpg'></img></p>","null","","1550093978032","","","","","","",""
"null","","html-keyboard-response","378","2916305","0.0-8.0-0.0-10.3","16","<p><img class= 'stimulus' src='images/baseline/03056v.jpg'></img></p>","null","","1550093978133","","","","","","",""
"null","","html-keyboard-response","379","2916405","0.0-8.0-0.0-11.3","16","<p><img class= 'stimulus' src='images/baseline/05161v.jpg'></img></p>","null","","1550093978232","","","","","","",""
"null","","html-keyboard-response","380","2916506","0.0-8.0-0.0-12.3","16","<p><img class= 'stimulus' src='images/baseline/meadow-with-mountain-in-background.jpg'></img></p>","null","","1550093978332","12","","","","","",""
"null","","html-keyboard-response","381","2916606","0.0-8.0-0.0-13.3","16","<p><img class= 'stimulus' src='images/baseline/farmhouse6.jpg'></img></p>","null","","1550093978433","","","","","","",""
"null","","html-keyboard-response","382","2916705","0.0-8.0-0.0-14.3","16","<p><img class= 'stimulus' src='images/baseline/river 1.jpg'></img></p>","null","","1550093978533","14","","","","","",""
"null","","html-keyboard-response","383","2916806","0.0-8.0-0.0-15.3","16","<p><img class= 'stimulus' src='images/baseline/architecture-1314416_1920.jpg'></img></p>","null","","1550093978633","","","","","","",""
"null","","html-keyboard-response","384","2916906","0.0-8.0-0.0-16.3","16","<p><img class= 'stimulus' src='images/baseline/landscape31.jpg'></img></p>","null","","1550093978732","","","","","","",""
"null","","html-keyboard-response","385","2917022","0.0-8.0-0.0-17.3","16","<p><img class= 'stimulus' src='images/baseline/04284v.jpg'></img></p>","null","","1550093978833","","","","","","",""
"790.4000000129454","","html-button-response","386","2918820","0.0-8.0-0.0-18.3","16","<div class = ""response_question"">WAS THE IMAGE ROTATED...</div>","","0","","","4","2","bas","left","test","true"
"1302.4999999906868","","html-button-response","387","2920124","0.0-8.0-0.0-0.4","16","","","0","","","","","","","",""
"null","","html-keyboard-response","388","2920205","0.0-8.0-0.0-1.4","16","<p><img class= 'stimulus' src='images/baseline/pexels-photo-280222.jpeg'></img></p>","null","","1550093982031","","","","","","",""
"null","","html-keyboard-response","389","2920305","0.0-8.0-0.0-2.4","16","<p><img class= 'stimulus' src='images/baseline/chicago-skyline-at-night-1476869511p8U.jpg'></img></p>","null","","1550093982132","","","","","","",""
"null","","html-keyboard-response","390","2920405","0.0-8.0-0.0-3.4","16","<p><img class= 'stimulus' src='images/baseline/building9.jpg'></img></p>","null","","1550093982232","","","","","","",""
"null","","html-keyboard-response","391","2920505","0.0-8.0-0.0-4.4","16","<p><img class= 'stimulus' src='images/neutral/Dog 29.jpg'></img></p>","null","","1550093982332","4","","","","","",""
"null","","html-keyboard-response","392","2920606","0.0-8.0-0.0-5.4","16","<p><img class= 'stimulus' src='images/baseline/05255v.jpg'></img></p>","null","","1550093982432","","","","","","",""
"null","","html-keyboard-response","393","2920706","0.0-8.0-0.0-6.4","16","<p><img class= 'stimulus' src='images/target/adventure-desert-landscape-6778.jpg'></img></p>","null","","1550093982532","6","","","","","",""
"null","","html-keyboard-response","394","2920805","0.0-8.0-0.0-7.4","16","<p><img class= 'stimulus' src='images/baseline/Sunset 6.jpg'></img></p>","null","","1550093982632","","","","","","",""
"null","","html-keyboard-response","395","2920906","0.0-8.0-0.0-8.4","16","<p><img class= 'stimulus' src='images/baseline/02945v.jpg'></img></p>","null","","1550093982733","8","","","","","",""
"null","","html-keyboard-response","396","2921006","0.0-8.0-0.0-9.4","16","<p><img class= 'stimulus' src='images/baseline/Grass 6.jpg'></img></p>","null","","1550093982833","","","","","","",""
"null","","html-keyboard-response","397","2921106","0.0-8.0-0.0-10.4","16","<p><img class= 'stimulus' src='images/baseline/04193v.jpg'></img></p>","null","","1550093982932","","","","","","",""
"null","","html-keyboard-response","398","2921206","0.0-8.0-0.0-11.4","16","<p><img class= 'stimulus' src='images/baseline/agriculture-bright-clouds-440731.jpg'></img></p>","null","","1550093983032","","","","","","",""
"null","","html-keyboard-response","399","2921306","0.0-8.0-0.0-12.4","16","<p><img class= 'stimulus' src='images/baseline/agriculture-cereal-clouds-175389.jpg'></img></p>","null","","1550093983132","12","","","","","",""
"null","","html-keyboard-response","400","2921406","0.0-8.0-0.0-13.4","16","<p><img class= 'stimulus' src='images/baseline/Camping 10.jpg'></img></p>","null","","1550093983232","","","","","","",""
"null","","html-keyboard-response","401","2921507","0.0-8.0-0.0-14.4","16","<p><img class= 'stimulus' src='images/baseline/sun-through-winter-tree-branches1.jpg'></img></p>","null","","1550093983332","14","","","","","",""
"null","","html-keyboard-response","402","2921606","0.0-8.0-0.0-15.4","16","<p><img class= 'stimulus' src='images/baseline/house11.jpg'></img></p>","null","","1550093983433","","","","","","",""
"null","","html-keyboard-response","403","2921706","0.0-8.0-0.0-16.4","16","<p><img class= 'stimulus' src='images/baseline/Freudenberg_sg_Switzerland.jpg'></img></p>","null","","1550093983533","","","","","","",""
"null","","html-keyboard-response","404","2921822","0.0-8.0-0.0-17.4","16","<p><img class= 'stimulus' src='images/baseline/Beach 3.jpg'></img></p>","null","","1550093983632","","","","","","",""
"650.9999999976717","","html-button-response","405","2923477","0.0-8.0-0.0-18.4","16","<div class = ""response_question"">WAS THE IMAGE ROTATED...</div>","","4","","","4","2","neu","right","test","true"
"1326.1999999959953","","html-button-response","406","2924805","0.0-8.0-0.0-0.5","16","","","0","","","","","","","",""
"null","","html-keyboard-response","407","2924889","0.0-8.0-0.0-1.5","16","<p><img class= 'stimulus' src='images/baseline/cyrillic.jpg'></img></p>","null","","1550093986717","","","","","","",""
"null","","html-keyboard-response","408","2924989","0.0-8.0-0.0-2.5","16","<p><img class= 'stimulus' src='images/baseline/geese-flying-over-lake-at-dusk.jpg'></img></p>","null","","1550093986816","","","","","","",""
"null","","html-keyboard-response","409","2925089","0.0-8.0-0.0-3.5","16","<p><img class= 'stimulus' src='images/baseline/Nature 2.jpg'></img></p>","null","","1550093986915","","","","","","",""
"null","","html-keyboard-response","410","2925189","0.0-8.0-0.0-4.5","16","<p><img class= 'stimulus' src='images/baseline/05189v.jpg'></img></p>","null","","1550093987016","4","","","","","",""
"null","","html-keyboard-response","411","2925289","0.0-8.0-0.0-5.5","16","<p><img class= 'stimulus' src='images/baseline/lake 2.jpg'></img></p>","null","","1550093987116","","","","","","",""
"null","","html-keyboard-response","412","2925390","0.0-8.0-0.0-6.5","16","<p><img class= 'stimulus' src='images/target/building5.jpg'></img></p>","null","","1550093987215","6","","","","","",""
"null","","html-keyboard-response","413","2925489","0.0-8.0-0.0-7.5","16","<p><img class= 'stimulus' src='images/baseline/landscape6.jpg'></img></p>","null","","1550093987315","","","","","","",""
"null","","html-keyboard-response","414","2925589","0.0-8.0-0.0-8.5","16","<p><img class= 'stimulus' src='images/baseline/Sunset 4.jpg'></img></p>","null","","1550093987416","8","","","","","",""
"null","","html-keyboard-response","415","2925689","0.0-8.0-0.0-9.5","16","<p><img class= 'stimulus' src='images/baseline/05279v.jpg'></img></p>","null","","1550093987516","","","","","","",""
"null","","html-keyboard-response","416","2925790","0.0-8.0-0.0-10.5","16","<p><img class= 'stimulus' src='images/baseline/05167v.jpg'></img></p>","null","","1550093987616","","","","","","",""
"null","","html-keyboard-response","417","2925889","0.0-8.0-0.0-11.5","16","<p><img class= 'stimulus' src='images/baseline/field 4.jpg'></img></p>","null","","1550093987715","","","","","","",""
"null","","html-keyboard-response","418","2925989","0.0-8.0-0.0-12.5","16","<p><img class= 'stimulus' src='images/baseline/04098v.jpg'></img></p>","null","","1550093987817","12","","","","","",""
"null","","html-keyboard-response","419","2926090","0.0-8.0-0.0-13.5","16","<p><img class= 'stimulus' src='images/baseline/trees 23.jpg'></img></p>","null","","1550093987916","","","","","","",""
"null","","html-keyboard-response","420","2926189","0.0-8.0-0.0-14.5","16","<p><img class= 'stimulus' src='images/baseline/sunset-over-the-lake.jpg'></img></p>","null","","1550093988016","14","","","","","",""
"null","","html-keyboard-response","421","2926289","0.0-8.0-0.0-15.5","16","<p><img class= 'stimulus' src='images/baseline/05303v.jpg'></img></p>","null","","1550093988117","","","","","","",""
"null","","html-keyboard-response","422","2926389","0.0-8.0-0.0-16.5","16","<p><img class= 'stimulus' src='images/baseline/04196v.jpg'></img></p>","null","","1550093988215","","","","","","",""
"null","","html-keyboard-response","423","2926507","0.0-8.0-0.0-17.5","16","<p><img class= 'stimulus' src='images/baseline/Cold 7.jpg'></img></p>","null","","1550093988315","","","","","","",""
"768.8999999952503","","html-button-response","424","2928284","0.0-8.0-0.0-18.5","16","<div class = ""response_question"">WAS THE IMAGE ROTATED...</div>","","3","","","4","2","bas","right","test","true"
"1070.5999999917112","","html-button-response","425","2929356","0.0-8.0-0.0-0.6","16","","","0","","","","","","","",""
"null","","html-keyboard-response","426","2929438","0.0-8.0-0.0-1.6","16","<p><img class= 'stimulus' src='images/baseline/red rocks from afar.jpg'></img></p>","null","","1550093991266","","","","","","",""
"null","","html-keyboard-response","427","2929540","0.0-8.0-0.0-2.6","16","<p><img class= 'stimulus' src='images/baseline/Lake 15.jpg'></img></p>","null","","1550093991367","","","","","","",""
"null","","html-keyboard-response","428","2929638","0.0-8.0-0.0-3.6","16","<p><img class= 'stimulus' src='images/baseline/Beach 8.jpg'></img></p>","null","","1550093991466","","","","","","",""
"null","","html-keyboard-response","429","2929739","0.0-8.0-0.0-4.6","16","<p><img class= 'stimulus' src='images/baseline/tennis-court-net-buried-in-snow.jpg'></img></p>","null","","1550093991566","4","","","","","",""
"null","","html-keyboard-response","430","2929839","0.0-8.0-0.0-5.6","16","<p><img class= 'stimulus' src='images/baseline/house7.jpg'></img></p>","null","","1550093991665","","","","","","",""
"null","","html-keyboard-response","431","2929939","0.0-8.0-0.0-6.6","16","<p><img class= 'stimulus' src='images/neutral/Goat 2.jpg'></img></p>","null","","1550093991765","6","","","","","",""
"null","","html-keyboard-response","432","2930039","0.0-8.0-0.0-7.6","16","<p><img class= 'stimulus' src='images/baseline/architecture_modern_architecture_852928.jpg'></img></p>","null","","1550093991865","","","","","","",""
"null","","html-keyboard-response","433","2930139","0.0-8.0-0.0-8.6","16","<p><img class= 'stimulus' src='images/target/mitre peak.jpg'></img></p>","null","","1550093991965","8","","","","","",""
"null","","html-keyboard-response","434","2930240","0.0-8.0-0.0-9.6","16","<p><img class= 'stimulus' src='images/baseline/building12.jpg'></img></p>","null","","1550093992066","","","","","","",""
"null","","html-keyboard-response","435","2930340","0.0-8.0-0.0-10.6","16","<p><img class= 'stimulus' src='images/baseline/landscape23.jpg'></img></p>","null","","1550093992165","","","","","","",""
"null","","html-keyboard-response","436","2930440","0.0-8.0-0.0-11.6","16","<p><img class= 'stimulus' src='images/baseline/pexels-photo-440731.jpeg'></img></p>","null","","1550093992266","","","","","","",""
"null","","html-keyboard-response","437","2930539","0.0-8.0-0.0-12.6","16","<p><img class= 'stimulus' src='images/baseline/Lake 7.jpg'></img></p>","null","","1550093992366","12","","","","","",""
"null","","html-keyboard-response","438","2930640","0.0-8.0-0.0-13.6","16","<p><img class= 'stimulus' src='images/baseline/03066v.jpg'></img></p>","null","","1550093992466","","","","","","",""
"null","","html-keyboard-response","439","2930740","0.0-8.0-0.0-14.6","16","<p><img class= 'stimulus' src='images/baseline/church-silhouette-8712964986014Kb.jpg'></img></p>","null","","1550093992566","14","","","","","",""
"null","","html-keyboard-response","440","2930839","0.0-8.0-0.0-15.6","16","<p><img class= 'stimulus' src='images/baseline/pexels-photo-59321.jpeg'></img></p>","null","","1550093992666","","","","","","",""
"null","","html-keyboard-response","441","2930939","0.0-8.0-0.0-16.6","16","<p><img class= 'stimulus' src='images/baseline/Beach 2.jpg'></img></p>","null","","1550093992765","","","","","","",""
"null","","html-keyboard-response","442","2931056","0.0-8.0-0.0-17.6","16","<p><img class= 'stimulus' src='images/baseline/02947v.jpg'></img></p>","null","","1550093992865","","","","","","",""
"1040.30000000773","","html-button-response","443","2933101","0.0-8.0-0.0-18.6","16","<div class = ""response_question"">WAS THE IMAGE ROTATED...</div>","","2","","","6","2","neu","right","test","false"
"1062.2000000001863","","html-button-response","444","2934164","0.0-8.0-0.0-0.7","16","","","0","","","","","","","",""
"null","","html-keyboard-response","445","2934239","0.0-8.0-0.0-1.7","16","<p><img class= 'stimulus' src='images/baseline/05158v.jpg'></img></p>","null","","1550093996065","","","","","","",""
"null","","html-keyboard-response","446","2934339","0.0-8.0-0.0-2.7","16","<p><img class= 'stimulus' src='images/baseline/Skyscraper 2.jpg'></img></p>","null","","1550093996166","","","","","","",""
"null","","html-keyboard-response","447","2934439","0.0-8.0-0.0-3.7","16","<p><img class= 'stimulus' src='images/baseline/building_at_national_conservation.jpg'></img></p>","null","","1550093996266","","","","","","",""
"null","","html-keyboard-response","448","2934539","0.0-8.0-0.0-4.7","16","<p><img class= 'stimulus' src='images/baseline/snowy tree.jpg'></img></p>","null","","1550093996366","4","","","","","",""
"null","","html-keyboard-response","449","2934639","0.0-8.0-0.0-5.7","16","<p><img class= 'stimulus' src='images/baseline/Sidewalk 4.jpg'></img></p>","null","","1550093996467","","","","","","",""
"null","","html-keyboard-response","450","2934739","0.0-8.0-0.0-6.7","16","<p><img class= 'stimulus' src='images/baseline/farmhouse8.jpg'></img></p>","null","","1550093996566","6","","","","","",""
"null","","html-keyboard-response","451","2934839","0.0-8.0-0.0-7.7","16","<p><img class= 'stimulus' src='images/baseline/Paysage_enneige_02.jpg'></img></p>","null","","1550093996665","","","","","","",""
"null","","html-keyboard-response","452","2934940","0.0-8.0-0.0-8.7","16","<p><img class= 'stimulus' src='images/baseline/pexels-photo-894312.jpeg'></img></p>","null","","1550093996765","8","","","","","",""
"null","","html-keyboard-response","453","2935040","0.0-8.0-0.0-9.7","16","<p><img class= 'stimulus' src='images/baseline/Street 5.jpg'></img></p>","null","","1550093996866","","","","","","",""
"null","","html-keyboard-response","454","2935141","0.0-8.0-0.0-10.7","16","<p><img class= 'stimulus' src='images/baseline/Happy pose 3.jpg'></img></p>","null","","1550093996966","","","","","","",""
"null","","html-keyboard-response","455","2935239","0.0-8.0-0.0-11.7","16","<p><img class= 'stimulus' src='images/baseline/building3.jpg'></img></p>","null","","1550093997066","","","","","","",""
"null","","html-keyboard-response","456","2935339","0.0-8.0-0.0-12.7","16","<p><img class= 'stimulus' src='images/baseline/vintage-art-deco-storefront.jpg'></img></p>","null","","1550093997165","12","","","","","",""
"null","","html-keyboard-response","457","2935439","0.0-8.0-0.0-13.7","16","<p><img class= 'stimulus' src='images/baseline/scenic-mountain-landscape.jpg'></img></p>","null","","1550093997266","","","","","","",""
"null","","html-keyboard-response","458","2935540","0.0-8.0-0.0-14.7","16","<p><img class= 'stimulus' src='images/target/coconut-3396945_640.jpg'></img></p>","null","","1550093997367","14","","","","","",""
"null","","html-keyboard-response","459","2935639","0.0-8.0-0.0-15.7","16","<p><img class= 'stimulus' src='images/baseline/04229v.jpg'></img></p>","null","","1550093997466","","","","","","",""
"null","","html-keyboard-response","460","2935739","0.0-8.0-0.0-16.7","16","<p><img class= 'stimulus' src='images/baseline/Skijump 1.jpg'></img></p>","null","","1550093997566","","","","","","",""
"null","","html-keyboard-response","461","2935856","0.0-8.0-0.0-17.7","16","<p><img class= 'stimulus' src='images/baseline/04117v.jpg'></img></p>","null","","1550093997665","","","","","","",""
"1703.1000000135973","","html-button-response","462","2938565","0.0-8.0-0.0-18.7","16","<div class = ""response_question"">WAS THE IMAGE ROTATED...</div>","","5","","","6","8","bas","right","test","false"
"1574.0999999977648","","html-button-response","463","2940140","0.0-8.0-0.0-0.8","16","","","0","","","","","","","",""
"null","","html-keyboard-response","464","2940223","0.0-8.0-0.0-1.8","16","<p><img class= 'stimulus' src='images/baseline/landscape36.jpg'></img></p>","null","","1550094002050","","","","","","",""
"null","","html-keyboard-response","465","2940323","0.0-8.0-0.0-2.8","16","<p><img class= 'stimulus' src='images/baseline/04130v.jpg'></img></p>","null","","1550094002148","","","","","","",""
"null","","html-keyboard-response","466","2940423","0.0-8.0-0.0-3.8","16","<p><img class= 'stimulus' src='images/baseline/pexels-photo-1287089.jpeg'></img></p>","null","","1550094002249","","","","","","",""
"null","","html-keyboard-response","467","2940523","0.0-8.0-0.0-4.8","16","<p><img class= 'stimulus' src='images/baseline/Sailing 3.jpg'></img></p>","null","","1550094002349","4","","","","","",""
"null","","html-keyboard-response","468","2940623","0.0-8.0-0.0-5.8","16","<p><img class= 'stimulus' src='images/baseline/agriculture-countryside-crop-259280.jpg'></img></p>","null","","1550094002449","","","","","","",""
"null","","html-keyboard-response","469","2940722","0.0-8.0-0.0-6.8","16","<p><img class= 'stimulus' src='images/baseline/pexels-photo-1837621.jpeg'></img></p>","null","","1550094002549","6","","","","","",""
"null","","html-keyboard-response","470","2940823","0.0-8.0-0.0-7.8","16","<p><img class= 'stimulus' src='images/baseline/04064v.jpg'></img></p>","null","","1550094002649","","","","","","",""
"null","","html-keyboard-response","471","2940923","0.0-8.0-0.0-8.8","16","<p><img class= 'stimulus' src='images/baseline/landscape39.jpg'></img></p>","null","","1550094002749","8","","","","","",""
"null","","html-keyboard-response","472","2941022","0.0-8.0-0.0-9.8","16","<p><img class= 'stimulus' src='images/baseline/landscape11.jpg'></img></p>","null","","1550094002849","","","","","","",""
"null","","html-keyboard-response","473","2941123","0.0-8.0-0.0-10.8","16","<p><img class= 'stimulus' src='images/baseline/pexels-photo-1048039.jpeg'></img></p>","null","","1550094002948","","","","","","",""
"null","","html-keyboard-response","474","2941223","0.0-8.0-0.0-11.8","16","<p><img class= 'stimulus' src='images/baseline/horse_statue.jpg'></img></p>","null","","1550094003048","","","","","","",""
"null","","html-keyboard-response","475","2941323","0.0-8.0-0.0-12.8","16","<p><img class= 'stimulus' src='images/baseline/lone-old-cottonwood-tree.jpg'></img></p>","null","","1550094003148","12","","","","","",""
"null","","html-keyboard-response","476","2941423","0.0-8.0-0.0-13.8","16","<p><img class= 'stimulus' src='images/baseline/02988v.jpg'></img></p>","null","","1550094003249","","","","","","",""
"null","","html-keyboard-response","477","2941523","0.0-8.0-0.0-14.8","16","<p><img class= 'stimulus' src='images/baseline/Paysage_karabagh_02.jpg'></img></p>","null","","1550094003350","14","","","","","",""
"null","","html-keyboard-response","478","2941623","0.0-8.0-0.0-15.8","16","<p><img class= 'stimulus' src='images/baseline/Road 1.jpg'></img></p>","null","","1550094003449","","","","","","",""
"null","","html-keyboard-response","479","2941723","0.0-8.0-0.0-16.8","16","<p><img class= 'stimulus' src='images/baseline/03220v.jpg'></img></p>","null","","1550094003549","","","","","","",""
"null","","html-keyboard-response","480","2941841","0.0-8.0-0.0-17.8","16","<p><img class= 'stimulus' src='images/baseline/04010v.jpg'></img></p>","null","","1550094003649","","","","","","",""
"1313.0999999991618","","html-button-response","481","2944157","0.0-8.0-0.0-18.8","16","<div class = ""response_question"">WAS THE IMAGE ROTATED...</div>","","2","","","null","null","null","null","test","null"
"1286.400000012014","","html-button-response","482","2945445","0.0-8.0-0.0-0.9","16","","","0","","","","","","","",""
"null","","html-keyboard-response","483","2945523","0.0-8.0-0.0-1.9","16","<p><img class= 'stimulus' src='images/baseline/05139v.jpg'></img></p>","null","","1550094007350","","","","","","",""
"null","","html-keyboard-response","484","2945623","0.0-8.0-0.0-2.9","16","<p><img class= 'stimulus' src='images/baseline/05242v.jpg'></img></p>","null","","1550094007448","","","","","","",""
"null","","html-keyboard-response","485","2945724","0.0-8.0-0.0-3.9","16","<p><img class= 'stimulus' src='images/baseline/Lake 4.jpg'></img></p>","null","","1550094007549","","","","","","",""
"null","","html-keyboard-response","486","2945823","0.0-8.0-0.0-4.9","16","<p><img class= 'stimulus' src='images/negative/Injury 4.jpg'></img></p>","null","","1550094007649","4","","","","","",""
"null","","html-keyboard-response","487","2945924","0.0-8.0-0.0-5.9","16","<p><img class= 'stimulus' src='images/baseline/99_-_Machu_Picchu_-_Juin_2009.edit3.jpg'></img></p>","null","","1550094007749","","","","","","",""
"null","","html-keyboard-response","488","2946022","0.0-8.0-0.0-6.9","16","<p><img class= 'stimulus left-rotate' src='images/target/sand-3339890_640.jpg'></img></p>","null","","1550094007850","6","","","","","",""
"null","","html-keyboard-response","489","2946123","0.0-8.0-0.0-7.9","16","<p><img class= 'stimulus' src='images/baseline/landscape35.jpg'></img></p>","null","","1550094007949","","","","","","",""
"null","","html-keyboard-response","490","2946222","0.0-8.0-0.0-8.9","16","<p><img class= 'stimulus' src='images/baseline/building6.jpg'></img></p>","null","","1550094008049","8","","","","","",""
"null","","html-keyboard-response","491","2946323","0.0-8.0-0.0-9.9","16","<p><img class= 'stimulus' src='images/baseline/pexels-photo-259280.jpeg'></img></p>","null","","1550094008149","","","","","","",""
"null","","html-keyboard-response","492","2946422","0.0-8.0-0.0-10.9","16","<p><img class= 'stimulus' src='images/baseline/empire-state-building.jpg'></img></p>","null","","1550094008251","","","","","","",""
"null","","html-keyboard-response","493","2946523","0.0-8.0-0.0-11.9","16","<p><img class= 'stimulus' src='images/baseline/red-rocks-park.jpg'></img></p>","null","","1550094008349","","","","","","",""
"null","","html-keyboard-response","494","2946623","0.0-8.0-0.0-12.9","16","<p><img class= 'stimulus' src='images/baseline/flooded-bridge.jpg'></img></p>","null","","1550094008448","12","","","","","",""
"null","","html-keyboard-response","495","2946723","0.0-8.0-0.0-13.9","16","<p><img class= 'stimulus' src='images/baseline/Dock 1.jpg'></img></p>","null","","1550094008549","","","","","","",""
"null","","html-keyboard-response","496","2946823","0.0-8.0-0.0-14.9","16","<p><img class= 'stimulus' src='images/baseline/landscape13.jpg'></img></p>","null","","1550094008650","14","","","","","",""
"null","","html-keyboard-response","497","2946923","0.0-8.0-0.0-15.9","16","<p><img class= 'stimulus' src='images/baseline/cranes 1.jpg'></img></p>","null","","1550094008749","","","","","","",""
"null","","html-keyboard-response","498","2947023","0.0-8.0-0.0-16.9","16","<p><img class= 'stimulus' src='images/baseline/05240v.jpg'></img></p>","null","","1550094008849","","","","","","",""
"null","","html-keyboard-response","499","2947139","0.0-8.0-0.0-17.9","16","<p><img class= 'stimulus' src='images/baseline/pexels-photo-541101.jpeg'></img></p>","null","","1550094008949","","","","","","",""
"2444.3000000030734","","html-button-response","500","2950585","0.0-8.0-0.0-18.9","16","<div class = ""response_question"">WAS THE IMAGE ROTATED...</div>","","5","","","4","2","neg","left","test","false"
"1149.7000000090338","","html-button-response","501","2951737","0.0-8.0-0.0-0.10","16","","","0","","","","","","","",""
"null","","html-keyboard-response","502","2951820","0.0-8.0-0.0-1.10","16","<p><img class= 'stimulus' src='images/baseline/foreclosed_home.jpg'></img></p>","null","","1550094013646","","","","","","",""
"null","","html-keyboard-response","503","2951920","0.0-8.0-0.0-2.10","16","<p><img class= 'stimulus' src='images/baseline/road.jpg'></img></p>","null","","1550094013747","","","","","","",""
"null","","html-keyboard-response","504","2952020","0.0-8.0-0.0-3.10","16","<p><img class= 'stimulus' src='images/baseline/Linden,_paysage.jpg'></img></p>","null","","1550094013847","","","","","","",""
