"rt","responses","trial_type","trial_index","time_elapsed","internal_node_id","participant_id","stimulus","key_press","button_pressed","stim_onset","sequence_position","distractor_position","target_lag","distractor_type","target_orientation","phase","correct"
"14339.40000000075","{""Q0"":""35""}","survey-text","0","14345","0.0-0.0","35","","","","","","","","","","",""
"2549638.9","","html-keyboard-response","1","2563994","0.0-1.0","35","Welcome to the experiment.","67","","","","","","","","",""
"17799.19999999972","","html-button-response","2","2581804","0.0-2.0","35","<p>Several images will be presented sequentially.        Each image will only be on the screen for about 100 milliseconds.</p>        <p> One of the images may be rotated 90 degrees right or left.        Watch for this image and remember if it is rotated right or left.</p>               <p>Images of people and animals will appear, and sometimes they will be unpleasant.        These will never be the rotated target image.</p>","","0","","","","","","","",""
"10773.799999999348","","html-button-response","3","2592580","0.0-3.0","35","<p><img class=""stimulus left-rotate"" src=""images/target/pexels-photo-1123982.jpeg""></img></p><p>This is an example of an image rotated to the left.</p>","","0","","","","","","","",""
"3246.8000000012107","","html-button-response","4","2595828","0.0-4.0","35","<p><img class=""stimulus"" src=""images/target/fishhouse.jpg""></img></p><p>This is an example of an image rotated to the right.</p>","","0","","","","","","","",""
"25303.299999999348","","html-button-response","5","2621132","0.0-5.0","35","<p>We will now begin a short practice session.</p>         <p>A + symbol will appear in the middle of the screen. Please fix your gaze on the center of the +, and then click the mouse button to begin the image sequence.</p>         <p>Please avoid blinking or eye movements while the images are on the screen.</p>        <p>The image sequence will start relatively slow. After a few sequences, it will speed up.</p>","","0","","","","","","","",""
"6846.699999999721","","html-button-response","6","2627980","0.0-6.0-0.0","35","","","0","","","","","","","",""
"null","","html-keyboard-response","7","2628159","0.0-6.0-1.0","35","<p><img class= 'stimulus' src='images/baseline/lake 1.jpg'></img></p>","null","","1551048103871","","","","","","",""
"null","","html-keyboard-response","8","2628359","0.0-6.0-2.0","35","<p><img class= 'stimulus' src='images/baseline/03148v.jpg'></img></p>","null","","1551048104071","","","","","","",""
"null","","html-keyboard-response","9","2628559","0.0-6.0-3.0","35","<p><img class= 'stimulus' src='images/baseline/Happy pose 3.jpg'></img></p>","null","","1551048104272","","","","","","",""
"null","","html-keyboard-response","10","2628760","0.0-6.0-4.0","35","<p><img class= 'stimulus' src='images/baseline/building3.jpg'></img></p>","null","","1551048104473","4","","","","","",""
"null","","html-keyboard-response","11","2628959","0.0-6.0-5.0","35","<p><img class= 'stimulus' src='images/baseline/Skijump 1.jpg'></img></p>","null","","1551048104672","","","","","","",""
"null","","html-keyboard-response","12","2629159","0.0-6.0-6.0","35","<p><img class= 'stimulus' src='images/target/buildin2.png'></img></p>","null","","1551048104873","6","","","","","",""
"null","","html-keyboard-response","13","2629360","0.0-6.0-7.0","35","<p><img class= 'stimulus' src='images/baseline/03204v.jpg'></img></p>","null","","1551048105071","","","","","","",""
"null","","html-keyboard-response","14","2629559","0.0-6.0-8.0","35","<p><img class= 'stimulus' src='images/baseline/house7.jpg'></img></p>","null","","1551048105271","8","","","","","",""
"null","","html-keyboard-response","15","2629761","0.0-6.0-9.0","35","<p><img class= 'stimulus' src='images/baseline/02947v.jpg'></img></p>","null","","1551048105472","","","","","","",""
"null","","html-keyboard-response","16","2629961","0.0-6.0-10.0","35","<p><img class= 'stimulus' src='images/baseline/05279v.jpg'></img></p>","null","","1551048105673","","","","","","",""
"null","","html-keyboard-response","17","2630164","0.0-6.0-11.0","35","<p><img class= 'stimulus' src='images/baseline/Lake 13.jpg'></img></p>","null","","1551048105873","","","","","","",""
"null","","html-keyboard-response","18","2630363","0.0-6.0-12.0","35","<p><img class= 'stimulus' src='images/baseline/farmhouse4.jpg'></img></p>","null","","1551048106077","12","","","","","",""
"null","","html-keyboard-response","19","2630563","0.0-6.0-13.0","35","<p><img class= 'stimulus' src='images/baseline/Lake 14.jpg'></img></p>","null","","1551048106275","","","","","","",""
"null","","html-keyboard-response","20","2630762","0.0-6.0-14.0","35","<p><img class= 'stimulus' src='images/baseline/pexels-photo-1054289.jpeg'></img></p>","null","","1551048106474","14","","","","","",""
"null","","html-keyboard-response","21","2630961","0.0-6.0-15.0","35","<p><img class= 'stimulus' src='images/baseline/04222v.jpg'></img></p>","null","","1551048106674","","","","","","",""
"null","","html-keyboard-response","22","2631161","0.0-6.0-16.0","35","<p><img class= 'stimulus' src='images/baseline/landscape3.jpg'></img></p>","null","","1551048106874","","","","","","",""
"null","","html-keyboard-response","23","2631378","0.0-6.0-17.0","35","<p><img class= 'stimulus' src='images/baseline/03162v.jpg'></img></p>","null","","1551048107074","","","","","","",""
"13229.300000000745","","html-button-response","24","2645612","0.0-6.0-18.0","35","<div class = ""response_question"">WAS THE IMAGE ROTATED...</div>","","3","","","4","2","bas","right","practice","true"
"5541.600000000559","","html-button-response","25","2651156","0.0-6.0-0.1","35","","","0","","","","","","","",""
"null","","html-keyboard-response","26","2651346","0.0-6.0-1.1","35","<p><img class= 'stimulus' src='images/baseline/03075v.jpg'></img></p>","null","","1551048127056","","","","","","",""
"null","","html-keyboard-response","27","2651545","0.0-6.0-2.1","35","<p><img class= 'stimulus' src='images/baseline/pexels-photo-1287089.jpeg'></img></p>","null","","1551048127258","","","","","","",""
"null","","html-keyboard-response","28","2651745","0.0-6.0-3.1","35","<p><img class= 'stimulus' src='images/baseline/agriculture-countryside-crop-259280.jpg'></img></p>","null","","1551048127456","","","","","","",""
"null","","html-keyboard-response","29","2651945","0.0-6.0-4.1","35","<p><img class= 'stimulus' src='images/baseline/landscape19.jpg'></img></p>","null","","1551048127657","4","","","","","",""
"null","","html-keyboard-response","30","2652145","0.0-6.0-5.1","35","<p><img class= 'stimulus' src='images/baseline/building2.jpg'></img></p>","null","","1551048127857","","","","","","",""
"null","","html-keyboard-response","31","2652345","0.0-6.0-6.1","35","<p><img class= 'stimulus' src='images/baseline/Sunset 6.jpg'></img></p>","null","","1551048128057","6","","","","","",""
"null","","html-keyboard-response","32","2652546","0.0-6.0-7.1","35","<p><img class= 'stimulus' src='images/baseline/landscape12.jpg'></img></p>","null","","1551048128258","","","","","","",""
"null","","html-keyboard-response","33","2652745","0.0-6.0-8.1","35","<p><img class= 'stimulus' src='images/target/tree_1.jpg'></img></p>","null","","1551048128459","8","","","","","",""
"null","","html-keyboard-response","34","2652945","0.0-6.0-9.1","35","<p><img class= 'stimulus' src='images/baseline/03098v.jpg'></img></p>","null","","1551048128659","","","","","","",""
"null","","html-keyboard-response","35","2653147","0.0-6.0-10.1","35","<p><img class= 'stimulus' src='images/baseline/trees 23.jpg'></img></p>","null","","1551048128857","","","","","","",""
"null","","html-keyboard-response","36","2653347","0.0-6.0-11.1","35","<p><img class= 'stimulus' src='images/baseline/Skyscraper 2.jpg'></img></p>","null","","1551048129059","","","","","","",""
"null","","html-keyboard-response","37","2653547","0.0-6.0-12.1","35","<p><img class= 'stimulus' src='images/baseline/pexels-photo-1048039.jpeg'></img></p>","null","","1551048129259","12","","","","","",""
"null","","html-keyboard-response","38","2653747","0.0-6.0-13.1","35","<p><img class= 'stimulus' src='images/baseline/Lake 16.jpg'></img></p>","null","","1551048129459","","","","","","",""
"null","","html-keyboard-response","39","2653947","0.0-6.0-14.1","35","<p><img class= 'stimulus' src='images/baseline/river 1.jpg'></img></p>","null","","1551048129660","14","","","","","",""
"null","","html-keyboard-response","40","2654148","0.0-6.0-15.1","35","<p><img class= 'stimulus' src='images/baseline/04284v.jpg'></img></p>","null","","1551048129859","","","","","","",""
"null","","html-keyboard-response","41","2654348","0.0-6.0-16.1","35","<p><img class= 'stimulus' src='images/baseline/Camping 10.jpg'></img></p>","null","","1551048130060","","","","","","",""
"null","","html-keyboard-response","42","2654565","0.0-6.0-17.1","35","<p><img class= 'stimulus' src='images/baseline/Sailing 3.jpg'></img></p>","null","","1551048130260","","","","","","",""
"3892.6999999983236","","html-button-response","43","2659461","0.0-6.0-18.1","35","<div class = ""response_question"">WAS THE IMAGE ROTATED...</div>","","3","","","6","2","bas","right","practice","true"
"5438.099999999162","","html-button-response","44","2664900","0.0-6.0-0.2","35","","","0","","","","","","","",""
"null","","html-keyboard-response","45","2665079","0.0-6.0-1.2","35","<p><img class= 'stimulus' src='images/baseline/05240v.jpg'></img></p>","null","","1551048140793","","","","","","",""
"null","","html-keyboard-response","46","2665279","0.0-6.0-2.2","35","<p><img class= 'stimulus' src='images/baseline/02960v.jpg'></img></p>","null","","1551048140991","","","","","","",""
"null","","html-keyboard-response","47","2665479","0.0-6.0-3.2","35","<p><img class= 'stimulus' src='images/baseline/Linden,_paysage.jpg'></img></p>","null","","1551048141191","","","","","","",""
"null","","html-keyboard-response","48","2665678","0.0-6.0-4.2","35","<p><img class= 'stimulus' src='images/baseline/Road 1.jpg'></img></p>","null","","1551048141392","4","","","","","",""
"null","","html-keyboard-response","49","2665882","0.0-6.0-5.2","35","<p><img class= 'stimulus' src='images/baseline/lookout_tower.jpg'></img></p>","null","","1551048141591","","","","","","",""
"null","","html-keyboard-response","50","2666079","0.0-6.0-6.2","35","<p><img class= 'stimulus' src='images/baseline/Lake 4.jpg'></img></p>","null","","1551048141794","6","","","","","",""
"null","","html-keyboard-response","51","2666279","0.0-6.0-7.2","35","<p><img class= 'stimulus' src='images/baseline/landscape1.jpg'></img></p>","null","","1551048141990","","","","","","",""
"null","","html-keyboard-response","52","2666480","0.0-6.0-8.2","35","<p><img class= 'stimulus' src='images/baseline/farmhouse1.jpg'></img></p>","null","","1551048142191","8","","","","","",""
"null","","html-keyboard-response","53","2666680","0.0-6.0-9.2","35","<p><img class= 'stimulus' src='images/baseline/landscape40.jpg'></img></p>","null","","1551048142393","","","","","","",""
"null","","html-keyboard-response","54","2666879","0.0-6.0-10.2","35","<p><img class= 'stimulus' src='images/baseline/Kocherbaumwald-01.jpg'></img></p>","null","","1551048142592","","","","","","",""
"null","","html-keyboard-response","55","2667079","0.0-6.0-11.2","35","<p><img class= 'stimulus' src='images/baseline/Grass 6.jpg'></img></p>","null","","1551048142792","","","","","","",""
"null","","html-keyboard-response","56","2667279","0.0-6.0-12.2","35","<p><img class= 'stimulus left-rotate' src='images/target/cactus2.jpg'></img></p>","null","","1551048142991","12","","","","","",""
"null","","html-keyboard-response","57","2667480","0.0-6.0-13.2","35","<p><img class= 'stimulus' src='images/baseline/landscape14.jpg'></img></p>","null","","1551048143191","","","","","","",""
"null","","html-keyboard-response","58","2667679","0.0-6.0-14.2","35","<p><img class= 'stimulus' src='images/baseline/road.jpg'></img></p>","null","","1551048143392","14","","","","","",""
"null","","html-keyboard-response","59","2667879","0.0-6.0-15.2","35","<p><img class= 'stimulus' src='images/baseline/Lake 7.jpg'></img></p>","null","","1551048143591","","","","","","",""
"null","","html-keyboard-response","60","2668079","0.0-6.0-16.2","35","<p><img class= 'stimulus' src='images/baseline/04031v.jpg'></img></p>","null","","1551048143791","","","","","","",""
"null","","html-keyboard-response","61","2668296","0.0-6.0-17.2","35","<p><img class= 'stimulus' src='images/baseline/02988v.jpg'></img></p>","null","","1551048143992","","","","","","",""
"1375","","html-button-response","62","2670676","0.0-6.0-18.2","35","<div class = ""response_question"">WAS THE IMAGE ROTATED...</div>","","0","","","4","8","bas","left","practice","true"
"10590.69999999879","","html-button-response","63","2681268","0.0-6.0-0.3","35","","","0","","","","","","","",""
"null","","html-keyboard-response","64","2681445","0.0-6.0-1.3","35","<p><img class= 'stimulus' src='images/baseline/pexels-photo-351264.jpeg'></img></p>","null","","1551048157158","","","","","","",""
"null","","html-keyboard-response","65","2681645","0.0-6.0-2.3","35","<p><img class= 'stimulus' src='images/baseline/Sunset 3.jpg'></img></p>","null","","1551048157357","","","","","","",""
"null","","html-keyboard-response","66","2681845","0.0-6.0-3.3","35","<p><img class= 'stimulus' src='images/baseline/landscape22.jpg'></img></p>","null","","1551048157558","","","","","","",""
"null","","html-keyboard-response","67","2682045","0.0-6.0-4.3","35","<p><img class= 'stimulus' src='images/baseline/building12.jpg'></img></p>","null","","1551048157757","4","","","","","",""
"null","","html-keyboard-response","68","2682246","0.0-6.0-5.3","35","<p><img class= 'stimulus' src='images/baseline/04098v.jpg'></img></p>","null","","1551048157957","","","","","","",""
"null","","html-keyboard-response","69","2682445","0.0-6.0-6.3","35","<p><img class= 'stimulus' src='images/baseline/03041v.jpg'></img></p>","null","","1551048158158","6","","","","","",""
"null","","html-keyboard-response","70","2682645","0.0-6.0-7.3","35","<p><img class= 'stimulus' src='images/baseline/autumn-landscape-with-lake-fall-trees-mountains.jpg'></img></p>","null","","1551048158357","","","","","","",""
"null","","html-keyboard-response","71","2682850","0.0-6.0-8.3","35","<p><img class= 'stimulus' src='images/baseline/04085v.jpg'></img></p>","null","","1551048158558","8","","","","","",""
"null","","html-keyboard-response","72","2683050","0.0-6.0-9.3","35","<p><img class= 'stimulus' src='images/baseline/pexels-photo-1837621.jpeg'></img></p>","null","","1551048158762","","","","","","",""
"null","","html-keyboard-response","73","2683248","0.0-6.0-10.3","35","<p><img class= 'stimulus' src='images/baseline/landscape34.jpg'></img></p>","null","","1551048158962","","","","","","",""
"null","","html-keyboard-response","74","2683448","0.0-6.0-11.3","35","<p><img class= 'stimulus' src='images/baseline/Aletschgletscher-Eggishorn.jpg'></img></p>","null","","1551048159159","","","","","","",""
"null","","html-keyboard-response","75","2683646","0.0-6.0-12.3","35","<p><img class= 'stimulus' src='images/baseline/05255v.jpg'></img></p>","null","","1551048159360","12","","","","","",""
"null","","html-keyboard-response","76","2683847","0.0-6.0-13.3","35","<p><img class= 'stimulus' src='images/baseline/pexels-photo-259280.jpeg'></img></p>","null","","1551048159558","","","","","","",""
"null","","html-keyboard-response","77","2684047","0.0-6.0-14.3","35","<p><img class= 'stimulus' src='images/target/mexico_tower_latin_american.jpg'></img></p>","null","","1551048159760","14","","","","","",""
"null","","html-keyboard-response","78","2684247","0.0-6.0-15.3","35","<p><img class= 'stimulus' src='images/baseline/04162v.jpg'></img></p>","null","","1551048159960","","","","","","",""
"null","","html-keyboard-response","79","2684448","0.0-6.0-16.3","35","<p><img class= 'stimulus' src='images/baseline/sunny-landscape-with-dry-brush-and-mountain-background.jpg'></img></p>","null","","1551048160159","","","","","","",""
"null","","html-keyboard-response","80","2684664","0.0-6.0-17.3","35","<p><img class= 'stimulus' src='images/baseline/05203v.jpg'></img></p>","null","","1551048160359","","","","","","",""
"3878.9999999990687","","html-button-response","81","2689548","0.0-6.0-18.3","35","<div class = ""response_question"">WAS THE IMAGE ROTATED...</div>","","3","","","6","8","bas","right","practice","true"
"20038.699999999255","","html-button-response","82","2709588","0.0-6.0-0.4","35","","","0","","","","","","","",""
"null","","html-keyboard-response","83","2709712","0.0-6.0-1.4","35","<p><img class= 'stimulus' src='images/baseline/town-square-in-wroclaw-1539098440MZy.jpg'></img></p>","null","","1551048185474","","","","","","",""
"null","","html-keyboard-response","84","2709862","0.0-6.0-2.4","35","<p><img class= 'stimulus' src='images/baseline/building_at_national_conservation.jpg'></img></p>","null","","1551048185625","","","","","","",""
"null","","html-keyboard-response","85","2710012","0.0-6.0-3.4","35","<p><img class= 'stimulus' src='images/baseline/Niinsaare_jarv.jpg'></img></p>","null","","1551048185775","","","","","","",""
"null","","html-keyboard-response","86","2710162","0.0-6.0-4.4","35","<p><img class= 'stimulus' src='images/baseline/farmhouse2.jpg'></img></p>","null","","1551048185925","4","","","","","",""
"null","","html-keyboard-response","87","2710312","0.0-6.0-5.4","35","<p><img class= 'stimulus' src='images/baseline/04179v.jpg'></img></p>","null","","1551048186074","","","","","","",""
"null","","html-keyboard-response","88","2710461","0.0-6.0-6.4","35","<p><img class= 'stimulus' src='images/baseline/valley 2.jpg'></img></p>","null","","1551048186224","6","","","","","",""
"null","","html-keyboard-response","89","2710612","0.0-6.0-7.4","35","<p><img class= 'stimulus' src='images/baseline/__08_-_ITALY_-_Forli_under_snow_-_winter_landscape_of_city_(christmas).jpg'></img></p>","null","","1551048186374","","","","","","",""
"null","","html-keyboard-response","90","2710761","0.0-6.0-8.4","35","<p><img class= 'stimulus left-rotate' src='images/target/building15.jpg'></img></p>","null","","1551048186524","8","","","","","",""
"null","","html-keyboard-response","91","2710912","0.0-6.0-9.4","35","<p><img class= 'stimulus' src='images/baseline/02977v.jpg'></img></p>","null","","1551048186673","","","","","","",""
"null","","html-keyboard-response","92","2711062","0.0-6.0-10.4","35","<p><img class= 'stimulus' src='images/baseline/04062v.jpg'></img></p>","null","","1551048186824","","","","","","",""
"null","","html-keyboard-response","93","2711211","0.0-6.0-11.4","35","<p><img class= 'stimulus' src='images/baseline/05167v.jpg'></img></p>","null","","1551048186975","","","","","","",""
"null","","html-keyboard-response","94","2711361","0.0-6.0-12.4","35","<p><img class= 'stimulus' src='images/baseline/pexels-photo-1261728.jpeg'></img></p>","null","","1551048187124","12","","","","","",""
"null","","html-keyboard-response","95","2711511","0.0-6.0-13.4","35","<p><img class= 'stimulus' src='images/baseline/chicago-skyline-at-night-1476869511p8U.jpg'></img></p>","null","","1551048187273","","","","","","",""
"null","","html-keyboard-response","96","2711661","0.0-6.0-14.4","35","<p><img class= 'stimulus' src='images/baseline/pexels-photo-894312.jpeg'></img></p>","null","","1551048187423","14","","","","","",""
"null","","html-keyboard-response","97","2711811","0.0-6.0-15.4","35","<p><img class= 'stimulus' src='images/baseline/geese-flying-over-lake-at-dusk.jpg'></img></p>","null","","1551048187573","","","","","","",""
"null","","html-keyboard-response","98","2711961","0.0-6.0-16.4","35","<p><img class= 'stimulus' src='images/baseline/empire-state-building.jpg'></img></p>","null","","1551048187723","","","","","","",""
"null","","html-keyboard-response","99","2712127","0.0-6.0-17.4","35","<p><img class= 'stimulus' src='images/baseline/seoul-410266_1920.jpg'></img></p>","null","","1551048187874","","","","","","",""
"9480.299999999348","","html-button-response","100","2722612","0.0-6.0-18.4","35","<div class = ""response_question"">WAS THE IMAGE ROTATED...</div>","","1","","","6","2","bas","left","practice","true"
"3278.1999999987893","","html-button-response","101","2725893","0.0-6.0-0.5","35","","","0","","","","","","","",""
"null","","html-keyboard-response","102","2726028","0.0-6.0-1.5","35","<p><img class= 'stimulus' src='images/baseline/Paysage_enneige_02.jpg'></img></p>","null","","1551048201789","","","","","","",""
"null","","html-keyboard-response","103","2726178","0.0-6.0-2.5","35","<p><img class= 'stimulus' src='images/baseline/05242v.jpg'></img></p>","null","","1551048201939","","","","","","",""
"null","","html-keyboard-response","104","2726327","0.0-6.0-3.5","35","<p><img class= 'stimulus' src='images/baseline/pexels-photo-414491.jpeg'></img></p>","null","","1551048202090","","","","","","",""
"null","","html-keyboard-response","105","2726477","0.0-6.0-4.5","35","<p><img class= 'stimulus' src='images/baseline/building16.jpg'></img></p>","null","","1551048202241","4","","","","","",""
"null","","html-keyboard-response","106","2726627","0.0-6.0-5.5","35","<p><img class= 'stimulus' src='images/baseline/architecture-956332_1280.jpg'></img></p>","null","","1551048202390","","","","","","",""
"null","","html-keyboard-response","107","2726777","0.0-6.0-6.5","35","<p><img class= 'stimulus' src='images/baseline/landscape39.jpg'></img></p>","null","","1551048202539","6","","","","","",""
"null","","html-keyboard-response","108","2726927","0.0-6.0-7.5","35","<p><img class= 'stimulus' src='images/baseline/lone-old-cottonwood-tree.jpg'></img></p>","null","","1551048202690","","","","","","",""
"null","","html-keyboard-response","109","2727078","0.0-6.0-8.5","35","<p><img class= 'stimulus' src='images/baseline/pexels-photo-541101.jpeg'></img></p>","null","","1551048202840","8","","","","","",""
"null","","html-keyboard-response","110","2727227","0.0-6.0-9.5","35","<p><img class= 'stimulus' src='images/baseline/kokkari-1523011968Xfr.jpg'></img></p>","null","","1551048202990","","","","","","",""
"null","","html-keyboard-response","111","2727376","0.0-6.0-10.5","35","<p><img class= 'stimulus' src='images/baseline/farmhouse8.jpg'></img></p>","null","","1551048203139","","","","","","",""
"null","","html-keyboard-response","112","2727527","0.0-6.0-11.5","35","<p><img class= 'stimulus' src='images/baseline/hills 1.jpg'></img></p>","null","","1551048203291","","","","","","",""
"null","","html-keyboard-response","113","2727677","0.0-6.0-12.5","35","<p><img class= 'stimulus' src='images/target/church-2306128_640.jpg'></img></p>","null","","1551048203440","12","","","","","",""
"null","","html-keyboard-response","114","2727827","0.0-6.0-13.5","35","<p><img class= 'stimulus' src='images/baseline/landscape36.jpg'></img></p>","null","","1551048203591","","","","","","",""
"null","","html-keyboard-response","115","2727977","0.0-6.0-14.5","35","<p><img class= 'stimulus' src='images/baseline/landscape4.jpg'></img></p>","null","","1551048203740","14","","","","","",""
"null","","html-keyboard-response","116","2728127","0.0-6.0-15.5","35","<p><img class= 'stimulus' src='images/baseline/autumn-in-red-rocks-park.jpg'></img></p>","null","","1551048203889","","","","","","",""
"null","","html-keyboard-response","117","2728278","0.0-6.0-16.5","35","<p><img class= 'stimulus' src='images/baseline/farmhouse6.jpg'></img></p>","null","","1551048204039","","","","","","",""
"null","","html-keyboard-response","118","2728443","0.0-6.0-17.5","35","<p><img class= 'stimulus' src='images/baseline/Street 1.jpg'></img></p>","null","","1551048204190","","","","","","",""
"17074.400000001304","","html-button-response","119","2746524","0.0-6.0-18.5","35","<div class = ""response_question"">WAS THE IMAGE ROTATED...</div>","","4","","","4","8","bas","right","practice","true"
"14718.600000000093","","html-button-response","120","2761244","0.0-6.0-0.6","35","","","0","","","","","","","",""
"null","","html-keyboard-response","121","2761377","0.0-6.0-1.6","35","<p><img class= 'stimulus' src='images/baseline/landscape29.jpg'></img></p>","null","","1551048237139","","","","","","",""
"null","","html-keyboard-response","122","2761527","0.0-6.0-2.6","35","<p><img class= 'stimulus' src='images/baseline/house1.jpg'></img></p>","null","","1551048237289","","","","","","",""
"null","","html-keyboard-response","123","2761676","0.0-6.0-3.6","35","<p><img class= 'stimulus' src='images/baseline/Cold 7.jpg'></img></p>","null","","1551048237440","","","","","","",""
"null","","html-keyboard-response","124","2761826","0.0-6.0-4.6","35","<p><img class= 'stimulus' src='images/baseline/04130v.jpg'></img></p>","null","","1551048237589","4","","","","","",""
"null","","html-keyboard-response","125","2761976","0.0-6.0-5.6","35","<p><img class= 'stimulus' src='images/baseline/hiking-trail.jpg'></img></p>","null","","1551048237739","","","","","","",""
"null","","html-keyboard-response","126","2762126","0.0-6.0-6.6","35","<p><img class= 'stimulus left-rotate' src='images/target/oak-1913194_640.jpg'></img></p>","null","","1551048237888","6","","","","","",""
"null","","html-keyboard-response","127","2762277","0.0-6.0-7.6","35","<p><img class= 'stimulus' src='images/baseline/05280v.jpg'></img></p>","null","","1551048238039","","","","","","",""
"null","","html-keyboard-response","128","2762428","0.0-6.0-8.6","35","<p><img class= 'stimulus' src='images/baseline/flooded-bridge.jpg'></img></p>","null","","1551048238189","8","","","","","",""
"null","","html-keyboard-response","129","2762577","0.0-6.0-9.6","35","<p><img class= 'stimulus' src='images/baseline/Street 4.jpg'></img></p>","null","","1551048238339","","","","","","",""
"null","","html-keyboard-response","130","2762727","0.0-6.0-10.6","35","<p><img class= 'stimulus' src='images/baseline/04158v.jpg'></img></p>","null","","1551048238491","","","","","","",""
"null","","html-keyboard-response","131","2762877","0.0-6.0-11.6","35","<p><img class= 'stimulus' src='images/baseline/landscape38.jpg'></img></p>","null","","1551048238639","","","","","","",""
"null","","html-keyboard-response","132","2763027","0.0-6.0-12.6","35","<p><img class= 'stimulus' src='images/baseline/04229v.jpg'></img></p>","null","","1551048238789","12","","","","","",""
"null","","html-keyboard-response","133","2763177","0.0-6.0-13.6","35","<p><img class= 'stimulus' src='images/baseline/sun-through-winter-tree-branches1.jpg'></img></p>","null","","1551048238939","","","","","","",""
"null","","html-keyboard-response","134","2763326","0.0-6.0-14.6","35","<p><img class= 'stimulus' src='images/baseline/05189v.jpg'></img></p>","null","","1551048239090","14","","","","","",""
"null","","html-keyboard-response","135","2763477","0.0-6.0-15.6","35","<p><img class= 'stimulus' src='images/baseline/dirt-road-or-trail-through-park.jpg'></img></p>","null","","1551048239238","","","","","","",""
"null","","html-keyboard-response","136","2763627","0.0-6.0-16.6","35","<p><img class= 'stimulus' src='images/baseline/cyrillic.jpg'></img></p>","null","","1551048239389","","","","","","",""
"null","","html-keyboard-response","137","2763793","0.0-6.0-17.6","35","<p><img class= 'stimulus' src='images/baseline/Sunset 5.jpg'></img></p>","null","","1551048239540","","","","","","",""
"2813.200000000652","","html-button-response","138","2767612","0.0-6.0-18.6","35","<div class = ""response_question"">WAS THE IMAGE ROTATED...</div>","","1","","","4","2","bas","left","practice","true"
"4982.5","","html-button-response","139","2772596","0.0-6.0-0.7","35","","","0","","","","","","","",""
"null","","html-keyboard-response","140","2772727","0.0-6.0-1.7","35","<p><img class= 'stimulus' src='images/baseline/02945v.jpg'></img></p>","null","","1551048248490","","","","","","",""
"null","","html-keyboard-response","141","2772877","0.0-6.0-2.7","35","<p><img class= 'stimulus' src='images/baseline/landscape13.jpg'></img></p>","null","","1551048248639","","","","","","",""
"null","","html-keyboard-response","142","2773028","0.0-6.0-3.7","35","<p><img class= 'stimulus' src='images/baseline/03220v.jpg'></img></p>","null","","1551048248789","","","","","","",""
"null","","html-keyboard-response","143","2773177","0.0-6.0-4.7","35","<p><img class= 'stimulus' src='images/baseline/Dirt 2.jpg'></img></p>","null","","1551048248939","4","","","","","",""
"null","","html-keyboard-response","144","2773327","0.0-6.0-5.7","35","<p><img class= 'stimulus' src='images/baseline/pexels-photo-427676.jpeg'></img></p>","null","","1551048249091","","","","","","",""
"null","","html-keyboard-response","145","2773476","0.0-6.0-6.7","35","<p><img class= 'stimulus' src='images/baseline/house8.jpg'></img></p>","null","","1551048249240","6","","","","","",""
"null","","html-keyboard-response","146","2773627","0.0-6.0-7.7","35","<p><img class= 'stimulus' src='images/baseline/03217v.jpg'></img></p>","null","","1551048249388","","","","","","",""
"null","","html-keyboard-response","147","2773777","0.0-6.0-8.7","35","<p><img class= 'stimulus' src='images/baseline/landscape2.jpg'></img></p>","null","","1551048249539","8","","","","","",""
"null","","html-keyboard-response","148","2773927","0.0-6.0-9.7","35","<p><img class= 'stimulus' src='images/baseline/building8.jpg'></img></p>","null","","1551048249689","","","","","","",""
"null","","html-keyboard-response","149","2774077","0.0-6.0-10.7","35","<p><img class= 'stimulus' src='images/baseline/04014v.jpg'></img></p>","null","","1551048249840","","","","","","",""
"null","","html-keyboard-response","150","2774227","0.0-6.0-11.7","35","<p><img class= 'stimulus' src='images/baseline/03201v.jpg'></img></p>","null","","1551048249990","","","","","","",""
"null","","html-keyboard-response","151","2774377","0.0-6.0-12.7","35","<p><img class= 'stimulus' src='images/baseline/Lake 8.jpg'></img></p>","null","","1551048250139","12","","","","","",""
"null","","html-keyboard-response","152","2774526","0.0-6.0-13.7","35","<p><img class= 'stimulus' src='images/baseline/04117v.jpg'></img></p>","null","","1551048250289","","","","","","",""
"null","","html-keyboard-response","153","2774677","0.0-6.0-14.7","35","<p><img class= 'stimulus left-rotate' src='images/target/adventure-desert-landscape-6778.jpg'></img></p>","null","","1551048250440","14","","","","","",""
"null","","html-keyboard-response","154","2774827","0.0-6.0-15.7","35","<p><img class= 'stimulus' src='images/baseline/Sidewalk 4.jpg'></img></p>","null","","1551048250589","","","","","","",""
"null","","html-keyboard-response","155","2774977","0.0-6.0-16.7","35","<p><img class= 'stimulus' src='images/baseline/pexels-photo-750108.jpeg'></img></p>","null","","1551048250739","","","","","","",""
"null","","html-keyboard-response","156","2775145","0.0-6.0-17.7","35","<p><img class= 'stimulus' src='images/baseline/04063v.jpg'></img></p>","null","","1551048250890","","","","","","",""
"1343.199999999255","","html-button-response","157","2777492","0.0-6.0-18.7","35","<div class = ""response_question"">WAS THE IMAGE ROTATED...</div>","","0","","","6","8","bas","left","practice","true"
"2606.1000000010245","","html-button-response","158","2780099","0.0-6.0-0.8","35","","","0","","","","","","","",""
"null","","html-keyboard-response","159","2780177","0.0-6.0-1.8","35","<p><img class= 'stimulus' src='images/baseline/04064v.jpg'></img></p>","null","","1551048255990","","","","","","",""
"null","","html-keyboard-response","160","2780278","0.0-6.0-2.8","35","<p><img class= 'stimulus' src='images/baseline/landscape7.jpg'></img></p>","null","","1551048256089","","","","","","",""
"null","","html-keyboard-response","161","2780377","0.0-6.0-3.8","35","<p><img class= 'stimulus' src='images/baseline/lake 2.jpg'></img></p>","null","","1551048256191","","","","","","",""
"null","","html-keyboard-response","162","2780478","0.0-6.0-4.8","35","<p><img class= 'stimulus' src='images/baseline/03066v.jpg'></img></p>","null","","1551048256290","4","","","","","",""
"null","","html-keyboard-response","163","2780577","0.0-6.0-5.8","35","<p><img class= 'stimulus' src='images/baseline/03063v.jpg'></img></p>","null","","1551048256390","","","","","","",""
"null","","html-keyboard-response","164","2780678","0.0-6.0-6.8","35","<p><img class= 'stimulus' src='images/baseline/farmhouse7.jpg'></img></p>","null","","1551048256490","6","","","","","",""
"null","","html-keyboard-response","165","2780776","0.0-6.0-7.8","35","<p><img class= 'stimulus' src='images/baseline/05198v.jpg'></img></p>","null","","1551048256590","","","","","","",""
"null","","html-keyboard-response","166","2780877","0.0-6.0-8.8","35","<p><img class= 'stimulus' src='images/target/mitre peak.jpg'></img></p>","null","","1551048256689","8","","","","","",""
"null","","html-keyboard-response","167","2780977","0.0-6.0-9.8","35","<p><img class= 'stimulus' src='images/baseline/building9.jpg'></img></p>","null","","1551048256789","","","","","","",""
"null","","html-keyboard-response","168","2781076","0.0-6.0-10.8","35","<p><img class= 'stimulus' src='images/baseline/hills 4.jpg'></img></p>","null","","1551048256889","","","","","","",""
"null","","html-keyboard-response","169","2781177","0.0-6.0-11.8","35","<p><img class= 'stimulus' src='images/baseline/cranes 1.jpg'></img></p>","null","","1551048256989","","","","","","",""
"null","","html-keyboard-response","170","2781277","0.0-6.0-12.8","35","<p><img class= 'stimulus' src='images/baseline/Lake 5.jpg'></img></p>","null","","1551048257089","12","","","","","",""
"null","","html-keyboard-response","171","2781377","0.0-6.0-13.8","35","<p><img class= 'stimulus' src='images/baseline/03056v.jpg'></img></p>","null","","1551048257188","","","","","","",""
"null","","html-keyboard-response","172","2781477","0.0-6.0-14.8","35","<p><img class= 'stimulus' src='images/baseline/05264v.jpg'></img></p>","null","","1551048257290","14","","","","","",""
"null","","html-keyboard-response","173","2781577","0.0-6.0-15.8","35","<p><img class= 'stimulus' src='images/baseline/house2.jpg'></img></p>","null","","1551048257389","","","","","","",""
"null","","html-keyboard-response","174","2781678","0.0-6.0-16.8","35","<p><img class= 'stimulus' src='images/baseline/05139v.jpg'></img></p>","null","","1551048257489","","","","","","",""
"null","","html-keyboard-response","175","2781793","0.0-6.0-17.8","35","<p><img class= 'stimulus' src='images/baseline/red rocks from afar.jpg'></img></p>","null","","1551048257590","","","","","","",""
"3109.200000000652","","html-button-response","176","2785908","0.0-6.0-18.8","35","<div class = ""response_question"">WAS THE IMAGE ROTATED...</div>","","1","","","6","2","bas","right","practice","false"
"2966.200000000652","","html-button-response","177","2788876","0.0-6.0-0.9","35","","","0","","","","","","","",""
"null","","html-keyboard-response","178","2788962","0.0-6.0-1.9","35","<p><img class= 'stimulus' src='images/baseline/Skyscraper 1.jpg'></img></p>","null","","1551048264774","","","","","","",""
"null","","html-keyboard-response","179","2789061","0.0-6.0-2.9","35","<p><img class= 'stimulus' src='images/baseline/Sunset 4.jpg'></img></p>","null","","1551048264874","","","","","","",""
"null","","html-keyboard-response","180","2789160","0.0-6.0-3.9","35","<p><img class= 'stimulus' src='images/baseline/Lake 15.jpg'></img></p>","null","","1551048264974","","","","","","",""
"null","","html-keyboard-response","181","2789261","0.0-6.0-4.9","35","<p><img class= 'stimulus' src='images/baseline/pexels-photo-210617.jpeg'></img></p>","null","","1551048265073","4","","","","","",""
"null","","html-keyboard-response","182","2789361","0.0-6.0-5.9","35","<p><img class= 'stimulus' src='images/baseline/04040v.jpg'></img></p>","null","","1551048265173","","","","","","",""
"null","","html-keyboard-response","183","2789461","0.0-6.0-6.9","35","<p><img class= 'stimulus left-rotate' src='images/target/pexels-photo-602607.jpeg'></img></p>","null","","1551048265273","6","","","","","",""
"null","","html-keyboard-response","184","2789563","0.0-6.0-7.9","35","<p><img class= 'stimulus' src='images/baseline/landscape6.jpg'></img></p>","null","","1551048265373","","","","","","",""
"null","","html-keyboard-response","185","2789661","0.0-6.0-8.9","35","<p><img class= 'stimulus' src='images/baseline/landscape31.jpg'></img></p>","null","","1551048265474","8","","","","","",""
"null","","html-keyboard-response","186","2789761","0.0-6.0-9.9","35","<p><img class= 'stimulus' src='images/baseline/04021v.jpg'></img></p>","null","","1551048265573","","","","","","",""
"null","","html-keyboard-response","187","2789861","0.0-6.0-10.9","35","<p><img class= 'stimulus' src='images/baseline/grand-teton-mountains.jpg'></img></p>","null","","1551048265674","","","","","","",""
"null","","html-keyboard-response","188","2789961","0.0-6.0-11.9","35","<p><img class= 'stimulus' src='images/baseline/house10.jpg'></img></p>","null","","1551048265772","","","","","","",""
"null","","html-keyboard-response","189","2790061","0.0-6.0-12.9","35","<p><img class= 'stimulus' src='images/baseline/church-silhouette-8712964986014Kb.jpg'></img></p>","null","","1551048265872","12","","","","","",""
"null","","html-keyboard-response","190","2790161","0.0-6.0-13.9","35","<p><img class= 'stimulus' src='images/baseline/03114v.jpg'></img></p>","null","","1551048265973","","","","","","",""
"null","","html-keyboard-response","191","2790261","0.0-6.0-14.9","35","<p><img class= 'stimulus' src='images/baseline/foreclosed_home.jpg'></img></p>","null","","1551048266073","14","","","","","",""
"null","","html-keyboard-response","192","2790361","0.0-6.0-15.9","35","<p><img class= 'stimulus' src='images/baseline/landscape15.jpg'></img></p>","null","","1551048266173","","","","","","",""
"null","","html-keyboard-response","193","2790460","0.0-6.0-16.9","35","<p><img class= 'stimulus' src='images/baseline/snowy tree.jpg'></img></p>","null","","1551048266273","","","","","","",""
"null","","html-keyboard-response","194","2790577","0.0-6.0-17.9","35","<p><img class= 'stimulus' src='images/baseline/landscape35.jpg'></img></p>","null","","1551048266373","","","","","","",""
"1189","","html-button-response","195","2792771","0.0-6.0-18.9","35","<div class = ""response_question"">WAS THE IMAGE ROTATED...</div>","","1","","","4","2","bas","left","practice","true"
"2358.2999999998137","","html-button-response","196","2795132","0.0-6.0-0.10","35","","","0","","","","","","","",""
"null","","html-keyboard-response","197","2795211","0.0-6.0-1.10","35","<p><img class= 'stimulus' src='images/baseline/Lake 9.jpg'></img></p>","null","","1551048271024","","","","","","",""
"null","","html-keyboard-response","198","2795310","0.0-6.0-2.10","35","<p><img class= 'stimulus' src='images/baseline/04060v.jpg'></img></p>","null","","1551048271123","","","","","","",""
"null","","html-keyboard-response","199","2795411","0.0-6.0-3.10","35","<p><img class= 'stimulus' src='images/baseline/lake3.jpg'></img></p>","null","","1551048271223","","","","","","",""
"null","","html-keyboard-response","200","2795510","0.0-6.0-4.10","35","<p><img class= 'stimulus' src='images/baseline/pexels-photo-459203.jpeg'></img></p>","null","","1551048271323","4","","","","","",""
"null","","html-keyboard-response","201","2795611","0.0-6.0-5.10","35","<p><img class= 'stimulus' src='images/baseline/pexels-photo-808465.jpeg'></img></p>","null","","1551048271423","","","","","","",""
"null","","html-keyboard-response","202","2795710","0.0-6.0-6.10","35","<p><img class= 'stimulus' src='images/target/transamerica-pyramid-530061_640.jpg'></img></p>","null","","1551048271523","6","","","","","",""
"null","","html-keyboard-response","203","2795811","0.0-6.0-7.10","35","<p><img class= 'stimulus' src='images/baseline/05186v.jpg'></img></p>","null","","1551048271623","","","","","","",""
"null","","html-keyboard-response","204","2795910","0.0-6.0-8.10","35","<p><img class= 'stimulus' src='images/baseline/red-rocks-park.jpg'></img></p>","null","","1551048271724","8","","","","","",""
"null","","html-keyboard-response","205","2796011","0.0-6.0-9.10","35","<p><img class= 'stimulus' src='images/baseline/05303v.jpg'></img></p>","null","","1551048271822","","","","","","",""
"null","","html-keyboard-response","206","2796110","0.0-6.0-10.10","35","<p><img class= 'stimulus' src='images/baseline/Paysage_karabagh_02.jpg'></img></p>","null","","1551048271922","","","","","","",""
"null","","html-keyboard-response","207","2796212","0.0-6.0-11.10","35","<p><img class= 'stimulus' src='images/baseline/field 4.jpg'></img></p>","null","","1551048272024","","","","","","",""
"null","","html-keyboard-response","208","2796311","0.0-6.0-12.10","35","<p><img class= 'stimulus' src='images/baseline/pexels-photo-1840893.jpeg'></img></p>","null","","1551048272123","12","","","","","",""
"null","","html-keyboard-response","209","2796410","0.0-6.0-13.10","35","<p><img class= 'stimulus' src='images/baseline/pexels-photo-221125.jpeg'></img></p>","null","","1551048272223","","","","","","",""
"null","","html-keyboard-response","210","2796510","0.0-6.0-14.10","35","<p><img class= 'stimulus' src='images/baseline/03112v.jpg'></img></p>","null","","1551048272323","14","","","","","",""
"null","","html-keyboard-response","211","2796611","0.0-6.0-15.10","35","<p><img class= 'stimulus' src='images/baseline/field 3.jpg'></img></p>","null","","1551048272423","","","","","","",""
"null","","html-keyboard-response","212","2796710","0.0-6.0-16.10","35","<p><img class= 'stimulus' src='images/baseline/house6.jpg'></img></p>","null","","1551048272523","","","","","","",""
"null","","html-keyboard-response","213","2796828","0.0-6.0-17.10","35","<p><img class= 'stimulus' src='images/baseline/architecture_modern_architecture_852928.jpg'></img></p>","null","","1551048272622","","","","","","",""
"2898.399999999907","","html-button-response","214","2800740","0.0-6.0-18.10","35","<div class = ""response_question"">WAS THE IMAGE ROTATED...</div>","","2","","","4","2","bas","right","practice","false"
"9886.500000000466","","html-button-response","215","2810622","0.0-6.0-0.11","35","","","0","","","","","","","",""
"null","","html-keyboard-response","216","2810705","0.0-6.0-1.11","35","<p><img class= 'stimulus' src='images/baseline/landscape11.jpg'></img></p>","null","","1551048286517","","","","","","",""
"null","","html-keyboard-response","217","2810805","0.0-6.0-2.11","35","<p><img class= 'stimulus' src='images/baseline/Lake 3.jpg'></img></p>","null","","1551048286617","","","","","","",""
"null","","html-keyboard-response","218","2810904","0.0-6.0-3.11","35","<p><img class= 'stimulus' src='images/baseline/04201v.jpg'></img></p>","null","","1551048286717","","","","","","",""
"null","","html-keyboard-response","219","2811004","0.0-6.0-4.11","35","<p><img class= 'stimulus' src='images/baseline/99_-_Machu_Picchu_-_Juin_2009.edit3.jpg'></img></p>","null","","1551048286817","4","","","","","",""
"null","","html-keyboard-response","220","2811105","0.0-6.0-5.11","35","<p><img class= 'stimulus' src='images/baseline/landscape33.jpg'></img></p>","null","","1551048286917","","","","","","",""
"null","","html-keyboard-response","221","2811205","0.0-6.0-6.11","35","<p><img class= 'stimulus' src='images/baseline/03180v.jpg'></img></p>","null","","1551048287017","6","","","","","",""
"null","","html-keyboard-response","222","2811304","0.0-6.0-7.11","35","<p><img class= 'stimulus' src='images/baseline/hills 3.jpg'></img></p>","null","","1551048287117","","","","","","",""
"null","","html-keyboard-response","223","2811406","0.0-6.0-8.11","35","<p><img class= 'stimulus' src='images/baseline/Peyto_Lake-Banff_NP-Canada.jpg'></img></p>","null","","1551048287217","8","","","","","",""
"null","","html-keyboard-response","224","2811505","0.0-6.0-9.11","35","<p><img class= 'stimulus' src='images/baseline/agriculture-cereal-clouds-175389.jpg'></img></p>","null","","1551048287317","","","","","","",""
"null","","html-keyboard-response","225","2811605","0.0-6.0-10.11","35","<p><img class= 'stimulus' src='images/baseline/Desert_View_Indian_Wells.jpg'></img></p>","null","","1551048287417","","","","","","",""
"null","","html-keyboard-response","226","2811706","0.0-6.0-11.11","35","<p><img class= 'stimulus' src='images/baseline/Bridge 1.jpg'></img></p>","null","","1551048287517","","","","","","",""
"null","","html-keyboard-response","227","2811804","0.0-6.0-12.11","35","<p><img class= 'stimulus' src='images/target/tree_2.jpg'></img></p>","null","","1551048287618","12","","","","","",""
"null","","html-keyboard-response","228","2811905","0.0-6.0-13.11","35","<p><img class= 'stimulus' src='images/baseline/05179v.jpg'></img></p>","null","","1551048287717","","","","","","",""
"null","","html-keyboard-response","229","2812006","0.0-6.0-14.11","35","<p><img class= 'stimulus' src='images/baseline/05131v.jpg'></img></p>","null","","1551048287817","14","","","","","",""
"null","","html-keyboard-response","230","2812104","0.0-6.0-15.11","35","<p><img class= 'stimulus' src='images/baseline/05158v.jpg'></img></p>","null","","1551048287917","","","","","","",""
"null","","html-keyboard-response","231","2812205","0.0-6.0-16.11","35","<p><img class= 'stimulus' src='images/baseline/field 2.jpg'></img></p>","null","","1551048288017","","","","","","",""
"null","","html-keyboard-response","232","2812322","0.0-6.0-17.11","35","<p><img class= 'stimulus' src='images/baseline/04010v.jpg'></img></p>","null","","1551048288118","","","","","","",""
"2047.999999998603","","html-button-response","233","2815374","0.0-6.0-18.11","35","<div class = ""response_question"">WAS THE IMAGE ROTATED...</div>","","2","","","4","8","bas","right","practice","false"
"6246.0999999982305","","html-button-response","234","2821621","0.0-6.0-0.12","35","","","0","","","","","","","",""
"null","","html-keyboard-response","235","2821705","0.0-6.0-1.12","35","<p><img class= 'stimulus' src='images/baseline/pexels-photo-59321.jpeg'></img></p>","null","","1551048297518","","","","","","",""
"null","","html-keyboard-response","236","2821805","0.0-6.0-2.12","35","<p><img class= 'stimulus' src='images/baseline/Dock 1.jpg'></img></p>","null","","1551048297618","","","","","","",""
"null","","html-keyboard-response","237","2821905","0.0-6.0-3.12","35","<p><img class= 'stimulus' src='images/baseline/landscape8.jpg'></img></p>","null","","1551048297717","","","","","","",""
"null","","html-keyboard-response","238","2822005","0.0-6.0-4.12","35","<p><img class= 'stimulus' src='images/baseline/landscape17.jpg'></img></p>","null","","1551048297817","4","","","","","",""
"null","","html-keyboard-response","239","2822105","0.0-6.0-5.12","35","<p><img class= 'stimulus' src='images/baseline/landscape16.jpg'></img></p>","null","","1551048297918","","","","","","",""
"null","","html-keyboard-response","240","2822204","0.0-6.0-6.12","35","<p><img class= 'stimulus' src='images/baseline/05247v.jpg'></img></p>","null","","1551048298017","6","","","","","",""
"null","","html-keyboard-response","241","2822305","0.0-6.0-7.12","35","<p><img class= 'stimulus' src='images/baseline/04300v.jpg'></img></p>","null","","1551048298118","","","","","","",""
"null","","html-keyboard-response","242","2822405","0.0-6.0-8.12","35","<p><img class= 'stimulus' src='images/baseline/meadow-with-mountain-in-background.jpg'></img></p>","null","","1551048298219","8","","","","","",""
"null","","html-keyboard-response","243","2822504","0.0-6.0-9.12","35","<p><img class= 'stimulus' src='images/baseline/pexels-photo-280222.jpeg'></img></p>","null","","1551048298318","","","","","","",""
"null","","html-keyboard-response","244","2822604","0.0-6.0-10.12","35","<p><img class= 'stimulus' src='images/baseline/Path 1.jpg'></img></p>","null","","1551048298418","","","","","","",""
"null","","html-keyboard-response","245","2822705","0.0-6.0-11.12","35","<p><img class= 'stimulus' src='images/baseline/Waterfall 1.jpg'></img></p>","null","","1551048298517","","","","","","",""
"null","","html-keyboard-response","246","2822805","0.0-6.0-12.12","35","<p><img class= 'stimulus left-rotate' src='images/target/pexels-photo-210683.jpeg'></img></p>","null","","1551048298617","12","","","","","",""
"null","","html-keyboard-response","247","2822905","0.0-6.0-13.12","35","<p><img class= 'stimulus' src='images/baseline/building6.jpg'></img></p>","null","","1551048298718","","","","","","",""
"null","","html-keyboard-response","248","2823005","0.0-6.0-14.12","35","<p><img class= 'stimulus' src='images/baseline/04086v.jpg'></img></p>","null","","1551048298818","14","","","","","",""
"null","","html-keyboard-response","249","2823105","0.0-6.0-15.12","35","<p><img class= 'stimulus' src='images/baseline/Street 5.jpg'></img></p>","null","","1551048298917","","","","","","",""
"null","","html-keyboard-response","250","2823206","0.0-6.0-16.12","35","<p><img class= 'stimulus' src='images/baseline/04193v.jpg'></img></p>","null","","1551048299017","","","","","","",""
"null","","html-keyboard-response","251","2823321","0.0-6.0-17.12","35","<p><img class= 'stimulus' src='images/baseline/Beach 3.jpg'></img></p>","null","","1551048299118","","","","","","",""
"2176.299999999348","","html-button-response","252","2826502","0.0-6.0-18.12","35","<div class = ""response_question"">WAS THE IMAGE ROTATED...</div>","","1","","","4","8","bas","left","practice","true"
"1854.3999999999069","","html-button-response","253","2828357","0.0-6.0-0.13","35","","","0","","","","","","","",""
"null","","html-keyboard-response","254","2828438","0.0-6.0-1.13","35","<p><img class= 'stimulus' src='images/baseline/05292v.jpg'></img></p>","null","","1551048304251","","","","","","",""
"null","","html-keyboard-response","255","2828538","0.0-6.0-2.13","35","<p><img class= 'stimulus' src='images/baseline/03045v.jpg'></img></p>","null","","1551048304351","","","","","","",""
"null","","html-keyboard-response","256","2828638","0.0-6.0-3.13","35","<p><img class= 'stimulus' src='images/baseline/bird-flying-at-sunset.jpg'></img></p>","null","","1551048304452","","","","","","",""
"null","","html-keyboard-response","257","2828739","0.0-6.0-4.13","35","<p><img class= 'stimulus' src='images/baseline/field 1.jpg'></img></p>","null","","1551048304552","4","","","","","",""
"null","","html-keyboard-response","258","2828838","0.0-6.0-5.13","35","<p><img class= 'stimulus' src='images/baseline/scenic-mountain-landscape.jpg'></img></p>","null","","1551048304650","","","","","","",""
"null","","html-keyboard-response","259","2828939","0.0-6.0-6.13","35","<p><img class= 'stimulus' src='images/baseline/farmhouse3.jpg'></img></p>","null","","1551048304751","6","","","","","",""
"null","","html-keyboard-response","260","2829038","0.0-6.0-7.13","35","<p><img class= 'stimulus' src='images/baseline/landscape23.jpg'></img></p>","null","","1551048304851","","","","","","",""
"null","","html-keyboard-response","261","2829139","0.0-6.0-8.13","35","<p><img class= 'stimulus left-rotate' src='images/target/building3.jpg'></img></p>","null","","1551048304952","8","","","","","",""
"null","","html-keyboard-response","262","2829239","0.0-6.0-9.13","35","<p><img class= 'stimulus' src='images/baseline/city-silhouette-at-sunset-871291580819Esw.jpg'></img></p>","null","","1551048305051","","","","","","",""
"null","","html-keyboard-response","263","2829338","0.0-6.0-10.13","35","<p><img class= 'stimulus' src='images/baseline/farmhouse11.jpg'></img></p>","null","","1551048305151","","","","","","",""
"null","","html-keyboard-response","264","2829438","0.0-6.0-11.13","35","<p><img class= 'stimulus' src='images/baseline/02982v.jpg'></img></p>","null","","1551048305251","","","","","","",""
"null","","html-keyboard-response","265","2829539","0.0-6.0-12.13","35","<p><img class= 'stimulus' src='images/baseline/tennis-court-net-buried-in-snow.jpg'></img></p>","null","","1551048305352","12","","","","","",""
"null","","html-keyboard-response","266","2829638","0.0-6.0-13.13","35","<p><img class= 'stimulus' src='images/baseline/house3.jpg'></img></p>","null","","1551048305452","","","","","","",""
"null","","html-keyboard-response","267","2829738","0.0-6.0-14.13","35","<p><img class= 'stimulus' src='images/baseline/02962v.jpg'></img></p>","null","","1551048305550","14","","","","","",""
"null","","html-keyboard-response","268","2829838","0.0-6.0-15.13","35","<p><img class= 'stimulus' src='images/baseline/farmhouse9.jpg'></img></p>","null","","1551048305652","","","","","","",""
"null","","html-keyboard-response","269","2829938","0.0-6.0-16.13","35","<p><img class= 'stimulus' src='images/baseline/Street 2.jpg'></img></p>","null","","1551048305751","","","","","","",""
"null","","html-keyboard-response","270","2830055","0.0-6.0-17.13","35","<p><img class= 'stimulus' src='images/baseline/valley 1.jpg'></img></p>","null","","1551048305851","","","","","","",""
"1481.700000000652","","html-button-response","271","2832542","0.0-6.0-18.13","35","<div class = ""response_question"">WAS THE IMAGE ROTATED...</div>","","0","","","6","2","bas","left","practice","true"
"8430.200000000652","","html-button-response","272","2840974","0.0-6.0-0.14","35","","","0","","","","","","","",""
"null","","html-keyboard-response","273","2841055","0.0-6.0-1.14","35","<p><img class= 'stimulus' src='images/baseline/pexels-photo-568236.jpeg'></img></p>","null","","1551048316867","","","","","","",""
"null","","html-keyboard-response","274","2841155","0.0-6.0-2.14","35","<p><img class= 'stimulus' src='images/baseline/Bahia_Onelli_Parque_Nacional_Los_Glaciares_Patagonia_Argentina_Luca_Galuzzi_2005.jpg'></img></p>","null","","1551048316967","","","","","","",""
"null","","html-keyboard-response","275","2841255","0.0-6.0-3.14","35","<p><img class= 'stimulus' src='images/baseline/landscape37.jpg'></img></p>","null","","1551048317068","","","","","","",""
"null","","html-keyboard-response","276","2841355","0.0-6.0-4.14","35","<p><img class= 'stimulus' src='images/baseline/Nature 1.jpg'></img></p>","null","","1551048317168","4","","","","","",""
"null","","html-keyboard-response","277","2841455","0.0-6.0-5.14","35","<p><img class= 'stimulus' src='images/baseline/05145v.jpg'></img></p>","null","","1551048317268","","","","","","",""
"null","","html-keyboard-response","278","2841555","0.0-6.0-6.14","35","<p><img class= 'stimulus' src='images/baseline/03212v.jpg'></img></p>","null","","1551048317368","6","","","","","",""
"null","","html-keyboard-response","279","2841656","0.0-6.0-7.14","35","<p><img class= 'stimulus' src='images/baseline/vintage-art-deco-storefront.jpg'></img></p>","null","","1551048317468","","","","","","",""
"null","","html-keyboard-response","280","2841755","0.0-6.0-8.14","35","<p><img class= 'stimulus' src='images/baseline/Beach 8.jpg'></img></p>","null","","1551048317568","8","","","","","",""
"null","","html-keyboard-response","281","2841856","0.0-6.0-9.14","35","<p><img class= 'stimulus' src='images/baseline/building5.jpg'></img></p>","null","","1551048317668","","","","","","",""
"null","","html-keyboard-response","282","2841956","0.0-6.0-10.14","35","<p><img class= 'stimulus' src='images/baseline/house11.jpg'></img></p>","null","","1551048317769","","","","","","",""
"null","","html-keyboard-response","283","2842056","0.0-6.0-11.14","35","<p><img class= 'stimulus' src='images/baseline/Freudenberg_sg_Switzerland.jpg'></img></p>","null","","1551048317869","","","","","","",""
"null","","html-keyboard-response","284","2842155","0.0-6.0-12.14","35","<p><img class= 'stimulus' src='images/baseline/Street 3.jpg'></img></p>","null","","1551048317967","12","","","","","",""
"null","","html-keyboard-response","285","2842255","0.0-6.0-13.14","35","<p><img class= 'stimulus' src='images/baseline/sunset-over-the-lake.jpg'></img></p>","null","","1551048318067","","","","","","",""
"null","","html-keyboard-response","286","2842355","0.0-6.0-14.14","35","<p><img class= 'stimulus' src='images/target/dubai-1113262_640.jpg'></img></p>","null","","1551048318168","14","","","","","",""
"null","","html-keyboard-response","287","2842456","0.0-6.0-15.14","35","<p><img class= 'stimulus' src='images/baseline/agriculture-bright-clouds-440731.jpg'></img></p>","null","","1551048318267","","","","","","",""
"null","","html-keyboard-response","288","2842556","0.0-6.0-16.14","35","<p><img class= 'stimulus' src='images/baseline/pexels-photo-534164.jpeg'></img></p>","null","","1551048318367","","","","","","",""
"null","","html-keyboard-response","289","2842673","0.0-6.0-17.14","35","<p><img class= 'stimulus' src='images/baseline/02971v.jpg'></img></p>","null","","1551048318468","","","","","","",""
"2944.9000000003725","","html-button-response","290","2846623","0.0-6.0-18.14","35","<div class = ""response_question"">WAS THE IMAGE ROTATED...</div>","","4","","","6","8","bas","right","practice","true"
"3037.700000000652","","html-button-response","291","2849662","0.0-6.0-0.15","35","","","0","","","","","","","",""
"null","","html-keyboard-response","292","2849755","0.0-6.0-1.15","35","<p><img class= 'stimulus' src='images/baseline/05161v.jpg'></img></p>","null","","1551048325567","","","","","","",""
"null","","html-keyboard-response","293","2849855","0.0-6.0-2.15","35","<p><img class= 'stimulus' src='images/baseline/Nature 2.jpg'></img></p>","null","","1551048325667","","","","","","",""
"null","","html-keyboard-response","294","2849955","0.0-6.0-3.15","35","<p><img class= 'stimulus' src='images/baseline/05252v.jpg'></img></p>","null","","1551048325767","","","","","","",""
"null","","html-keyboard-response","295","2850055","0.0-6.0-4.15","35","<p><img class= 'stimulus' src='images/baseline/road 1(1).jpg'></img></p>","null","","1551048325867","4","","","","","",""
"null","","html-keyboard-response","296","2850155","0.0-6.0-5.15","35","<p><img class= 'stimulus' src='images/baseline/Beach 2.jpg'></img></p>","null","","1551048325968","","","","","","",""
"null","","html-keyboard-response","297","2850255","0.0-6.0-6.15","35","<p><img class= 'stimulus' src='images/baseline/building4.jpg'></img></p>","null","","1551048326068","6","","","","","",""
"null","","html-keyboard-response","298","2850355","0.0-6.0-7.15","35","<p><img class= 'stimulus' src='images/baseline/pexels-photo-440731.jpeg'></img></p>","null","","1551048326168","","","","","","",""
"null","","html-keyboard-response","299","2850456","0.0-6.0-8.15","35","<p><img class= 'stimulus' src='images/baseline/4k-wallpaper-agriculture-clouds-842711.jpg'></img></p>","null","","1551048326268","8","","","","","",""
"null","","html-keyboard-response","300","2850556","0.0-6.0-9.15","35","<p><img class= 'stimulus' src='images/baseline/Sky 1.jpg'></img></p>","null","","1551048326368","","","","","","",""
"null","","html-keyboard-response","301","2850656","0.0-6.0-10.15","35","<p><img class= 'stimulus' src='images/baseline/04196v.jpg'></img></p>","null","","1551048326469","","","","","","",""
"null","","html-keyboard-response","302","2850755","0.0-6.0-11.15","35","<p><img class= 'stimulus' src='images/baseline/architecture-1314416_1920.jpg'></img></p>","null","","1551048326569","","","","","","",""
"null","","html-keyboard-response","303","2850856","0.0-6.0-12.15","35","<p><img class= 'stimulus' src='images/baseline/horse_statue.jpg'></img></p>","null","","1551048326669","12","","","","","",""
"null","","html-keyboard-response","304","2850955","0.0-6.0-13.15","35","<p><img class= 'stimulus' src='images/baseline/Lake 5.jpg'></img></p>","null","","1551048326767","","","","","","",""
"null","","html-keyboard-response","305","2851055","0.0-6.0-14.15","35","<p><img class= 'stimulus left-rotate' src='images/target/torrotito-375925_640.jpg'></img></p>","null","","1551048326869","14","","","","","",""
"null","","html-keyboard-response","306","2851155","0.0-6.0-15.15","35","<p><img class= 'stimulus' src='images/baseline/landscape6.jpg'></img></p>","null","","1551048326968","","","","","","",""
"null","","html-keyboard-response","307","2851257","0.0-6.0-16.15","35","<p><img class= 'stimulus' src='images/baseline/05198v.jpg'></img></p>","null","","1551048327067","","","","","","",""
"null","","html-keyboard-response","308","2851372","0.0-6.0-17.15","35","<p><img class= 'stimulus' src='images/baseline/Lake 8.jpg'></img></p>","null","","1551048327168","","","","","","",""
"8276.600000001024","","html-button-response","309","2860654","0.0-6.0-18.15","35","<div class = ""response_question"">WAS THE IMAGE ROTATED...</div>","","1","","","6","8","bas","left","practice","true"
"47374.19999999879","","html-button-response","310","2908036","0.0-7.0","35","<p>You have now completed the practice phase. We will now begin the real trials.         This is a reminder that you will be searching for a rotated image among the series of upright images.</p>         <p>Remember, please do not blink or move your eyes while the images are on the screen.</p>         <p>At the end of the experiment, the experimenter will be able to show you how accurate you were.</p>","","0","","","","","","","",""
"5686.900000000838","","html-button-response","311","2913724","0.0-8.0-0.0-0.0","35","","","0","","","","","","","",""
"null","","html-keyboard-response","312","2913796","0.0-8.0-0.0-1.0","35","<p><img class= 'stimulus' src='images/baseline/03180v.jpg'></img></p>","null","","1551048389607","","","","","","",""
"null","","html-keyboard-response","313","2913896","0.0-8.0-0.0-2.0","35","<p><img class= 'stimulus' src='images/baseline/red-rocks-park.jpg'></img></p>","null","","1551048389708","","","","","","",""
"null","","html-keyboard-response","314","2913995","0.0-8.0-0.0-3.0","35","<p><img class= 'stimulus' src='images/baseline/05303v.jpg'></img></p>","null","","1551048389809","","","","","","",""
"null","","html-keyboard-response","315","2914095","0.0-8.0-0.0-4.0","35","<p><img class= 'stimulus' src='images/baseline/pexels-photo-221125.jpeg'></img></p>","null","","1551048389907","4","","","","","",""
"null","","html-keyboard-response","316","2914196","0.0-8.0-0.0-5.0","35","<p><img class= 'stimulus' src='images/baseline/landscape4.jpg'></img></p>","null","","1551048390008","","","","","","",""
"null","","html-keyboard-response","317","2914296","0.0-8.0-0.0-6.0","35","<p><img class= 'stimulus' src='images/neutral/Dog 2.jpg'></img></p>","null","","1551048390108","6","","","","","",""
"null","","html-keyboard-response","318","2914396","0.0-8.0-0.0-7.0","35","<p><img class= 'stimulus' src='images/baseline/02977v.jpg'></img></p>","null","","1551048390208","","","","","","",""
"null","","html-keyboard-response","319","2914496","0.0-8.0-0.0-8.0","35","<p><img class= 'stimulus' src='images/baseline/architecture-1314416_1920.jpg'></img></p>","null","","1551048390309","8","","","","","",""
"null","","html-keyboard-response","320","2914596","0.0-8.0-0.0-9.0","35","<p><img class= 'stimulus' src='images/baseline/cyrillic.jpg'></img></p>","null","","1551048390408","","","","","","",""
"null","","html-keyboard-response","321","2914696","0.0-8.0-0.0-10.0","35","<p><img class= 'stimulus' src='images/baseline/Bridge 1.jpg'></img></p>","null","","1551048390509","","","","","","",""
"null","","html-keyboard-response","322","2914795","0.0-8.0-0.0-11.0","35","<p><img class= 'stimulus' src='images/baseline/valley 2.jpg'></img></p>","null","","1551048390609","","","","","","",""
"null","","html-keyboard-response","323","2914895","0.0-8.0-0.0-12.0","35","<p><img class= 'stimulus' src='images/baseline/field 1.jpg'></img></p>","null","","1551048390707","12","","","","","",""
"null","","html-keyboard-response","324","2914996","0.0-8.0-0.0-13.0","35","<p><img class= 'stimulus' src='images/baseline/Street 2.jpg'></img></p>","null","","1551048390808","","","","","","",""
"null","","html-keyboard-response","325","2915095","0.0-8.0-0.0-14.0","35","<p><img class= 'stimulus left-rotate' src='images/target/landscape_1.jpg'></img></p>","null","","1551048390908","14","","","","","",""
"null","","html-keyboard-response","326","2915196","0.0-8.0-0.0-15.0","35","<p><img class= 'stimulus' src='images/baseline/architecture-956332_1280.jpg'></img></p>","null","","1551048391008","","","","","","",""
"null","","html-keyboard-response","327","2915296","0.0-8.0-0.0-16.0","35","<p><img class= 'stimulus' src='images/baseline/seoul-410266_1920.jpg'></img></p>","null","","1551048391108","","","","","","",""
"null","","html-keyboard-response","328","2915413","0.0-8.0-0.0-17.0","35","<p><img class= 'stimulus' src='images/baseline/Lake 14.jpg'></img></p>","null","","1551048391209","","","","","","",""
"5149.4000000003725","","html-button-response","329","2921581","0.0-8.0-0.0-18.0","35","<div class = ""response_question"">WAS THE IMAGE ROTATED...</div>","","0","","","6","8","neu","left","test","true"
"1877.3000000002794","","html-button-response","330","2923460","0.0-8.0-0.0-0.1","35","","","0","","","","","","","",""
"null","","html-keyboard-response","331","2923548","0.0-8.0-0.0-1.1","35","<p><img class= 'stimulus' src='images/baseline/dirt-road-or-trail-through-park.jpg'></img></p>","null","","1551048399358","","","","","","",""
"null","","html-keyboard-response","332","2923646","0.0-8.0-0.0-2.1","35","<p><img class= 'stimulus' src='images/baseline/farmhouse2.jpg'></img></p>","null","","1551048399459","","","","","","",""
"null","","html-keyboard-response","333","2923745","0.0-8.0-0.0-3.1","35","<p><img class= 'stimulus' src='images/baseline/03162v.jpg'></img></p>","null","","1551048399558","","","","","","",""
"null","","html-keyboard-response","334","2923846","0.0-8.0-0.0-4.1","35","<p><img class= 'stimulus' src='images/baseline/autumn-landscape-with-lake-fall-trees-mountains.jpg'></img></p>","null","","1551048399658","4","","","","","",""
"null","","html-keyboard-response","335","2923946","0.0-8.0-0.0-5.1","35","<p><img class= 'stimulus' src='images/baseline/Sunset 6.jpg'></img></p>","null","","1551048399759","","","","","","",""
"null","","html-keyboard-response","336","2924046","0.0-8.0-0.0-6.1","35","<p><img class= 'stimulus left-rotate' src='images/target/1937-single-tree-at-the-top-of-stone-mountain-pv.jpg'></img></p>","null","","1551048399858","6","","","","","",""
"null","","html-keyboard-response","337","2924146","0.0-8.0-0.0-7.1","35","<p><img class= 'stimulus' src='images/baseline/farmhouse8.jpg'></img></p>","null","","1551048399958","","","","","","",""
"null","","html-keyboard-response","338","2924246","0.0-8.0-0.0-8.1","35","<p><img class= 'stimulus' src='images/baseline/field 2.jpg'></img></p>","null","","1551048400060","8","","","","","",""
"null","","html-keyboard-response","339","2924345","0.0-8.0-0.0-9.1","35","<p><img class= 'stimulus' src='images/baseline/05247v.jpg'></img></p>","null","","1551048400158","","","","","","",""
"null","","html-keyboard-response","340","2924445","0.0-8.0-0.0-10.1","35","<p><img class= 'stimulus' src='images/baseline/lookout_tower.jpg'></img></p>","null","","1551048400258","","","","","","",""
"null","","html-keyboard-response","341","2924546","0.0-8.0-0.0-11.1","35","<p><img class= 'stimulus' src='images/baseline/Desert_View_Indian_Wells.jpg'></img></p>","null","","1551048400359","","","","","","",""
"null","","html-keyboard-response","342","2924645","0.0-8.0-0.0-12.1","35","<p><img class= 'stimulus' src='images/baseline/pexels-photo-1261728.jpeg'></img></p>","null","","1551048400459","12","","","","","",""
"null","","html-keyboard-response","343","2924746","0.0-8.0-0.0-13.1","35","<p><img class= 'stimulus' src='images/baseline/03063v.jpg'></img></p>","null","","1551048400557","","","","","","",""
"null","","html-keyboard-response","344","2924846","0.0-8.0-0.0-14.1","35","<p><img class= 'stimulus' src='images/baseline/05264v.jpg'></img></p>","null","","1551048400657","14","","","","","",""
"null","","html-keyboard-response","345","2924946","0.0-8.0-0.0-15.1","35","<p><img class= 'stimulus' src='images/baseline/hiking-trail.jpg'></img></p>","null","","1551048400758","","","","","","",""
"null","","html-keyboard-response","346","2925046","0.0-8.0-0.0-16.1","35","<p><img class= 'stimulus' src='images/baseline/Beach 2.jpg'></img></p>","null","","1551048400859","","","","","","",""
"null","","html-keyboard-response","347","2925162","0.0-8.0-0.0-17.1","35","<p><img class= 'stimulus' src='images/baseline/03220v.jpg'></img></p>","null","","1551048400959","","","","","","",""
"2236.800000000745","","html-button-response","348","2928404","0.0-8.0-0.0-18.1","35","<div class = ""response_question"">WAS THE IMAGE ROTATED...</div>","","1","","","4","2","bas","left","test","true"
"2862.4000000003725","","html-button-response","349","2931269","0.0-8.0-0.0-0.2","35","","","0","","","","","","","",""
"null","","html-keyboard-response","350","2931348","0.0-8.0-0.0-1.2","35","<p><img class= 'stimulus' src='images/baseline/church-silhouette-8712964986014Kb.jpg'></img></p>","null","","1551048407159","","","","","","",""
"null","","html-keyboard-response","351","2931447","0.0-8.0-0.0-2.2","35","<p><img class= 'stimulus' src='images/baseline/4k-wallpaper-agriculture-clouds-842711.jpg'></img></p>","null","","1551048407259","","","","","","",""
"null","","html-keyboard-response","352","2931546","0.0-8.0-0.0-3.2","35","<p><img class= 'stimulus' src='images/baseline/snowy tree.jpg'></img></p>","null","","1551048407359","","","","","","",""
"null","","html-keyboard-response","353","2931646","0.0-8.0-0.0-4.2","35","<p><img class= 'stimulus' src='images/baseline/pexels-photo-750108.jpeg'></img></p>","null","","1551048407458","4","","","","","",""
"null","","html-keyboard-response","354","2931745","0.0-8.0-0.0-5.2","35","<p><img class= 'stimulus' src='images/baseline/field 4.jpg'></img></p>","null","","1551048407559","","","","","","",""
"null","","html-keyboard-response","355","2931845","0.0-8.0-0.0-6.2","35","<p><img class= 'stimulus' src='images/baseline/farmhouse3.jpg'></img></p>","null","","1551048407659","6","","","","","",""
"null","","html-keyboard-response","356","2931946","0.0-8.0-0.0-7.2","35","<p><img class= 'stimulus' src='images/baseline/Lake 3.jpg'></img></p>","null","","1551048407759","","","","","","",""
"null","","html-keyboard-response","357","2932046","0.0-8.0-0.0-8.2","35","<p><img class= 'stimulus' src='images/baseline/farmhouse4.jpg'></img></p>","null","","1551048407859","8","","","","","",""
"null","","html-keyboard-response","358","2932147","0.0-8.0-0.0-9.2","35","<p><img class= 'stimulus' src='images/baseline/building5.jpg'></img></p>","null","","1551048407959","","","","","","",""
"null","","html-keyboard-response","359","2932247","0.0-8.0-0.0-10.2","35","<p><img class= 'stimulus' src='images/baseline/03148v.jpg'></img></p>","null","","1551048408058","","","","","","",""
"null","","html-keyboard-response","360","2932347","0.0-8.0-0.0-11.2","35","<p><img class= 'stimulus' src='images/baseline/04085v.jpg'></img></p>","null","","1551048408159","","","","","","",""
"null","","html-keyboard-response","361","2932446","0.0-8.0-0.0-12.2","35","<p><img class= 'stimulus' src='images/target/pexels-photo-1123982.jpeg'></img></p>","null","","1551048408258","12","","","","","",""
"null","","html-keyboard-response","362","2932547","0.0-8.0-0.0-13.2","35","<p><img class= 'stimulus' src='images/baseline/sunset-over-the-lake.jpg'></img></p>","null","","1551048408359","","","","","","",""
"null","","html-keyboard-response","363","2932646","0.0-8.0-0.0-14.2","35","<p><img class= 'stimulus' src='images/baseline/empire-state-building.jpg'></img></p>","null","","1551048408458","14","","","","","",""
"null","","html-keyboard-response","364","2932746","0.0-8.0-0.0-15.2","35","<p><img class= 'stimulus' src='images/baseline/04062v.jpg'></img></p>","null","","1551048408559","","","","","","",""
"null","","html-keyboard-response","365","2932846","0.0-8.0-0.0-16.2","35","<p><img class= 'stimulus' src='images/baseline/Nature 2.jpg'></img></p>","null","","1551048408659","","","","","","",""
"null","","html-keyboard-response","366","2932963","0.0-8.0-0.0-17.2","35","<p><img class= 'stimulus' src='images/baseline/building9.jpg'></img></p>","null","","1551048408759","","","","","","",""
"2027.8999999994412","","html-button-response","367","2935997","0.0-8.0-0.0-18.2","35","<div class = ""response_question"">WAS THE IMAGE ROTATED...</div>","","3","","","4","8","bas","right","test","true"
"6574.499999998603","","html-button-response","368","2942572","0.0-8.0-0.0-0.3","35","","","0","","","","","","","",""
"null","","html-keyboard-response","369","2942647","0.0-8.0-0.0-1.3","35","<p><img class= 'stimulus' src='images/baseline/landscape34.jpg'></img></p>","null","","1551048418458","","","","","","",""
"null","","html-keyboard-response","370","2942745","0.0-8.0-0.0-2.3","35","<p><img class= 'stimulus' src='images/baseline/landscape40.jpg'></img></p>","null","","1551048418559","","","","","","",""
"null","","html-keyboard-response","371","2942845","0.0-8.0-0.0-3.3","35","<p><img class= 'stimulus' src='images/baseline/pexels-photo-894312.jpeg'></img></p>","null","","1551048418659","","","","","","",""
"null","","html-keyboard-response","372","2942947","0.0-8.0-0.0-4.3","35","<p><img class= 'stimulus' src='images/neutral/horse.png'></img></p>","null","","1551048418758","4","","","","","",""
"null","","html-keyboard-response","373","2943045","0.0-8.0-0.0-5.3","35","<p><img class= 'stimulus' src='images/baseline/05240v.jpg'></img></p>","null","","1551048418859","","","","","","",""
"null","","html-keyboard-response","374","2943146","0.0-8.0-0.0-6.3","35","<p><img class= 'stimulus' src='images/baseline/building8.jpg'></img></p>","null","","1551048418958","6","","","","","",""
"null","","html-keyboard-response","375","2943246","0.0-8.0-0.0-7.3","35","<p><img class= 'stimulus' src='images/baseline/pexels-photo-568236.jpeg'></img></p>","null","","1551048419059","","","","","","",""
"null","","html-keyboard-response","376","2943347","0.0-8.0-0.0-8.3","35","<p><img class= 'stimulus' src='images/baseline/landscape14.jpg'></img></p>","null","","1551048419159","8","","","","","",""
"null","","html-keyboard-response","377","2943446","0.0-8.0-0.0-9.3","35","<p><img class= 'stimulus' src='images/baseline/building2.jpg'></img></p>","null","","1551048419259","","","","","","",""
"null","","html-keyboard-response","378","2943546","0.0-8.0-0.0-10.3","35","<p><img class= 'stimulus' src='images/baseline/03098v.jpg'></img></p>","null","","1551048419359","","","","","","",""
"null","","html-keyboard-response","379","2943646","0.0-8.0-0.0-11.3","35","<p><img class= 'stimulus' src='images/baseline/02945v.jpg'></img></p>","null","","1551048419460","","","","","","",""
"null","","html-keyboard-response","380","2943746","0.0-8.0-0.0-12.3","35","<p><img class= 'stimulus' src='images/target/building1.jpg'></img></p>","null","","1551048419558","12","","","","","",""
"null","","html-keyboard-response","381","2943846","0.0-8.0-0.0-13.3","35","<p><img class= 'stimulus' src='images/baseline/Beach 8.jpg'></img></p>","null","","1551048419658","","","","","","",""
"null","","html-keyboard-response","382","2943946","0.0-8.0-0.0-14.3","35","<p><img class= 'stimulus' src='images/baseline/Road 1.jpg'></img></p>","null","","1551048419759","14","","","","","",""
"null","","html-keyboard-response","383","2944045","0.0-8.0-0.0-15.3","35","<p><img class= 'stimulus' src='images/baseline/landscape13.jpg'></img></p>","null","","1551048419858","","","","","","",""
"null","","html-keyboard-response","384","2944146","0.0-8.0-0.0-16.3","35","<p><img class= 'stimulus' src='images/baseline/pexels-photo-808465.jpeg'></img></p>","null","","1551048419959","","","","","","",""
"null","","html-keyboard-response","385","2944264","0.0-8.0-0.0-17.3","35","<p><img class= 'stimulus' src='images/baseline/building6.jpg'></img></p>","null","","1551048420058","","","","","","",""
"4576.699999999721","","html-button-response","386","2949844","0.0-8.0-0.0-18.3","35","<div class = ""response_question"">WAS THE IMAGE ROTATED...</div>","","3","","","4","8","neu","right","test","true"
"2494.100000000093","","html-button-response","387","2952333","0.0-8.0-0.0-0.4","35","","","0","","","","","","","",""
"null","","html-keyboard-response","388","2952405","0.0-8.0-0.0-1.4","35","<p><img class= 'stimulus' src='images/baseline/Peyto_Lake-Banff_NP-Canada.jpg'></img></p>","null","","1551048428218","","","","","","",""
"null","","html-keyboard-response","389","2952506","0.0-8.0-0.0-2.4","35","<p><img class= 'stimulus' src='images/baseline/Cold 7.jpg'></img></p>","null","","1551048428318","","","","","","",""
"null","","html-keyboard-response","390","2952606","0.0-8.0-0.0-3.4","35","<p><img class= 'stimulus' src='images/baseline/03217v.jpg'></img></p>","null","","1551048428418","","","","","","",""
"null","","html-keyboard-response","391","2952706","0.0-8.0-0.0-4.4","35","<p><img class= 'stimulus' src='images/negative/Snake 1.jpg'></img></p>","null","","1551048428519","4","","","","","",""
"null","","html-keyboard-response","392","2952806","0.0-8.0-0.0-5.4","35","<p><img class= 'stimulus' src='images/baseline/lone-old-cottonwood-tree.jpg'></img></p>","null","","1551048428617","","","","","","",""
"null","","html-keyboard-response","393","2952906","0.0-8.0-0.0-6.4","35","<p><img class= 'stimulus' src='images/baseline/03201v.jpg'></img></p>","null","","1551048428718","6","","","","","",""
"null","","html-keyboard-response","394","2953006","0.0-8.0-0.0-7.4","35","<p><img class= 'stimulus' src='images/baseline/field 3.jpg'></img></p>","null","","1551048428818","","","","","","",""
"null","","html-keyboard-response","395","2953106","0.0-8.0-0.0-8.4","35","<p><img class= 'stimulus' src='images/baseline/04158v.jpg'></img></p>","null","","1551048428918","8","","","","","",""
"null","","html-keyboard-response","396","2953206","0.0-8.0-0.0-9.4","35","<p><img class= 'stimulus' src='images/baseline/lake3.jpg'></img></p>","null","","1551048429018","","","","","","",""
"null","","html-keyboard-response","397","2953306","0.0-8.0-0.0-10.4","35","<p><img class= 'stimulus' src='images/baseline/hills 4.jpg'></img></p>","null","","1551048429119","","","","","","",""
"null","","html-keyboard-response","398","2953406","0.0-8.0-0.0-11.4","35","<p><img class= 'stimulus' src='images/baseline/05158v.jpg'></img></p>","null","","1551048429219","","","","","","",""
"null","","html-keyboard-response","399","2953506","0.0-8.0-0.0-12.4","35","<p><img class= 'stimulus left-rotate' src='images/target/fishhouse.jpg'></img></p>","null","","1551048429318","12","","","","","",""
"null","","html-keyboard-response","400","2953606","0.0-8.0-0.0-13.4","35","<p><img class= 'stimulus' src='images/baseline/Happy pose 3.jpg'></img></p>","null","","1551048429418","","","","","","",""
"null","","html-keyboard-response","401","2953705","0.0-8.0-0.0-14.4","35","<p><img class= 'stimulus' src='images/baseline/landscape22.jpg'></img></p>","null","","1551048429517","14","","","","","",""
"null","","html-keyboard-response","402","2953805","0.0-8.0-0.0-15.4","35","<p><img class= 'stimulus' src='images/baseline/Lake 7.jpg'></img></p>","null","","1551048429617","","","","","","",""
"null","","html-keyboard-response","403","2953905","0.0-8.0-0.0-16.4","35","<p><img class= 'stimulus' src='images/baseline/pexels-photo-59321.jpeg'></img></p>","null","","1551048429718","","","","","","",""
"null","","html-keyboard-response","404","2954022","0.0-8.0-0.0-17.4","35","<p><img class= 'stimulus' src='images/baseline/scenic-mountain-landscape.jpg'></img></p>","null","","1551048429818","","","","","","",""
"2817.399999999907","","html-button-response","405","2957845","0.0-8.0-0.0-18.4","35","<div class = ""response_question"">WAS THE IMAGE ROTATED...</div>","","0","","","4","8","neg","left","test","true"
"2221.8000000012107","","html-button-response","406","2960069","0.0-8.0-0.0-0.5","35","","","0","","","","","","","",""
"null","","html-keyboard-response","407","2960155","0.0-8.0-0.0-1.5","35","<p><img class= 'stimulus' src='images/baseline/pexels-photo-534164.jpeg'></img></p>","null","","1551048435968","","","","","","",""
"null","","html-keyboard-response","408","2960255","0.0-8.0-0.0-2.5","35","<p><img class= 'stimulus' src='images/baseline/02988v.jpg'></img></p>","null","","1551048436068","","","","","","",""
"null","","html-keyboard-response","409","2960356","0.0-8.0-0.0-3.5","35","<p><img class= 'stimulus' src='images/baseline/Dock 1.jpg'></img></p>","null","","1551048436168","","","","","","",""
"null","","html-keyboard-response","410","2960456","0.0-8.0-0.0-4.5","35","<p><img class= 'stimulus' src='images/baseline/05279v.jpg'></img></p>","null","","1551048436267","4","","","","","",""
"null","","html-keyboard-response","411","2960556","0.0-8.0-0.0-5.5","35","<p><img class= 'stimulus' src='images/baseline/landscape37.jpg'></img></p>","null","","1551048436369","","","","","","",""
"null","","html-keyboard-response","412","2960656","0.0-8.0-0.0-6.5","35","<p><img class= 'stimulus' src='images/baseline/building16.jpg'></img></p>","null","","1551048436469","6","","","","","",""
"null","","html-keyboard-response","413","2960757","0.0-8.0-0.0-7.5","35","<p><img class= 'stimulus' src='images/baseline/04031v.jpg'></img></p>","null","","1551048436569","","","","","","",""
"null","","html-keyboard-response","414","2960856","0.0-8.0-0.0-8.5","35","<p><img class= 'stimulus left-rotate' src='images/target/tree.jpeg'></img></p>","null","","1551048436670","8","","","","","",""
"null","","html-keyboard-response","415","2960955","0.0-8.0-0.0-9.5","35","<p><img class= 'stimulus' src='images/baseline/Skyscraper 2.jpg'></img></p>","null","","1551048436768","","","","","","",""
"null","","html-keyboard-response","416","2961056","0.0-8.0-0.0-10.5","35","<p><img class= 'stimulus' src='images/baseline/pexels-photo-1287089.jpeg'></img></p>","null","","1551048436869","","","","","","",""
"null","","html-keyboard-response","417","2961157","0.0-8.0-0.0-11.5","35","<p><img class= 'stimulus' src='images/baseline/sunny-landscape-with-dry-brush-and-mountain-background.jpg'></img></p>","null","","1551048436969","","","","","","",""
"null","","html-keyboard-response","418","2961255","0.0-8.0-0.0-12.5","35","<p><img class= 'stimulus' src='images/baseline/landscape29.jpg'></img></p>","null","","1551048437068","12","","","","","",""
"null","","html-keyboard-response","419","2961355","0.0-8.0-0.0-13.5","35","<p><img class= 'stimulus' src='images/baseline/farmhouse7.jpg'></img></p>","null","","1551048437168","","","","","","",""
"null","","html-keyboard-response","420","2961455","0.0-8.0-0.0-14.5","35","<p><img class= 'stimulus' src='images/baseline/03114v.jpg'></img></p>","null","","1551048437268","14","","","","","",""
"null","","html-keyboard-response","421","2961555","0.0-8.0-0.0-15.5","35","<p><img class= 'stimulus' src='images/baseline/agriculture-cereal-clouds-175389.jpg'></img></p>","null","","1551048437368","","","","","","",""
"null","","html-keyboard-response","422","2961656","0.0-8.0-0.0-16.5","35","<p><img class= 'stimulus' src='images/baseline/Waterfall 1.jpg'></img></p>","null","","1551048437468","","","","","","",""
"null","","html-keyboard-response","423","2961772","0.0-8.0-0.0-17.5","35","<p><img class= 'stimulus' src='images/baseline/pexels-photo-440731.jpeg'></img></p>","null","","1551048437568","","","","","","",""
"5940.000000000466","","html-button-response","424","2968717","0.0-8.0-0.0-18.5","35","<div class = ""response_question"">WAS THE IMAGE ROTATED...</div>","","2","","","6","2","bas","left","test","false"
"2110.199999999255","","html-button-response","425","2970829","0.0-8.0-0.0-0.6","35","","","0","","","","","","","",""
"null","","html-keyboard-response","426","2970907","0.0-8.0-0.0-1.6","35","<p><img class= 'stimulus' src='images/baseline/Sailing 3.jpg'></img></p>","null","","1551048446719","","","","","","",""
"null","","html-keyboard-response","427","2971006","0.0-8.0-0.0-2.6","35","<p><img class= 'stimulus' src='images/baseline/landscape1.jpg'></img></p>","null","","1551048446819","","","","","","",""
"null","","html-keyboard-response","428","2971106","0.0-8.0-0.0-3.6","35","<p><img class= 'stimulus' src='images/baseline/03041v.jpg'></img></p>","null","","1551048446918","","","","","","",""
"null","","html-keyboard-response","429","2971205","0.0-8.0-0.0-4.6","35","<p><img class= 'stimulus' src='images/baseline/04098v.jpg'></img></p>","null","","1551048447018","4","","","","","",""
"null","","html-keyboard-response","430","2971305","0.0-8.0-0.0-5.6","35","<p><img class= 'stimulus' src='images/baseline/02982v.jpg'></img></p>","null","","1551048447118","","","","","","",""
"null","","html-keyboard-response","431","2971406","0.0-8.0-0.0-6.6","35","<p><img class= 'stimulus' src='images/neutral/dog.jpg'></img></p>","null","","1551048447218","6","","","","","",""
"null","","html-keyboard-response","432","2971507","0.0-8.0-0.0-7.6","35","<p><img class= 'stimulus' src='images/baseline/Sunset 3.jpg'></img></p>","null","","1551048447319","","","","","","",""
"null","","html-keyboard-response","433","2971606","0.0-8.0-0.0-8.6","35","<p><img class= 'stimulus' src='images/baseline/chicago-skyline-at-night-1476869511p8U.jpg'></img></p>","null","","1551048447419","8","","","","","",""
"null","","html-keyboard-response","434","2971706","0.0-8.0-0.0-9.6","35","<p><img class= 'stimulus' src='images/baseline/04010v.jpg'></img></p>","null","","1551048447518","","","","","","",""
"null","","html-keyboard-response","435","2971807","0.0-8.0-0.0-10.6","35","<p><img class= 'stimulus' src='images/baseline/04086v.jpg'></img></p>","null","","1551048447618","","","","","","",""
"null","","html-keyboard-response","436","2971906","0.0-8.0-0.0-11.6","35","<p><img class= 'stimulus' src='images/baseline/building4.jpg'></img></p>","null","","1551048447718","","","","","","",""
"null","","html-keyboard-response","437","2972006","0.0-8.0-0.0-12.6","35","<p><img class= 'stimulus' src='images/baseline/house10.jpg'></img></p>","null","","1551048447818","12","","","","","",""
"null","","html-keyboard-response","438","2972105","0.0-8.0-0.0-13.6","35","<p><img class= 'stimulus' src='images/baseline/house3.jpg'></img></p>","null","","1551048447919","","","","","","",""
"null","","html-keyboard-response","439","2972205","0.0-8.0-0.0-14.6","35","<p><img class= 'stimulus left-rotate' src='images/target/italy-building-1206128_1280.jpg'></img></p>","null","","1551048448019","14","","","","","",""
"null","","html-keyboard-response","440","2972305","0.0-8.0-0.0-15.6","35","<p><img class= 'stimulus' src='images/baseline/05161v.jpg'></img></p>","null","","1551048448118","","","","","","",""
"null","","html-keyboard-response","441","2972406","0.0-8.0-0.0-16.6","35","<p><img class= 'stimulus' src='images/baseline/house2.jpg'></img></p>","null","","1551048448219","","","","","","",""
"null","","html-keyboard-response","442","2972524","0.0-8.0-0.0-17.6","35","<p><img class= 'stimulus' src='images/baseline/Lake 15.jpg'></img></p>","null","","1551048448319","","","","","","",""
"2342.0000000004657","","html-button-response","443","2975869","0.0-8.0-0.0-18.6","35","<div class = ""response_question"">WAS THE IMAGE ROTATED...</div>","","1","","","6","8","neu","left","test","true"
"2990.2999999998137","","html-button-response","444","2978861","0.0-8.0-0.0-0.7","35","","","0","","","","","","","",""
"null","","html-keyboard-response","445","2978940","0.0-8.0-0.0-1.7","35","<p><img class= 'stimulus' src='images/baseline/05139v.jpg'></img></p>","null","","1551048454751","","","","","","",""
"null","","html-keyboard-response","446","2979040","0.0-8.0-0.0-2.7","35","<p><img class= 'stimulus' src='images/baseline/Bahia_Onelli_Parque_Nacional_Los_Glaciares_Patagonia_Argentina_Luca_Galuzzi_2005.jpg'></img></p>","null","","1551048454852","","","","","","",""
"null","","html-keyboard-response","447","2979140","0.0-8.0-0.0-3.7","35","<p><img class= 'stimulus' src='images/baseline/farmhouse6.jpg'></img></p>","null","","1551048454952","","","","","","",""
"null","","html-keyboard-response","448","2979239","0.0-8.0-0.0-4.7","35","<p><img class= 'stimulus' src='images/baseline/lake 1.jpg'></img></p>","null","","1551048455052","4","","","","","",""
"null","","html-keyboard-response","449","2979340","0.0-8.0-0.0-5.7","35","<p><img class= 'stimulus' src='images/baseline/99_-_Machu_Picchu_-_Juin_2009.edit3.jpg'></img></p>","null","","1551048455152","","","","","","",""
"null","","html-keyboard-response","450","2979439","0.0-8.0-0.0-6.7","35","<p><img class= 'stimulus' src='images/baseline/05167v.jpg'></img></p>","null","","1551048455252","6","","","","","",""
"null","","html-keyboard-response","451","2979539","0.0-8.0-0.0-7.7","35","<p><img class= 'stimulus' src='images/baseline/Lake 9.jpg'></img></p>","null","","1551048455352","","","","","","",""
"null","","html-keyboard-response","452","2979639","0.0-8.0-0.0-8.7","35","<p><img class= 'stimulus' src='images/baseline/Linden,_paysage.jpg'></img></p>","null","","1551048455451","8","","","","","",""
"null","","html-keyboard-response","453","2979739","0.0-8.0-0.0-9.7","35","<p><img class= 'stimulus' src='images/baseline/pexels-photo-427676.jpeg'></img></p>","null","","1551048455552","","","","","","",""
"null","","html-keyboard-response","454","2979839","0.0-8.0-0.0-10.7","35","<p><img class= 'stimulus' src='images/baseline/autumn-in-red-rocks-park.jpg'></img></p>","null","","1551048455653","","","","","","",""
"null","","html-keyboard-response","455","2979939","0.0-8.0-0.0-11.7","35","<p><img class= 'stimulus' src='images/baseline/pexels-photo-1837621.jpeg'></img></p>","null","","1551048455751","","","","","","",""
"null","","html-keyboard-response","456","2980040","0.0-8.0-0.0-12.7","35","<p><img class= 'stimulus left-rotate' src='images/target/lone-tree-1934897_640.jpg'></img></p>","null","","1551048455852","12","","","","","",""
"null","","html-keyboard-response","457","2980140","0.0-8.0-0.0-13.7","35","<p><img class= 'stimulus' src='images/baseline/Dirt 2.jpg'></img></p>","null","","1551048455952","","","","","","",""
"null","","html-keyboard-response","458","2980240","0.0-8.0-0.0-14.7","35","<p><img class= 'stimulus' src='images/baseline/03066v.jpg'></img></p>","null","","1551048456053","14","","","","","",""
"null","","html-keyboard-response","459","2980338","0.0-8.0-0.0-15.7","35","<p><img class= 'stimulus' src='images/baseline/04064v.jpg'></img></p>","null","","1551048456152","","","","","","",""
"null","","html-keyboard-response","460","2980440","0.0-8.0-0.0-16.7","35","<p><img class= 'stimulus' src='images/baseline/04060v.jpg'></img></p>","null","","1551048456252","","","","","","",""
"null","","html-keyboard-response","461","2980556","0.0-8.0-0.0-17.7","35","<p><img class= 'stimulus' src='images/baseline/04201v.jpg'></img></p>","null","","1551048456352","","","","","","",""
"5626.900000001304","","html-button-response","462","2987189","0.0-8.0-0.0-18.7","35","<div class = ""response_question"">WAS THE IMAGE ROTATED...</div>","","0","","","4","8","bas","left","test","true"
"1878.2999999984168","","html-button-response","463","2989069","0.0-8.0-0.0-0.8","35","","","0","","","","","","","",""
"null","","html-keyboard-response","464","2989157","0.0-8.0-0.0-1.8","35","<p><img class= 'stimulus' src='images/baseline/city-silhouette-at-sunset-871291580819Esw.jpg'></img></p>","null","","1551048464969","","","","","","",""
"null","","html-keyboard-response","465","2989257","0.0-8.0-0.0-2.8","35","<p><img class= 'stimulus' src='images/baseline/Nature 1.jpg'></img></p>","null","","1551048465068","","","","","","",""
"null","","html-keyboard-response","466","2989356","0.0-8.0-0.0-3.8","35","<p><img class= 'stimulus' src='images/baseline/03075v.jpg'></img></p>","null","","1551048465169","","","","","","",""
"null","","html-keyboard-response","467","2989456","0.0-8.0-0.0-4.8","35","<p><img class= 'stimulus' src='images/neutral/Crow 1.jpg'></img></p>","null","","1551048465269","4","","","","","",""
"null","","html-keyboard-response","468","2989557","0.0-8.0-0.0-5.8","35","<p><img class= 'stimulus' src='images/baseline/Freudenberg_sg_Switzerland.jpg'></img></p>","null","","1551048465368","","","","","","",""
"null","","html-keyboard-response","469","2989656","0.0-8.0-0.0-6.8","35","<p><img class= 'stimulus' src='images/baseline/farmhouse9.jpg'></img></p>","null","","1551048465470","6","","","","","",""
"null","","html-keyboard-response","470","2989756","0.0-8.0-0.0-7.8","35","<p><img class= 'stimulus' src='images/baseline/pexels-photo-259280.jpeg'></img></p>","null","","1551048465568","","","","","","",""
"null","","html-keyboard-response","471","2989856","0.0-8.0-0.0-8.8","35","<p><img class= 'stimulus' src='images/baseline/05292v.jpg'></img></p>","null","","1551048465668","8","","","","","",""
"null","","html-keyboard-response","472","2989956","0.0-8.0-0.0-9.8","35","<p><img class= 'stimulus' src='images/baseline/architecture_modern_architecture_852928.jpg'></img></p>","null","","1551048465768","","","","","","",""
"null","","html-keyboard-response","473","2990056","0.0-8.0-0.0-10.8","35","<p><img class= 'stimulus' src='images/baseline/03112v.jpg'></img></p>","null","","1551048465868","","","","","","",""
"null","","html-keyboard-response","474","2990157","0.0-8.0-0.0-11.8","35","<p><img class= 'stimulus' src='images/baseline/landscape33.jpg'></img></p>","null","","1551048465969","","","","","","",""
"null","","html-keyboard-response","475","2990258","0.0-8.0-0.0-12.8","35","<p><img class= 'stimulus left-rotate' src='images/target/coconut-3396945_640.jpg'></img></p>","null","","1551048466069","12","","","","","",""
"null","","html-keyboard-response","476","2990356","0.0-8.0-0.0-13.8","35","<p><img class= 'stimulus' src='images/baseline/Camping 10.jpg'></img></p>","null","","1551048466169","","","","","","",""
"null","","html-keyboard-response","477","2990456","0.0-8.0-0.0-14.8","35","<p><img class= 'stimulus' src='images/baseline/03204v.jpg'></img></p>","null","","1551048466269","14","","","","","",""
"null","","html-keyboard-response","478","2990557","0.0-8.0-0.0-15.8","35","<p><img class= 'stimulus' src='images/baseline/02962v.jpg'></img></p>","null","","1551048466368","","","","","","",""
"null","","html-keyboard-response","479","2990656","0.0-8.0-0.0-16.8","35","<p><img class= 'stimulus' src='images/baseline/meadow-with-mountain-in-background.jpg'></img></p>","null","","1551048466469","","","","","","",""
"null","","html-keyboard-response","480","2990773","0.0-8.0-0.0-17.8","35","<p><img class= 'stimulus' src='images/baseline/04014v.jpg'></img></p>","null","","1551048466569","","","","","","",""
"2460.2999999984168","","html-button-response","481","2994238","0.0-8.0-0.0-18.8","35","<div class = ""response_question"">WAS THE IMAGE ROTATED...</div>","","5","","","4","8","neu","left","test","false"
"4005.6999999997206","","html-button-response","482","2998246","0.0-8.0-0.0-0.9","35","","","0","","","","","","","",""
"null","","html-keyboard-response","483","2998324","0.0-8.0-0.0-1.9","35","<p><img class= 'stimulus' src='images/baseline/road 1(1).jpg'></img></p>","null","","1551048474136","","","","","","",""
"null","","html-keyboard-response","484","2998424","0.0-8.0-0.0-2.9","35","<p><img class= 'stimulus' src='images/baseline/landscape7.jpg'></img></p>","null","","1551048474235","","","","","","",""
"null","","html-keyboard-response","485","2998522","0.0-8.0-0.0-3.9","35","<p><img class= 'stimulus' src='images/baseline/river 1.jpg'></img></p>","null","","1551048474336","","","","","","",""
"null","","html-keyboard-response","486","2998623","0.0-8.0-0.0-4.9","35","<p><img class= 'stimulus' src='images/baseline/Street 1.jpg'></img></p>","null","","1551048474435","4","","","","","",""
"null","","html-keyboard-response","487","2998723","0.0-8.0-0.0-5.9","35","<p><img class= 'stimulus' src='images/baseline/02971v.jpg'></img></p>","null","","1551048474535","","","","","","",""
"null","","html-keyboard-response","488","2998823","0.0-8.0-0.0-6.9","35","<p><img class= 'stimulus' src='images/baseline/03045v.jpg'></img></p>","null","","1551048474636","6","","","","","",""
"null","","html-keyboard-response","489","2998923","0.0-8.0-0.0-7.9","35","<p><img class= 'stimulus' src='images/baseline/02960v.jpg'></img></p>","null","","1551048474735","","","","","","",""
"null","","html-keyboard-response","490","2999023","0.0-8.0-0.0-8.9","35","<p><img class= 'stimulus' src='images/baseline/04229v.jpg'></img></p>","null","","1551048474837","8","","","","","",""
"null","","html-keyboard-response","491","2999123","0.0-8.0-0.0-9.9","35","<p><img class= 'stimulus' src='images/baseline/building12.jpg'></img></p>","null","","1551048474935","","","","","","",""
"null","","html-keyboard-response","492","2999223","0.0-8.0-0.0-10.9","35","<p><img class= 'stimulus' src='images/baseline/kokkari-1523011968Xfr.jpg'></img></p>","null","","1551048475036","","","","","","",""
"null","","html-keyboard-response","493","2999322","0.0-8.0-0.0-11.9","35","<p><img class= 'stimulus' src='images/baseline/cranes 1.jpg'></img></p>","null","","1551048475136","","","","","","",""
"null","","html-keyboard-response","494","2999422","0.0-8.0-0.0-12.9","35","<p><img class= 'stimulus' src='images/baseline/Grass 6.jpg'></img></p>","null","","1551048475235","12","","","","","",""
"null","","html-keyboard-response","495","2999524","0.0-8.0-0.0-13.9","35","<p><img class= 'stimulus' src='images/baseline/landscape16.jpg'></img></p>","null","","1551048475336","","","","","","",""
"null","","html-keyboard-response","496","2999622","0.0-8.0-0.0-14.9","35","<p><img class= 'stimulus left-rotate' src='images/target/buildin.png'></img></p>","null","","1551048475435","14","","","","","",""
"null","","html-keyboard-response","497","2999722","0.0-8.0-0.0-15.9","35","<p><img class= 'stimulus' src='images/baseline/pexels-photo-280222.jpeg'></img></p>","null","","1551048475536","","","","","","",""
"null","","html-keyboard-response","498","2999823","0.0-8.0-0.0-16.9","35","<p><img class= 'stimulus' src='images/baseline/horse_statue.jpg'></img></p>","null","","1551048475635","","","","","","",""
"null","","html-keyboard-response","499","2999940","0.0-8.0-0.0-17.9","35","<p><img class= 'stimulus' src='images/baseline/Paysage_enneige_02.jpg'></img></p>","null","","1551048475736","","","","","","",""
"2493.10000000149","","html-button-response","500","3003437","0.0-8.0-0.0-18.9","35","<div class = ""response_question"">WAS THE IMAGE ROTATED...</div>","","0","","","6","8","bas","left","test","true"
"4286.500000000466","","html-button-response","501","3007725","0.0-8.0-0.0-0.10","35","","","0","","","","","","","",""
"null","","html-keyboard-response","502","3007806","0.0-8.0-0.0-1.10","35","<p><img class= 'stimulus' src='images/baseline/02947v.jpg'></img></p>","null","","1551048483619","","","","","","",""
"null","","html-keyboard-response","503","3007906","0.0-8.0-0.0-2.10","35","<p><img class= 'stimulus' src='images/baseline/farmhouse11.jpg'></img></p>","null","","1551048483719","","","","","","",""
"null","","html-keyboard-response","504","3008006","0.0-8.0-0.0-3.10","35","<p><img class= 'stimulus' src='images/baseline/Street 4.jpg'></img></p>","null","","1551048483820","","","","","","",""
"null","","html-keyboard-response","505","3008106","0.0-8.0-0.0-4.10","35","<p><img class= 'stimulus' src='images/neutral/Camping 4.jpg'></img></p>","null","","1551048483919","4","","","","","",""
"null","","html-keyboard-response","506","3008205","0.0-8.0-0.0-5.10","35","<p><img class= 'stimulus' src='images/baseline/Kocherbaumwald-01.jpg'></img></p>","null","","1551048484019","","","","","","",""
"null","","html-keyboard-response","507","3008307","0.0-8.0-0.0-6.10","35","<p><img class= 'stimulus left-rotate' src='images/target/pexels-photo-1534411.jpeg'></img></p>","null","","1551048484120","6","","","","","",""
