"rt","responses","trial_type","trial_index","time_elapsed","internal_node_id","participant_id","stimulus","key_press","button_pressed","stim_onset","sequence_position","distractor_position","target_lag","distractor_type","target_orientation","phase","correct"
"6894.300000043586","{""Q0"":""48""}","survey-text","0","6900","0.0-0.0","48","","","","","","","","","","",""
"1926133.9000000153","","html-keyboard-response","1","1933051","0.0-1.0","48","Welcome to the experiment.","67","","","","","","","","",""
"17056.099999987055","","html-button-response","2","1950103","0.0-2.0","48","<p>Several images will be presented sequentially.        Each image will only be on the screen for about 100 milliseconds.</p>        <p> One of the images may be rotated 90 degrees right or left.        Watch for this image and remember if it is rotated right or left.</p>               <p>Images of people and animals will appear, and sometimes they will be unpleasant.        These will never be the rotated target image.</p>","","0","","","","","","","",""
"3078.39999999851","","html-button-response","3","1953182","0.0-3.0","48","<p><img class=""stimulus left-rotate"" src=""images/target/Tree-Landscape-Winter-Nature-Winter-Trees-Snow-2117951.jpg""></img></p><p>This is an example of an image rotated to the left.</p>","","0","","","","","","","",""
"1774.4999999995343","","html-button-response","4","1954958","0.0-4.0","48","<p><img class=""stimulus"" src=""images/target/lighthouse-843522_640.jpg""></img></p><p>This is an example of an image rotated to the right.</p>","","0","","","","","","","",""
"7983.20000001695","","html-button-response","5","1962942","0.0-5.0","48","<p>We will now begin a short practice session.</p>         <p>A + symbol will appear in the middle of the screen. Please fix your gaze on the center of the +, and then click the mouse button to begin the image sequence.</p>         <p>Please avoid blinking or eye movements while the images are on the screen.</p>        <p>The image sequence will start relatively slow. After a few sequences, it will speed up.</p>","","0","","","","","","","",""
"14542.699999990873","","html-button-response","6","1977486","0.0-6.0-0.0","48","","","0","","","","","","","",""
"null","","html-keyboard-response","7","1977664","0.0-6.0-1.0","48","<p><img class= 'stimulus' src='images/baseline/landscape8.jpg'></img></p>","null","","1551536671315","","","","","","",""
"null","","html-keyboard-response","8","1977865","0.0-6.0-2.0","48","<p><img class= 'stimulus' src='images/baseline/landscape23.jpg'></img></p>","null","","1551536671515","","","","","","",""
"null","","html-keyboard-response","9","1978066","0.0-6.0-3.0","48","<p><img class= 'stimulus' src='images/baseline/05252v.jpg'></img></p>","null","","1551536671716","","","","","","",""
"null","","html-keyboard-response","10","1978266","0.0-6.0-4.0","48","<p><img class= 'stimulus' src='images/baseline/farmhouse6.jpg'></img></p>","null","","1551536671916","4","","","","","",""
"null","","html-keyboard-response","11","1978465","0.0-6.0-5.0","48","<p><img class= 'stimulus' src='images/baseline/05280v.jpg'></img></p>","null","","1551536672116","","","","","","",""
"null","","html-keyboard-response","12","1978665","0.0-6.0-6.0","48","<p><img class= 'stimulus' src='images/baseline/red rocks from afar.jpg'></img></p>","null","","1551536672316","6","","","","","",""
"null","","html-keyboard-response","13","1978866","0.0-6.0-7.0","48","<p><img class= 'stimulus' src='images/baseline/05279v.jpg'></img></p>","null","","1551536672516","","","","","","",""
"null","","html-keyboard-response","14","1979065","0.0-6.0-8.0","48","<p><img class= 'stimulus' src='images/target/Tree-Landscape-Winter-Nature-Winter-Trees-Snow-2117951.jpg'></img></p>","null","","1551536672716","8","","","","","",""
"null","","html-keyboard-response","15","1979266","0.0-6.0-9.0","48","<p><img class= 'stimulus' src='images/baseline/landscape37.jpg'></img></p>","null","","1551536672916","","","","","","",""
"null","","html-keyboard-response","16","1979465","0.0-6.0-10.0","48","<p><img class= 'stimulus' src='images/baseline/grand-teton-mountains.jpg'></img></p>","null","","1551536673116","","","","","","",""
"null","","html-keyboard-response","17","1979667","0.0-6.0-11.0","48","<p><img class= 'stimulus' src='images/baseline/Lake 9.jpg'></img></p>","null","","1551536673316","","","","","","",""
"null","","html-keyboard-response","18","1979867","0.0-6.0-12.0","48","<p><img class= 'stimulus' src='images/baseline/Nature 2.jpg'></img></p>","null","","1551536673516","12","","","","","",""
"null","","html-keyboard-response","19","1980066","0.0-6.0-13.0","48","<p><img class= 'stimulus' src='images/baseline/Lake 14.jpg'></img></p>","null","","1551536673716","","","","","","",""
"null","","html-keyboard-response","20","1980267","0.0-6.0-14.0","48","<p><img class= 'stimulus' src='images/baseline/lake3.jpg'></img></p>","null","","1551536673916","14","","","","","",""
"null","","html-keyboard-response","21","1980467","0.0-6.0-15.0","48","<p><img class= 'stimulus' src='images/baseline/city-silhouette-at-sunset-871291580819Esw.jpg'></img></p>","null","","1551536674116","","","","","","",""
"null","","html-keyboard-response","22","1980666","0.0-6.0-16.0","48","<p><img class= 'stimulus' src='images/baseline/03098v.jpg'></img></p>","null","","1551536674317","","","","","","",""
"null","","html-keyboard-response","23","1980883","0.0-6.0-17.0","48","<p><img class= 'stimulus' src='images/baseline/05240v.jpg'></img></p>","null","","1551536674517","","","","","","",""
"4509.000000020023","","html-button-response","24","1986399","0.0-6.0-18.0","48","<div class = ""response_question"">WAS THE IMAGE ROTATED...</div>","","3","","","6","2","bas","right","practice","true"
"3149.700000009034","","html-button-response","25","1989550","0.0-6.0-0.1","48","","","0","","","","","","","",""
"null","","html-keyboard-response","26","1989733","0.0-6.0-1.1","48","<p><img class= 'stimulus' src='images/baseline/Bridge 1.jpg'></img></p>","null","","1551536683384","","","","","","",""
"null","","html-keyboard-response","27","1989933","0.0-6.0-2.1","48","<p><img class= 'stimulus' src='images/baseline/05139v.jpg'></img></p>","null","","1551536683583","","","","","","",""
"null","","html-keyboard-response","28","1990132","0.0-6.0-3.1","48","<p><img class= 'stimulus' src='images/baseline/geese-flying-over-lake-at-dusk.jpg'></img></p>","null","","1551536683782","","","","","","",""
"null","","html-keyboard-response","29","1990332","0.0-6.0-4.1","48","<p><img class= 'stimulus' src='images/baseline/03112v.jpg'></img></p>","null","","1551536683983","4","","","","","",""
"null","","html-keyboard-response","30","1990532","0.0-6.0-5.1","48","<p><img class= 'stimulus' src='images/baseline/pexels-photo-440731.jpeg'></img></p>","null","","1551536684183","","","","","","",""
"null","","html-keyboard-response","31","1990732","0.0-6.0-6.1","48","<p><img class= 'stimulus left-rotate' src='images/target/pexels-photo-236294.jpeg'></img></p>","null","","1551536684382","6","","","","","",""
"null","","html-keyboard-response","32","1990932","0.0-6.0-7.1","48","<p><img class= 'stimulus' src='images/baseline/02988v.jpg'></img></p>","null","","1551536684582","","","","","","",""
"null","","html-keyboard-response","33","1991131","0.0-6.0-8.1","48","<p><img class= 'stimulus' src='images/baseline/river 1.jpg'></img></p>","null","","1551536684782","8","","","","","",""
"null","","html-keyboard-response","34","1991332","0.0-6.0-9.1","48","<p><img class= 'stimulus' src='images/baseline/Lake 5.jpg'></img></p>","null","","1551536684982","","","","","","",""
"null","","html-keyboard-response","35","1991532","0.0-6.0-10.1","48","<p><img class= 'stimulus' src='images/baseline/Street 2.jpg'></img></p>","null","","1551536685181","","","","","","",""
"null","","html-keyboard-response","36","1991732","0.0-6.0-11.1","48","<p><img class= 'stimulus' src='images/baseline/03204v.jpg'></img></p>","null","","1551536685382","","","","","","",""
"null","","html-keyboard-response","37","1991933","0.0-6.0-12.1","48","<p><img class= 'stimulus' src='images/baseline/field 1.jpg'></img></p>","null","","1551536685582","12","","","","","",""
"null","","html-keyboard-response","38","1992132","0.0-6.0-13.1","48","<p><img class= 'stimulus' src='images/baseline/4k-wallpaper-agriculture-clouds-842711.jpg'></img></p>","null","","1551536685782","","","","","","",""
"null","","html-keyboard-response","39","1992331","0.0-6.0-14.1","48","<p><img class= 'stimulus' src='images/baseline/hills 1.jpg'></img></p>","null","","1551536685982","14","","","","","",""
"null","","html-keyboard-response","40","1992532","0.0-6.0-15.1","48","<p><img class= 'stimulus' src='images/baseline/04031v.jpg'></img></p>","null","","1551536686183","","","","","","",""
"null","","html-keyboard-response","41","1992732","0.0-6.0-16.1","48","<p><img class= 'stimulus' src='images/baseline/house8.jpg'></img></p>","null","","1551536686382","","","","","","",""
"null","","html-keyboard-response","42","1992948","0.0-6.0-17.1","48","<p><img class= 'stimulus' src='images/baseline/field 3.jpg'></img></p>","null","","1551536686582","","","","","","",""
"1394.399999990128","","html-button-response","43","1995358","0.0-6.0-18.1","48","<div class = ""response_question"">WAS THE IMAGE ROTATED...</div>","","0","","","4","2","bas","left","practice","true"
"1102.4999999790452","","html-button-response","44","1996462","0.0-6.0-0.2","48","","","0","","","","","","","",""
"null","","html-keyboard-response","45","1996648","0.0-6.0-1.2","48","<p><img class= 'stimulus' src='images/baseline/Lake 7.jpg'></img></p>","null","","1551536690299","","","","","","",""
"null","","html-keyboard-response","46","1996848","0.0-6.0-2.2","48","<p><img class= 'stimulus' src='images/baseline/03045v.jpg'></img></p>","null","","1551536690500","","","","","","",""
"null","","html-keyboard-response","47","1997049","0.0-6.0-3.2","48","<p><img class= 'stimulus' src='images/baseline/town-square-in-wroclaw-1539098440MZy.jpg'></img></p>","null","","1551536690698","","","","","","",""
"null","","html-keyboard-response","48","1997250","0.0-6.0-4.2","48","<p><img class= 'stimulus' src='images/baseline/landscape35.jpg'></img></p>","null","","1551536690899","4","","","","","",""
"null","","html-keyboard-response","49","1997449","0.0-6.0-5.2","48","<p><img class= 'stimulus' src='images/baseline/house1.jpg'></img></p>","null","","1551536691099","","","","","","",""
"null","","html-keyboard-response","50","1997649","0.0-6.0-6.2","48","<p><img class= 'stimulus' src='images/baseline/scenic-mountain-landscape.jpg'></img></p>","null","","1551536691300","6","","","","","",""
"null","","html-keyboard-response","51","1997850","0.0-6.0-7.2","48","<p><img class= 'stimulus' src='images/baseline/pexels-photo-541101.jpeg'></img></p>","null","","1551536691499","","","","","","",""
"null","","html-keyboard-response","52","1998050","0.0-6.0-8.2","48","<p><img class= 'stimulus left-rotate' src='images/target/oak-1913194_640.jpg'></img></p>","null","","1551536691701","8","","","","","",""
"null","","html-keyboard-response","53","1998250","0.0-6.0-9.2","48","<p><img class= 'stimulus' src='images/baseline/Lake 16.jpg'></img></p>","null","","1551536691899","","","","","","",""
"null","","html-keyboard-response","54","1998450","0.0-6.0-10.2","48","<p><img class= 'stimulus' src='images/baseline/landscape2.jpg'></img></p>","null","","1551536692100","","","","","","",""
"null","","html-keyboard-response","55","1998650","0.0-6.0-11.2","48","<p><img class= 'stimulus' src='images/baseline/Freudenberg_sg_Switzerland.jpg'></img></p>","null","","1551536692300","","","","","","",""
"null","","html-keyboard-response","56","1998850","0.0-6.0-12.2","48","<p><img class= 'stimulus' src='images/baseline/03212v.jpg'></img></p>","null","","1551536692501","12","","","","","",""
"null","","html-keyboard-response","57","1999051","0.0-6.0-13.2","48","<p><img class= 'stimulus' src='images/baseline/Sunset 3.jpg'></img></p>","null","","1551536692700","","","","","","",""
"null","","html-keyboard-response","58","1999249","0.0-6.0-14.2","48","<p><img class= 'stimulus' src='images/baseline/road.jpg'></img></p>","null","","1551536692902","14","","","","","",""
"null","","html-keyboard-response","59","1999449","0.0-6.0-15.2","48","<p><img class= 'stimulus' src='images/baseline/03217v.jpg'></img></p>","null","","1551536693100","","","","","","",""
"null","","html-keyboard-response","60","1999650","0.0-6.0-16.2","48","<p><img class= 'stimulus' src='images/baseline/Bahia_Onelli_Parque_Nacional_Los_Glaciares_Patagonia_Argentina_Luca_Galuzzi_2005.jpg'></img></p>","null","","1551536693300","","","","","","",""
"null","","html-keyboard-response","61","1999867","0.0-6.0-17.2","48","<p><img class= 'stimulus' src='images/baseline/02947v.jpg'></img></p>","null","","1551536693500","","","","","","",""
"1008.2999999867752","","html-button-response","62","2001878","0.0-6.0-18.2","48","<div class = ""response_question"">WAS THE IMAGE ROTATED...</div>","","0","","","6","2","bas","left","practice","true"
"2654.2999999946915","","html-button-response","63","2004534","0.0-6.0-0.3","48","","","0","","","","","","","",""
"null","","html-keyboard-response","64","2004717","0.0-6.0-1.3","48","<p><img class= 'stimulus' src='images/baseline/Lake 4.jpg'></img></p>","null","","1551536698367","","","","","","",""
"null","","html-keyboard-response","65","2004916","0.0-6.0-2.3","48","<p><img class= 'stimulus' src='images/baseline/autumn-in-red-rocks-park.jpg'></img></p>","null","","1551536698566","","","","","","",""
"null","","html-keyboard-response","66","2005117","0.0-6.0-3.3","48","<p><img class= 'stimulus' src='images/baseline/landscape39.jpg'></img></p>","null","","1551536698766","","","","","","",""
"null","","html-keyboard-response","67","2005317","0.0-6.0-4.3","48","<p><img class= 'stimulus' src='images/baseline/02960v.jpg'></img></p>","null","","1551536698967","4","","","","","",""
"null","","html-keyboard-response","68","2005517","0.0-6.0-5.3","48","<p><img class= 'stimulus' src='images/baseline/landscape3.jpg'></img></p>","null","","1551536699167","","","","","","",""
"null","","html-keyboard-response","69","2005716","0.0-6.0-6.3","48","<p><img class= 'stimulus' src='images/target/tree spring.jpeg'></img></p>","null","","1551536699367","6","","","","","",""
"null","","html-keyboard-response","70","2005928","0.0-6.0-7.3","48","<p><img class= 'stimulus' src='images/baseline/cyrillic.jpg'></img></p>","null","","1551536699579","","","","","","",""
"null","","html-keyboard-response","71","2006129","0.0-6.0-8.3","48","<p><img class= 'stimulus' src='images/baseline/farmhouse7.jpg'></img></p>","null","","1551536699778","8","","","","","",""
"null","","html-keyboard-response","72","2006327","0.0-6.0-9.3","48","<p><img class= 'stimulus' src='images/baseline/__08_-_ITALY_-_Forli_under_snow_-_winter_landscape_of_city_(christmas).jpg'></img></p>","null","","1551536699979","","","","","","",""
"null","","html-keyboard-response","73","2006527","0.0-6.0-10.3","48","<p><img class= 'stimulus' src='images/baseline/house3.jpg'></img></p>","null","","1551536700178","","","","","","",""
"null","","html-keyboard-response","74","2006722","0.0-6.0-11.3","48","<p><img class= 'stimulus' src='images/baseline/pexels-photo-1048039.jpeg'></img></p>","null","","1551536700378","","","","","","",""
"null","","html-keyboard-response","75","2006929","0.0-6.0-12.3","48","<p><img class= 'stimulus' src='images/baseline/04117v.jpg'></img></p>","null","","1551536700574","12","","","","","",""
"null","","html-keyboard-response","76","2007127","0.0-6.0-13.3","48","<p><img class= 'stimulus' src='images/baseline/Happy pose 3.jpg'></img></p>","null","","1551536700778","","","","","","",""
"null","","html-keyboard-response","77","2007327","0.0-6.0-14.3","48","<p><img class= 'stimulus' src='images/baseline/Lake 3.jpg'></img></p>","null","","1551536700978","14","","","","","",""
"null","","html-keyboard-response","78","2007527","0.0-6.0-15.3","48","<p><img class= 'stimulus' src='images/baseline/pexels-photo-1261728.jpeg'></img></p>","null","","1551536701178","","","","","","",""
"null","","html-keyboard-response","79","2007727","0.0-6.0-16.3","48","<p><img class= 'stimulus' src='images/baseline/pexels-photo-210617.jpeg'></img></p>","null","","1551536701379","","","","","","",""
"null","","html-keyboard-response","80","2007944","0.0-6.0-17.3","48","<p><img class= 'stimulus' src='images/baseline/Street 5.jpg'></img></p>","null","","1551536701577","","","","","","",""
"925.699999963399","","html-button-response","81","2009874","0.0-6.0-18.3","48","<div class = ""response_question"">WAS THE IMAGE ROTATED...</div>","","3","","","4","2","bas","right","practice","true"
"621.7999999644235","","html-button-response","82","2010497","0.0-6.0-0.4","48","","","0","","","","","","","",""
"null","","html-keyboard-response","83","2010643","0.0-6.0-1.4","48","<p><img class= 'stimulus' src='images/baseline/pexels-photo-259280.jpeg'></img></p>","null","","1551536704345","","","","","","",""
"null","","html-keyboard-response","84","2010793","0.0-6.0-2.4","48","<p><img class= 'stimulus' src='images/baseline/landscape31.jpg'></img></p>","null","","1551536704494","","","","","","",""
"null","","html-keyboard-response","85","2010944","0.0-6.0-3.4","48","<p><img class= 'stimulus' src='images/baseline/02945v.jpg'></img></p>","null","","1551536704644","","","","","","",""
"null","","html-keyboard-response","86","2011094","0.0-6.0-4.4","48","<p><img class= 'stimulus' src='images/baseline/04085v.jpg'></img></p>","null","","1551536704794","4","","","","","",""
"null","","html-keyboard-response","87","2011244","0.0-6.0-5.4","48","<p><img class= 'stimulus' src='images/baseline/landscape12.jpg'></img></p>","null","","1551536704944","","","","","","",""
"null","","html-keyboard-response","88","2011393","0.0-6.0-6.4","48","<p><img class= 'stimulus' src='images/baseline/04064v.jpg'></img></p>","null","","1551536705094","6","","","","","",""
"null","","html-keyboard-response","89","2011543","0.0-6.0-7.4","48","<p><img class= 'stimulus' src='images/baseline/trees 23.jpg'></img></p>","null","","1551536705244","","","","","","",""
"null","","html-keyboard-response","90","2011694","0.0-6.0-8.4","48","<p><img class= 'stimulus' src='images/baseline/agriculture-cereal-clouds-175389.jpg'></img></p>","null","","1551536705395","8","","","","","",""
"null","","html-keyboard-response","91","2011843","0.0-6.0-9.4","48","<p><img class= 'stimulus' src='images/baseline/03220v.jpg'></img></p>","null","","1551536705544","","","","","","",""
"null","","html-keyboard-response","92","2011993","0.0-6.0-10.4","48","<p><img class= 'stimulus' src='images/baseline/landscape40.jpg'></img></p>","null","","1551536705694","","","","","","",""
"null","","html-keyboard-response","93","2012143","0.0-6.0-11.4","48","<p><img class= 'stimulus' src='images/baseline/04063v.jpg'></img></p>","null","","1551536705844","","","","","","",""
"null","","html-keyboard-response","94","2012293","0.0-6.0-12.4","48","<p><img class= 'stimulus' src='images/target/petronas-towers-433081_1920.jpg'></img></p>","null","","1551536705994","12","","","","","",""
"null","","html-keyboard-response","95","2012443","0.0-6.0-13.4","48","<p><img class= 'stimulus' src='images/baseline/pexels-photo-1287089.jpeg'></img></p>","null","","1551536706144","","","","","","",""
"null","","html-keyboard-response","96","2012593","0.0-6.0-14.4","48","<p><img class= 'stimulus' src='images/baseline/03066v.jpg'></img></p>","null","","1551536706293","14","","","","","",""
"null","","html-keyboard-response","97","2012744","0.0-6.0-15.4","48","<p><img class= 'stimulus' src='images/baseline/sun-through-winter-tree-branches1.jpg'></img></p>","null","","1551536706443","","","","","","",""
"null","","html-keyboard-response","98","2012893","0.0-6.0-16.4","48","<p><img class= 'stimulus' src='images/baseline/vintage-art-deco-storefront.jpg'></img></p>","null","","1551536706593","","","","","","",""
"null","","html-keyboard-response","99","2013062","0.0-6.0-17.4","48","<p><img class= 'stimulus' src='images/baseline/lone-old-cottonwood-tree.jpg'></img></p>","null","","1551536706744","","","","","","",""
"704.9000000115484","","html-button-response","100","2014770","0.0-6.0-18.4","48","<div class = ""response_question"">WAS THE IMAGE ROTATED...</div>","","3","","","4","8","bas","right","practice","true"
"1349.999999976717","","html-button-response","101","2016121","0.0-6.0-0.5","48","","","0","","","","","","","",""
"null","","html-keyboard-response","102","2016260","0.0-6.0-1.5","48","<p><img class= 'stimulus' src='images/baseline/lake 2.jpg'></img></p>","null","","1551536709960","","","","","","",""
"null","","html-keyboard-response","103","2016410","0.0-6.0-2.5","48","<p><img class= 'stimulus' src='images/baseline/empire-state-building.jpg'></img></p>","null","","1551536710110","","","","","","",""
"null","","html-keyboard-response","104","2016560","0.0-6.0-3.5","48","<p><img class= 'stimulus' src='images/baseline/05255v.jpg'></img></p>","null","","1551536710260","","","","","","",""
"null","","html-keyboard-response","105","2016710","0.0-6.0-4.5","48","<p><img class= 'stimulus' src='images/baseline/valley 1.jpg'></img></p>","null","","1551536710410","4","","","","","",""
"null","","html-keyboard-response","106","2016859","0.0-6.0-5.5","48","<p><img class= 'stimulus' src='images/baseline/Path 1.jpg'></img></p>","null","","1551536710562","","","","","","",""
"null","","html-keyboard-response","107","2017010","0.0-6.0-6.5","48","<p><img class= 'stimulus' src='images/baseline/04196v.jpg'></img></p>","null","","1551536710711","6","","","","","",""
"null","","html-keyboard-response","108","2017160","0.0-6.0-7.5","48","<p><img class= 'stimulus' src='images/baseline/Lake 13.jpg'></img></p>","null","","1551536710860","","","","","","",""
"null","","html-keyboard-response","109","2017310","0.0-6.0-8.5","48","<p><img class= 'stimulus' src='images/baseline/Sidewalk 4.jpg'></img></p>","null","","1551536711009","8","","","","","",""
"null","","html-keyboard-response","110","2017461","0.0-6.0-9.5","48","<p><img class= 'stimulus' src='images/baseline/02971v.jpg'></img></p>","null","","1551536711161","","","","","","",""
"null","","html-keyboard-response","111","2017610","0.0-6.0-10.5","48","<p><img class= 'stimulus' src='images/baseline/Desert_View_Indian_Wells.jpg'></img></p>","null","","1551536711311","","","","","","",""
"null","","html-keyboard-response","112","2017760","0.0-6.0-11.5","48","<p><img class= 'stimulus' src='images/baseline/04284v.jpg'></img></p>","null","","1551536711460","","","","","","",""
"null","","html-keyboard-response","113","2017909","0.0-6.0-12.5","48","<p><img class= 'stimulus left-rotate' src='images/target/specphotops-563427-unsplash.jpg'></img></p>","null","","1551536711611","12","","","","","",""
"null","","html-keyboard-response","114","2018059","0.0-6.0-13.5","48","<p><img class= 'stimulus' src='images/baseline/building8.jpg'></img></p>","null","","1551536711761","","","","","","",""
"null","","html-keyboard-response","115","2018209","0.0-6.0-14.5","48","<p><img class= 'stimulus' src='images/baseline/Beach 3.jpg'></img></p>","null","","1551536711910","14","","","","","",""
"null","","html-keyboard-response","116","2018359","0.0-6.0-15.5","48","<p><img class= 'stimulus' src='images/baseline/04222v.jpg'></img></p>","null","","1551536712061","","","","","","",""
"null","","html-keyboard-response","117","2018509","0.0-6.0-16.5","48","<p><img class= 'stimulus' src='images/baseline/04229v.jpg'></img></p>","null","","1551536712210","","","","","","",""
"null","","html-keyboard-response","118","2018676","0.0-6.0-17.5","48","<p><img class= 'stimulus' src='images/baseline/pexels-photo-568236.jpeg'></img></p>","null","","1551536712359","","","","","","",""
"954.2999999830499","","html-button-response","119","2020633","0.0-6.0-18.5","48","<div class = ""response_question"">WAS THE IMAGE ROTATED...</div>","","0","","","4","8","bas","left","practice","true"
"1310.300000011921","","html-button-response","120","2021946","0.0-6.0-0.6","48","","","0","","","","","","","",""
"null","","html-keyboard-response","121","2022077","0.0-6.0-1.6","48","<p><img class= 'stimulus' src='images/baseline/landscape33.jpg'></img></p>","null","","1551536715777","","","","","","",""
"null","","html-keyboard-response","122","2022226","0.0-6.0-2.6","48","<p><img class= 'stimulus' src='images/baseline/meadow-with-mountain-in-background.jpg'></img></p>","null","","1551536715927","","","","","","",""
"null","","html-keyboard-response","123","2022376","0.0-6.0-3.6","48","<p><img class= 'stimulus' src='images/baseline/Skyscraper 2.jpg'></img></p>","null","","1551536716076","","","","","","",""
"null","","html-keyboard-response","124","2022526","0.0-6.0-4.6","48","<p><img class= 'stimulus' src='images/baseline/valley 2.jpg'></img></p>","null","","1551536716227","4","","","","","",""
"null","","html-keyboard-response","125","2022676","0.0-6.0-5.6","48","<p><img class= 'stimulus' src='images/baseline/landscape36.jpg'></img></p>","null","","1551536716376","","","","","","",""
"null","","html-keyboard-response","126","2022826","0.0-6.0-6.6","48","<p><img class= 'stimulus' src='images/baseline/05161v.jpg'></img></p>","null","","1551536716526","6","","","","","",""
"null","","html-keyboard-response","127","2022977","0.0-6.0-7.6","48","<p><img class= 'stimulus' src='images/baseline/pexels-photo-427676.jpeg'></img></p>","null","","1551536716677","","","","","","",""
"null","","html-keyboard-response","128","2023127","0.0-6.0-8.6","48","<p><img class= 'stimulus' src='images/baseline/landscape38.jpg'></img></p>","null","","1551536716827","8","","","","","",""
"null","","html-keyboard-response","129","2023276","0.0-6.0-9.6","48","<p><img class= 'stimulus' src='images/baseline/farmhouse1.jpg'></img></p>","null","","1551536716978","","","","","","",""
"null","","html-keyboard-response","130","2023426","0.0-6.0-10.6","48","<p><img class= 'stimulus' src='images/baseline/Sailing 3.jpg'></img></p>","null","","1551536717127","","","","","","",""
"null","","html-keyboard-response","131","2023577","0.0-6.0-11.6","48","<p><img class= 'stimulus' src='images/baseline/05158v.jpg'></img></p>","null","","1551536717276","","","","","","",""
"null","","html-keyboard-response","132","2023726","0.0-6.0-12.6","48","<p><img class= 'stimulus' src='images/baseline/sunny-landscape-with-dry-brush-and-mountain-background.jpg'></img></p>","null","","1551536717426","12","","","","","",""
"null","","html-keyboard-response","133","2023877","0.0-6.0-13.6","48","<p><img class= 'stimulus' src='images/baseline/04098v.jpg'></img></p>","null","","1551536717576","","","","","","",""
"null","","html-keyboard-response","134","2024027","0.0-6.0-14.6","48","<p><img class= 'stimulus left-rotate' src='images/target/building17.jpg'></img></p>","null","","1551536717726","14","","","","","",""
"null","","html-keyboard-response","135","2024176","0.0-6.0-15.6","48","<p><img class= 'stimulus' src='images/baseline/farmhouse4.jpg'></img></p>","null","","1551536717877","","","","","","",""
"null","","html-keyboard-response","136","2024326","0.0-6.0-16.6","48","<p><img class= 'stimulus' src='images/baseline/Linden,_paysage.jpg'></img></p>","null","","1551536718027","","","","","","",""
"null","","html-keyboard-response","137","2024493","0.0-6.0-17.6","48","<p><img class= 'stimulus' src='images/baseline/03201v.jpg'></img></p>","null","","1551536718178","","","","","","",""
"1233.3000000216998","","html-button-response","138","2026729","0.0-6.0-18.6","48","<div class = ""response_question"">WAS THE IMAGE ROTATED...</div>","","0","","","6","8","bas","left","practice","true"
"1014.3000000389293","","html-button-response","139","2027745","0.0-6.0-0.7","48","","","0","","","","","","","",""
"null","","html-keyboard-response","140","2027877","0.0-6.0-1.7","48","<p><img class= 'stimulus' src='images/baseline/05186v.jpg'></img></p>","null","","1551536721578","","","","","","",""
"null","","html-keyboard-response","141","2028027","0.0-6.0-2.7","48","<p><img class= 'stimulus' src='images/baseline/04060v.jpg'></img></p>","null","","1551536721728","","","","","","",""
"null","","html-keyboard-response","142","2028178","0.0-6.0-3.7","48","<p><img class= 'stimulus' src='images/baseline/flooded-bridge.jpg'></img></p>","null","","1551536721878","","","","","","",""
"null","","html-keyboard-response","143","2028327","0.0-6.0-4.7","48","<p><img class= 'stimulus' src='images/baseline/chicago-skyline-at-night-1476869511p8U.jpg'></img></p>","null","","1551536722027","4","","","","","",""
"null","","html-keyboard-response","144","2028477","0.0-6.0-5.7","48","<p><img class= 'stimulus' src='images/baseline/04193v.jpg'></img></p>","null","","1551536722178","","","","","","",""
"null","","html-keyboard-response","145","2028626","0.0-6.0-6.7","48","<p><img class= 'stimulus' src='images/baseline/pexels-photo-1054289.jpeg'></img></p>","null","","1551536722327","6","","","","","",""
"null","","html-keyboard-response","146","2028777","0.0-6.0-7.7","48","<p><img class= 'stimulus' src='images/baseline/road 1(1).jpg'></img></p>","null","","1551536722477","","","","","","",""
"null","","html-keyboard-response","147","2028927","0.0-6.0-8.7","48","<p><img class= 'stimulus' src='images/baseline/03162v.jpg'></img></p>","null","","1551536722629","8","","","","","",""
"null","","html-keyboard-response","148","2029078","0.0-6.0-9.7","48","<p><img class= 'stimulus' src='images/baseline/Beach 8.jpg'></img></p>","null","","1551536722777","","","","","","",""
"null","","html-keyboard-response","149","2029229","0.0-6.0-10.7","48","<p><img class= 'stimulus' src='images/baseline/autumn-landscape-with-lake-fall-trees-mountains.jpg'></img></p>","null","","1551536722928","","","","","","",""
"null","","html-keyboard-response","150","2029377","0.0-6.0-11.7","48","<p><img class= 'stimulus' src='images/baseline/05203v.jpg'></img></p>","null","","1551536723079","","","","","","",""
"null","","html-keyboard-response","151","2029528","0.0-6.0-12.7","48","<p><img class= 'stimulus' src='images/baseline/04010v.jpg'></img></p>","null","","1551536723228","12","","","","","",""
"null","","html-keyboard-response","152","2029678","0.0-6.0-13.7","48","<p><img class= 'stimulus' src='images/baseline/Peyto_Lake-Banff_NP-Canada.jpg'></img></p>","null","","1551536723378","","","","","","",""
"null","","html-keyboard-response","153","2029828","0.0-6.0-14.7","48","<p><img class= 'stimulus' src='images/target/pexels-photo-210683.jpeg'></img></p>","null","","1551536723527","14","","","","","",""
"null","","html-keyboard-response","154","2029978","0.0-6.0-15.7","48","<p><img class= 'stimulus' src='images/baseline/hills 3.jpg'></img></p>","null","","1551536723678","","","","","","",""
"null","","html-keyboard-response","155","2030127","0.0-6.0-16.7","48","<p><img class= 'stimulus' src='images/baseline/landscape13.jpg'></img></p>","null","","1551536723828","","","","","","",""
"null","","html-keyboard-response","156","2030294","0.0-6.0-17.7","48","<p><img class= 'stimulus' src='images/baseline/horse_statue.jpg'></img></p>","null","","1551536723978","","","","","","",""
"792.1000000205822","","html-button-response","157","2032090","0.0-6.0-18.7","48","<div class = ""response_question"">WAS THE IMAGE ROTATED...</div>","","3","","","6","8","bas","right","practice","true"
"830.19999996759","","html-button-response","158","2032922","0.0-6.0-0.8","48","","","0","","","","","","","",""
"null","","html-keyboard-response","159","2032994","0.0-6.0-1.8","48","<p><img class= 'stimulus' src='images/baseline/Aletschgletscher-Eggishorn.jpg'></img></p>","null","","1551536726744","","","","","","",""
"null","","html-keyboard-response","160","2033094","0.0-6.0-2.8","48","<p><img class= 'stimulus' src='images/baseline/05264v.jpg'></img></p>","null","","1551536726844","","","","","","",""
"null","","html-keyboard-response","161","2033193","0.0-6.0-3.8","48","<p><img class= 'stimulus' src='images/baseline/03075v.jpg'></img></p>","null","","1551536726944","","","","","","",""
"null","","html-keyboard-response","162","2033293","0.0-6.0-4.8","48","<p><img class= 'stimulus' src='images/baseline/building6.jpg'></img></p>","null","","1551536727045","4","","","","","",""
"null","","html-keyboard-response","163","2033393","0.0-6.0-5.8","48","<p><img class= 'stimulus' src='images/baseline/Waterfall 1.jpg'></img></p>","null","","1551536727145","","","","","","",""
"null","","html-keyboard-response","164","2033493","0.0-6.0-6.8","48","<p><img class= 'stimulus' src='images/baseline/99_-_Machu_Picchu_-_Juin_2009.edit3.jpg'></img></p>","null","","1551536727244","6","","","","","",""
"null","","html-keyboard-response","165","2033594","0.0-6.0-7.8","48","<p><img class= 'stimulus' src='images/baseline/Lake 15.jpg'></img></p>","null","","1551536727344","","","","","","",""
"null","","html-keyboard-response","166","2033694","0.0-6.0-8.8","48","<p><img class= 'stimulus left-rotate' src='images/target/pexels-photo-1534411.jpeg'></img></p>","null","","1551536727444","8","","","","","",""
"null","","html-keyboard-response","167","2033794","0.0-6.0-9.8","48","<p><img class= 'stimulus' src='images/baseline/landscape11.jpg'></img></p>","null","","1551536727543","","","","","","",""
"null","","html-keyboard-response","168","2033894","0.0-6.0-10.8","48","<p><img class= 'stimulus' src='images/baseline/05292v.jpg'></img></p>","null","","1551536727644","","","","","","",""
"null","","html-keyboard-response","169","2033993","0.0-6.0-11.8","48","<p><img class= 'stimulus' src='images/baseline/04062v.jpg'></img></p>","null","","1551536727744","","","","","","",""
"null","","html-keyboard-response","170","2034092","0.0-6.0-12.8","48","<p><img class= 'stimulus' src='images/baseline/04162v.jpg'></img></p>","null","","1551536727844","12","","","","","",""
"null","","html-keyboard-response","171","2034193","0.0-6.0-13.8","48","<p><img class= 'stimulus' src='images/baseline/house10.jpg'></img></p>","null","","1551536727944","","","","","","",""
"null","","html-keyboard-response","172","2034293","0.0-6.0-14.8","48","<p><img class= 'stimulus' src='images/baseline/house2.jpg'></img></p>","null","","1551536728044","14","","","","","",""
"null","","html-keyboard-response","173","2034393","0.0-6.0-15.8","48","<p><img class= 'stimulus' src='images/baseline/Sunset 4.jpg'></img></p>","null","","1551536728144","","","","","","",""
"null","","html-keyboard-response","174","2034493","0.0-6.0-16.8","48","<p><img class= 'stimulus' src='images/baseline/house11.jpg'></img></p>","null","","1551536728243","","","","","","",""
"null","","html-keyboard-response","175","2034610","0.0-6.0-17.8","48","<p><img class= 'stimulus' src='images/baseline/foreclosed_home.jpg'></img></p>","null","","1551536728343","","","","","","",""
"988.2999999681488","","html-button-response","176","2036601","0.0-6.0-18.8","48","<div class = ""response_question"">WAS THE IMAGE ROTATED...</div>","","0","","","6","2","bas","left","practice","true"
"1590.299999981653","","html-button-response","177","2038193","0.0-6.0-0.9","48","","","0","","","","","","","",""
"null","","html-keyboard-response","178","2038277","0.0-6.0-1.9","48","<p><img class= 'stimulus' src='images/baseline/04179v.jpg'></img></p>","null","","1551536732028","","","","","","",""
"null","","html-keyboard-response","179","2038377","0.0-6.0-2.9","48","<p><img class= 'stimulus' src='images/baseline/02962v.jpg'></img></p>","null","","1551536732127","","","","","","",""
"null","","html-keyboard-response","180","2038476","0.0-6.0-3.9","48","<p><img class= 'stimulus' src='images/baseline/04201v.jpg'></img></p>","null","","1551536732227","","","","","","",""
"null","","html-keyboard-response","181","2038577","0.0-6.0-4.9","48","<p><img class= 'stimulus' src='images/baseline/landscape6.jpg'></img></p>","null","","1551536732327","4","","","","","",""
"null","","html-keyboard-response","182","2038676","0.0-6.0-5.9","48","<p><img class= 'stimulus' src='images/baseline/pexels-photo-459203.jpeg'></img></p>","null","","1551536732428","","","","","","",""
"null","","html-keyboard-response","183","2038776","0.0-6.0-6.9","48","<p><img class= 'stimulus left-rotate' src='images/target/palm-trees-1209125_640.jpg'></img></p>","null","","1551536732527","6","","","","","",""
"null","","html-keyboard-response","184","2038876","0.0-6.0-7.9","48","<p><img class= 'stimulus' src='images/baseline/Skyscraper 1.jpg'></img></p>","null","","1551536732629","","","","","","",""
"null","","html-keyboard-response","185","2038976","0.0-6.0-8.9","48","<p><img class= 'stimulus' src='images/baseline/pexels-photo-534164.jpeg'></img></p>","null","","1551536732728","8","","","","","",""
"null","","html-keyboard-response","186","2039077","0.0-6.0-9.9","48","<p><img class= 'stimulus' src='images/baseline/lookout_tower.jpg'></img></p>","null","","1551536732828","","","","","","",""
"null","","html-keyboard-response","187","2039176","0.0-6.0-10.9","48","<p><img class= 'stimulus' src='images/baseline/03063v.jpg'></img></p>","null","","1551536732927","","","","","","",""
"null","","html-keyboard-response","188","2039277","0.0-6.0-11.9","48","<p><img class= 'stimulus' src='images/baseline/03041v.jpg'></img></p>","null","","1551536733026","","","","","","",""
"null","","html-keyboard-response","189","2039377","0.0-6.0-12.9","48","<p><img class= 'stimulus' src='images/baseline/building12.jpg'></img></p>","null","","1551536733127","12","","","","","",""
"null","","html-keyboard-response","190","2039476","0.0-6.0-13.9","48","<p><img class= 'stimulus' src='images/baseline/building9.jpg'></img></p>","null","","1551536733228","","","","","","",""
"null","","html-keyboard-response","191","2039576","0.0-6.0-14.9","48","<p><img class= 'stimulus' src='images/baseline/05189v.jpg'></img></p>","null","","1551536733328","14","","","","","",""
"null","","html-keyboard-response","192","2039677","0.0-6.0-15.9","48","<p><img class= 'stimulus' src='images/baseline/landscape4.jpg'></img></p>","null","","1551536733428","","","","","","",""
"null","","html-keyboard-response","193","2039776","0.0-6.0-16.9","48","<p><img class= 'stimulus' src='images/baseline/Road 1.jpg'></img></p>","null","","1551536733528","","","","","","",""
"null","","html-keyboard-response","194","2039894","0.0-6.0-17.9","48","<p><img class= 'stimulus' src='images/baseline/landscape14.jpg'></img></p>","null","","1551536733628","","","","","","",""
"954.0000000270084","","html-button-response","195","2041850","0.0-6.0-18.9","48","<div class = ""response_question"">WAS THE IMAGE ROTATED...</div>","","0","","","4","2","bas","left","practice","true"
"1078.3000000519678","","html-button-response","196","2042929","0.0-6.0-0.10","48","","","0","","","","","","","",""
"null","","html-keyboard-response","197","2043009","0.0-6.0-1.10","48","<p><img class= 'stimulus' src='images/baseline/farmhouse8.jpg'></img></p>","null","","1551536736760","","","","","","",""
"null","","html-keyboard-response","198","2043110","0.0-6.0-2.10","48","<p><img class= 'stimulus' src='images/baseline/building3.jpg'></img></p>","null","","1551536736860","","","","","","",""
"null","","html-keyboard-response","199","2043210","0.0-6.0-3.10","48","<p><img class= 'stimulus' src='images/baseline/farmhouse3.jpg'></img></p>","null","","1551536736960","","","","","","",""
"null","","html-keyboard-response","200","2043310","0.0-6.0-4.10","48","<p><img class= 'stimulus' src='images/baseline/05167v.jpg'></img></p>","null","","1551536737061","4","","","","","",""
"null","","html-keyboard-response","201","2043410","0.0-6.0-5.10","48","<p><img class= 'stimulus' src='images/baseline/pexels-photo-414491.jpeg'></img></p>","null","","1551536737160","","","","","","",""
"null","","html-keyboard-response","202","2043509","0.0-6.0-6.10","48","<p><img class= 'stimulus' src='images/baseline/02982v.jpg'></img></p>","null","","1551536737261","6","","","","","",""
"null","","html-keyboard-response","203","2043609","0.0-6.0-7.10","48","<p><img class= 'stimulus' src='images/baseline/architecture-1314416_1920.jpg'></img></p>","null","","1551536737360","","","","","","",""
"null","","html-keyboard-response","204","2043710","0.0-6.0-8.10","48","<p><img class= 'stimulus' src='images/baseline/Street 3.jpg'></img></p>","null","","1551536737461","8","","","","","",""
"null","","html-keyboard-response","205","2043810","0.0-6.0-9.10","48","<p><img class= 'stimulus' src='images/baseline/pexels-photo-221125.jpeg'></img></p>","null","","1551536737562","","","","","","",""
"null","","html-keyboard-response","206","2043909","0.0-6.0-10.10","48","<p><img class= 'stimulus' src='images/baseline/snowy tree.jpg'></img></p>","null","","1551536737660","","","","","","",""
"null","","html-keyboard-response","207","2044010","0.0-6.0-11.10","48","<p><img class= 'stimulus' src='images/baseline/04040v.jpg'></img></p>","null","","1551536737760","","","","","","",""
"null","","html-keyboard-response","208","2044110","0.0-6.0-12.10","48","<p><img class= 'stimulus' src='images/baseline/Camping 10.jpg'></img></p>","null","","1551536737860","12","","","","","",""
"null","","html-keyboard-response","209","2044210","0.0-6.0-13.10","48","<p><img class= 'stimulus' src='images/baseline/farmhouse11.jpg'></img></p>","null","","1551536737961","","","","","","",""
"null","","html-keyboard-response","210","2044310","0.0-6.0-14.10","48","<p><img class= 'stimulus left-rotate' src='images/target/landscape20.jpg'></img></p>","null","","1551536738060","14","","","","","",""
"null","","html-keyboard-response","211","2044410","0.0-6.0-15.10","48","<p><img class= 'stimulus' src='images/baseline/pexels-photo-1837621.jpeg'></img></p>","null","","1551536738160","","","","","","",""
"null","","html-keyboard-response","212","2044510","0.0-6.0-16.10","48","<p><img class= 'stimulus' src='images/baseline/05145v.jpg'></img></p>","null","","1551536738260","","","","","","",""
"null","","html-keyboard-response","213","2044627","0.0-6.0-17.10","48","<p><img class= 'stimulus' src='images/baseline/landscape34.jpg'></img></p>","null","","1551536738361","","","","","","",""
"2220.09999997681","","html-button-response","214","2047850","0.0-6.0-18.10","48","<div class = ""response_question"">WAS THE IMAGE ROTATED...</div>","","0","","","6","8","bas","left","practice","true"
"758.4999999962747","","html-button-response","215","2048609","0.0-6.0-0.11","48","","","0","","","","","","","",""
"null","","html-keyboard-response","216","2048694","0.0-6.0-1.11","48","<p><img class= 'stimulus' src='images/baseline/Beach 2.jpg'></img></p>","null","","1551536742444","","","","","","",""
"null","","html-keyboard-response","217","2048793","0.0-6.0-2.11","48","<p><img class= 'stimulus' src='images/baseline/field 4.jpg'></img></p>","null","","1551536742544","","","","","","",""
"null","","html-keyboard-response","218","2048893","0.0-6.0-3.11","48","<p><img class= 'stimulus' src='images/baseline/Sunset 5.jpg'></img></p>","null","","1551536742644","","","","","","",""
"null","","html-keyboard-response","219","2048994","0.0-6.0-4.11","48","<p><img class= 'stimulus' src='images/baseline/Cold 7.jpg'></img></p>","null","","1551536742743","4","","","","","",""
"null","","html-keyboard-response","220","2049094","0.0-6.0-5.11","48","<p><img class= 'stimulus' src='images/baseline/sunset-over-the-lake.jpg'></img></p>","null","","1551536742843","","","","","","",""
"null","","html-keyboard-response","221","2049193","0.0-6.0-6.11","48","<p><img class= 'stimulus' src='images/baseline/farmhouse2.jpg'></img></p>","null","","1551536742944","6","","","","","",""
"null","","html-keyboard-response","222","2049294","0.0-6.0-7.11","48","<p><img class= 'stimulus' src='images/baseline/Dock 1.jpg'></img></p>","null","","1551536743045","","","","","","",""
"null","","html-keyboard-response","223","2049394","0.0-6.0-8.11","48","<p><img class= 'stimulus' src='images/baseline/landscape7.jpg'></img></p>","null","","1551536743144","8","","","","","",""
"null","","html-keyboard-response","224","2049494","0.0-6.0-9.11","48","<p><img class= 'stimulus' src='images/baseline/pexels-photo-1840893.jpeg'></img></p>","null","","1551536743244","","","","","","",""
"null","","html-keyboard-response","225","2049594","0.0-6.0-10.11","48","<p><img class= 'stimulus' src='images/baseline/pexels-photo-351264.jpeg'></img></p>","null","","1551536743345","","","","","","",""
"null","","html-keyboard-response","226","2049693","0.0-6.0-11.11","48","<p><img class= 'stimulus' src='images/baseline/Street 4.jpg'></img></p>","null","","1551536743444","","","","","","",""
"null","","html-keyboard-response","227","2049794","0.0-6.0-12.11","48","<p><img class= 'stimulus' src='images/baseline/05242v.jpg'></img></p>","null","","1551536743545","12","","","","","",""
"null","","html-keyboard-response","228","2049894","0.0-6.0-13.11","48","<p><img class= 'stimulus' src='images/baseline/landscape17.jpg'></img></p>","null","","1551536743643","","","","","","",""
"null","","html-keyboard-response","229","2049993","0.0-6.0-14.11","48","<p><img class= 'stimulus' src='images/target/house-estate-1100x733.jpg'></img></p>","null","","1551536743744","14","","","","","",""
"null","","html-keyboard-response","230","2050093","0.0-6.0-15.11","48","<p><img class= 'stimulus' src='images/baseline/hiking-trail.jpg'></img></p>","null","","1551536743844","","","","","","",""
"null","","html-keyboard-response","231","2050193","0.0-6.0-16.11","48","<p><img class= 'stimulus' src='images/baseline/03056v.jpg'></img></p>","null","","1551536743943","","","","","","",""
"null","","html-keyboard-response","232","2050310","0.0-6.0-17.11","48","<p><img class= 'stimulus' src='images/baseline/05303v.jpg'></img></p>","null","","1551536744043","","","","","","",""
"1136.1999999498948","","html-button-response","233","2052449","0.0-6.0-18.11","48","<div class = ""response_question"">WAS THE IMAGE ROTATED...</div>","","3","","","6","8","bas","right","practice","true"
"1310.300000011921","","html-button-response","234","2053762","0.0-6.0-0.12","48","","","0","","","","","","","",""
"null","","html-keyboard-response","235","2053842","0.0-6.0-1.12","48","<p><img class= 'stimulus' src='images/baseline/landscape29.jpg'></img></p>","null","","1551536747594","","","","","","",""
"null","","html-keyboard-response","236","2053943","0.0-6.0-2.12","48","<p><img class= 'stimulus' src='images/baseline/house6.jpg'></img></p>","null","","1551536747694","","","","","","",""
"null","","html-keyboard-response","237","2054043","0.0-6.0-3.12","48","<p><img class= 'stimulus' src='images/baseline/cranes 1.jpg'></img></p>","null","","1551536747794","","","","","","",""
"null","","html-keyboard-response","238","2054143","0.0-6.0-4.12","48","<p><img class= 'stimulus' src='images/baseline/Dirt 2.jpg'></img></p>","null","","1551536747894","4","","","","","",""
"null","","html-keyboard-response","239","2054244","0.0-6.0-5.12","48","<p><img class= 'stimulus' src='images/baseline/landscape16.jpg'></img></p>","null","","1551536747993","","","","","","",""
"null","","html-keyboard-response","240","2054343","0.0-6.0-6.12","48","<p><img class= 'stimulus' src='images/baseline/building5.jpg'></img></p>","null","","1551536748095","6","","","","","",""
"null","","html-keyboard-response","241","2054443","0.0-6.0-7.12","48","<p><img class= 'stimulus' src='images/baseline/pexels-photo-750108.jpeg'></img></p>","null","","1551536748194","","","","","","",""
"null","","html-keyboard-response","242","2054543","0.0-6.0-8.12","48","<p><img class= 'stimulus' src='images/baseline/Paysage_enneige_02.jpg'></img></p>","null","","1551536748293","8","","","","","",""
"null","","html-keyboard-response","243","2054644","0.0-6.0-9.12","48","<p><img class= 'stimulus' src='images/baseline/04130v.jpg'></img></p>","null","","1551536748395","","","","","","",""
"null","","html-keyboard-response","244","2054744","0.0-6.0-10.12","48","<p><img class= 'stimulus' src='images/baseline/pexels-photo-280222.jpeg'></img></p>","null","","1551536748495","","","","","","",""
"null","","html-keyboard-response","245","2054844","0.0-6.0-11.12","48","<p><img class= 'stimulus' src='images/baseline/04086v.jpg'></img></p>","null","","1551536748594","","","","","","",""
"null","","html-keyboard-response","246","2054943","0.0-6.0-12.12","48","<p><img class= 'stimulus' src='images/target/1937-single-tree-at-the-top-of-stone-mountain-pv.jpg'></img></p>","null","","1551536748695","12","","","","","",""
"null","","html-keyboard-response","247","2055044","0.0-6.0-13.12","48","<p><img class= 'stimulus' src='images/baseline/03148v.jpg'></img></p>","null","","1551536748794","","","","","","",""
"null","","html-keyboard-response","248","2055144","0.0-6.0-14.12","48","<p><img class= 'stimulus' src='images/baseline/dirt-road-or-trail-through-park.jpg'></img></p>","null","","1551536748893","14","","","","","",""
"null","","html-keyboard-response","249","2055243","0.0-6.0-15.12","48","<p><img class= 'stimulus' src='images/baseline/04158v.jpg'></img></p>","null","","1551536748994","","","","","","",""
"null","","html-keyboard-response","250","2055344","0.0-6.0-16.12","48","<p><img class= 'stimulus' src='images/baseline/architecture_modern_architecture_852928.jpg'></img></p>","null","","1551536749093","","","","","","",""
"null","","html-keyboard-response","251","2055461","0.0-6.0-17.12","48","<p><img class= 'stimulus' src='images/baseline/pexels-photo-808465.jpeg'></img></p>","null","","1551536749193","","","","","","",""
"633.6000000010245","","html-button-response","252","2057098","0.0-6.0-18.12","48","<div class = ""response_question"">WAS THE IMAGE ROTATED...</div>","","3","","","4","8","bas","right","practice","true"
"773.3000000007451","","html-button-response","253","2057873","0.0-6.0-0.13","48","","","0","","","","","","","",""
"null","","html-keyboard-response","254","2057961","0.0-6.0-1.13","48","<p><img class= 'stimulus' src='images/baseline/lake 1.jpg'></img></p>","null","","1551536751711","","","","","","",""
"null","","html-keyboard-response","255","2058061","0.0-6.0-2.13","48","<p><img class= 'stimulus' src='images/baseline/landscape15.jpg'></img></p>","null","","1551536751811","","","","","","",""
"null","","html-keyboard-response","256","2058160","0.0-6.0-3.13","48","<p><img class= 'stimulus' src='images/baseline/pexels-photo-59321.jpeg'></img></p>","null","","1551536751911","","","","","","",""
"null","","html-keyboard-response","257","2058260","0.0-6.0-4.13","48","<p><img class= 'stimulus' src='images/baseline/farmhouse9.jpg'></img></p>","null","","1551536752012","4","","","","","",""
"null","","html-keyboard-response","258","2058360","0.0-6.0-5.13","48","<p><img class= 'stimulus' src='images/baseline/03114v.jpg'></img></p>","null","","1551536752111","","","","","","",""
"null","","html-keyboard-response","259","2058460","0.0-6.0-6.13","48","<p><img class= 'stimulus' src='images/baseline/04014v.jpg'></img></p>","null","","1551536752210","6","","","","","",""
"null","","html-keyboard-response","260","2058561","0.0-6.0-7.13","48","<p><img class= 'stimulus' src='images/baseline/Kocherbaumwald-01.jpg'></img></p>","null","","1551536752310","","","","","","",""
"null","","html-keyboard-response","261","2058662","0.0-6.0-8.13","48","<p><img class= 'stimulus' src='images/target/landscape_1.jpg'></img></p>","null","","1551536752411","8","","","","","",""
"null","","html-keyboard-response","262","2058760","0.0-6.0-9.13","48","<p><img class= 'stimulus' src='images/baseline/02977v.jpg'></img></p>","null","","1551536752512","","","","","","",""
"null","","html-keyboard-response","263","2058860","0.0-6.0-10.13","48","<p><img class= 'stimulus' src='images/baseline/05198v.jpg'></img></p>","null","","1551536752610","","","","","","",""
"null","","html-keyboard-response","264","2058960","0.0-6.0-11.13","48","<p><img class= 'stimulus' src='images/baseline/05179v.jpg'></img></p>","null","","1551536752710","","","","","","",""
"null","","html-keyboard-response","265","2059060","0.0-6.0-12.13","48","<p><img class= 'stimulus' src='images/baseline/red-rocks-park.jpg'></img></p>","null","","1551536752810","12","","","","","",""
"null","","html-keyboard-response","266","2059160","0.0-6.0-13.13","48","<p><img class= 'stimulus' src='images/baseline/agriculture-bright-clouds-440731.jpg'></img></p>","null","","1551536752911","","","","","","",""
"null","","html-keyboard-response","267","2059260","0.0-6.0-14.13","48","<p><img class= 'stimulus' src='images/baseline/04300v.jpg'></img></p>","null","","1551536753011","14","","","","","",""
"null","","html-keyboard-response","268","2059360","0.0-6.0-15.13","48","<p><img class= 'stimulus' src='images/baseline/tennis-court-net-buried-in-snow.jpg'></img></p>","null","","1551536753110","","","","","","",""
"null","","html-keyboard-response","269","2059460","0.0-6.0-16.13","48","<p><img class= 'stimulus' src='images/baseline/house7.jpg'></img></p>","null","","1551536753211","","","","","","",""
"null","","html-keyboard-response","270","2059577","0.0-6.0-17.13","48","<p><img class= 'stimulus' src='images/baseline/Lake 8.jpg'></img></p>","null","","1551536753310","","","","","","",""
"717.2999999602325","","html-button-response","271","2061297","0.0-6.0-18.13","48","<div class = ""response_question"">WAS THE IMAGE ROTATED...</div>","","3","","","6","2","bas","right","practice","true"
"854.5000000158325","","html-button-response","272","2062154","0.0-6.0-0.14","48","","","0","","","","","","","",""
"null","","html-keyboard-response","273","2062226","0.0-6.0-1.14","48","<p><img class= 'stimulus' src='images/baseline/Sky 1.jpg'></img></p>","null","","1551536755977","","","","","","",""
"null","","html-keyboard-response","274","2062327","0.0-6.0-2.14","48","<p><img class= 'stimulus' src='images/baseline/church-silhouette-8712964986014Kb.jpg'></img></p>","null","","1551536756077","","","","","","",""
"null","","html-keyboard-response","275","2062427","0.0-6.0-3.14","48","<p><img class= 'stimulus' src='images/baseline/hills 4.jpg'></img></p>","null","","1551536756177","","","","","","",""
"null","","html-keyboard-response","276","2062527","0.0-6.0-4.14","48","<p><img class= 'stimulus' src='images/baseline/Paysage_karabagh_02.jpg'></img></p>","null","","1551536756278","4","","","","","",""
"null","","html-keyboard-response","277","2062627","0.0-6.0-5.14","48","<p><img class= 'stimulus' src='images/baseline/landscape1.jpg'></img></p>","null","","1551536756378","","","","","","",""
"null","","html-keyboard-response","278","2062727","0.0-6.0-6.14","48","<p><img class= 'stimulus' src='images/target/italy-building-1206128_1280.jpg'></img></p>","null","","1551536756477","6","","","","","",""
"null","","html-keyboard-response","279","2062826","0.0-6.0-7.14","48","<p><img class= 'stimulus' src='images/baseline/landscape19.jpg'></img></p>","null","","1551536756577","","","","","","",""
"null","","html-keyboard-response","280","2062926","0.0-6.0-8.14","48","<p><img class= 'stimulus' src='images/baseline/kokkari-1523011968Xfr.jpg'></img></p>","null","","1551536756677","8","","","","","",""
"null","","html-keyboard-response","281","2063027","0.0-6.0-9.14","48","<p><img class= 'stimulus' src='images/baseline/Nature 1.jpg'></img></p>","null","","1551536756778","","","","","","",""
"null","","html-keyboard-response","282","2063127","0.0-6.0-10.14","48","<p><img class= 'stimulus' src='images/baseline/03180v.jpg'></img></p>","null","","1551536756879","","","","","","",""
"null","","html-keyboard-response","283","2063227","0.0-6.0-11.14","48","<p><img class= 'stimulus' src='images/baseline/landscape22.jpg'></img></p>","null","","1551536756978","","","","","","",""
"null","","html-keyboard-response","284","2063327","0.0-6.0-12.14","48","<p><img class= 'stimulus' src='images/baseline/agriculture-countryside-crop-259280.jpg'></img></p>","null","","1551536757077","12","","","","","",""
"null","","html-keyboard-response","285","2063427","0.0-6.0-13.14","48","<p><img class= 'stimulus' src='images/baseline/building16.jpg'></img></p>","null","","1551536757177","","","","","","",""
"null","","html-keyboard-response","286","2063527","0.0-6.0-14.14","48","<p><img class= 'stimulus' src='images/baseline/architecture-956332_1280.jpg'></img></p>","null","","1551536757277","14","","","","","",""
"null","","html-keyboard-response","287","2063627","0.0-6.0-15.14","48","<p><img class= 'stimulus' src='images/baseline/05131v.jpg'></img></p>","null","","1551536757377","","","","","","",""
"null","","html-keyboard-response","288","2063727","0.0-6.0-16.14","48","<p><img class= 'stimulus' src='images/baseline/building_at_national_conservation.jpg'></img></p>","null","","1551536757478","","","","","","",""
"null","","html-keyboard-response","289","2063843","0.0-6.0-17.14","48","<p><img class= 'stimulus' src='images/baseline/building4.jpg'></img></p>","null","","1551536757577","","","","","","",""
"674.9999999883585","","html-button-response","290","2065523","0.0-6.0-18.14","48","<div class = ""response_question"">WAS THE IMAGE ROTATED...</div>","","3","","","4","2","bas","right","practice","true"
"589.6999999531545","","html-button-response","291","2066099","0.0-6.0-0.15","48","","","0","","","","","","","",""
"null","","html-keyboard-response","292","2066180","0.0-6.0-1.15","48","<p><img class= 'stimulus' src='images/baseline/Niinsaare_jarv.jpg'></img></p>","null","","1551536759929","","","","","","",""
"null","","html-keyboard-response","293","2066278","0.0-6.0-2.15","48","<p><img class= 'stimulus' src='images/baseline/pexels-photo-894312.jpeg'></img></p>","null","","1551536760029","","","","","","",""
"null","","html-keyboard-response","294","2066379","0.0-6.0-3.15","48","<p><img class= 'stimulus' src='images/baseline/field 2.jpg'></img></p>","null","","1551536760129","","","","","","",""
"null","","html-keyboard-response","295","2066479","0.0-6.0-4.15","48","<p><img class= 'stimulus' src='images/baseline/Skijump 1.jpg'></img></p>","null","","1551536760229","4","","","","","",""
"null","","html-keyboard-response","296","2066578","0.0-6.0-5.15","48","<p><img class= 'stimulus' src='images/baseline/bird-flying-at-sunset.jpg'></img></p>","null","","1551536760331","","","","","","",""
"null","","html-keyboard-response","297","2066679","0.0-6.0-6.15","48","<p><img class= 'stimulus' src='images/baseline/05247v.jpg'></img></p>","null","","1551536760429","6","","","","","",""
"null","","html-keyboard-response","298","2066779","0.0-6.0-7.15","48","<p><img class= 'stimulus' src='images/baseline/Grass 6.jpg'></img></p>","null","","1551536760529","","","","","","",""
"null","","html-keyboard-response","299","2066879","0.0-6.0-8.15","48","<p><img class= 'stimulus' src='images/baseline/Street 1.jpg'></img></p>","null","","1551536760628","8","","","","","",""
"null","","html-keyboard-response","300","2066979","0.0-6.0-9.15","48","<p><img class= 'stimulus' src='images/baseline/04021v.jpg'></img></p>","null","","1551536760729","","","","","","",""
"null","","html-keyboard-response","301","2067079","0.0-6.0-10.15","48","<p><img class= 'stimulus' src='images/baseline/building2.jpg'></img></p>","null","","1551536760829","","","","","","",""
"null","","html-keyboard-response","302","2067179","0.0-6.0-11.15","48","<p><img class= 'stimulus' src='images/baseline/Sunset 6.jpg'></img></p>","null","","1551536760930","","","","","","",""
"null","","html-keyboard-response","303","2067279","0.0-6.0-12.15","48","<p><img class= 'stimulus left-rotate' src='images/target/building5.jpg'></img></p>","null","","1551536761029","12","","","","","",""
"null","","html-keyboard-response","304","2067379","0.0-6.0-13.15","48","<p><img class= 'stimulus' src='images/baseline/seoul-410266_1920.jpg'></img></p>","null","","1551536761129","","","","","","",""
"null","","html-keyboard-response","305","2067479","0.0-6.0-14.15","48","<p><img class= 'stimulus' src='images/baseline/Skyscraper 1.jpg'></img></p>","null","","1551536761229","14","","","","","",""
"null","","html-keyboard-response","306","2067579","0.0-6.0-15.15","48","<p><img class= 'stimulus' src='images/baseline/02945v.jpg'></img></p>","null","","1551536761329","","","","","","",""
"null","","html-keyboard-response","307","2067678","0.0-6.0-16.15","48","<p><img class= 'stimulus' src='images/baseline/Linden,_paysage.jpg'></img></p>","null","","1551536761431","","","","","","",""
"null","","html-keyboard-response","308","2067796","0.0-6.0-17.15","48","<p><img class= 'stimulus' src='images/baseline/field 3.jpg'></img></p>","null","","1551536761530","","","","","","",""
"644.5999999996275","","html-button-response","309","2069443","0.0-6.0-18.15","48","<div class = ""response_question"">WAS THE IMAGE ROTATED...</div>","","0","","","4","8","bas","left","practice","true"
"51838.50000001257","","html-button-response","310","2121283","0.0-7.0","48","<p>You have now completed the practice phase. We will now begin the real trials.         This is a reminder that you will be searching for a rotated image among the series of upright images.</p>         <p>Remember, please do not blink or move your eyes while the images are on the screen.</p>         <p>At the end of the experiment, the experimenter will be able to show you how accurate you were.</p>","","0","","","","","","","",""
"1926.7000000108965","","html-button-response","311","2123211","0.0-8.0-0.0-0.0","48","","","0","","","","","","","",""
"null","","html-keyboard-response","312","2123296","0.0-8.0-0.0-1.0","48","<p><img class= 'stimulus' src='images/baseline/04162v.jpg'></img></p>","null","","1551536817046","","","","","","",""
"null","","html-keyboard-response","313","2123396","0.0-8.0-0.0-2.0","48","<p><img class= 'stimulus' src='images/baseline/city-silhouette-at-sunset-871291580819Esw.jpg'></img></p>","null","","1551536817146","","","","","","",""
"null","","html-keyboard-response","314","2123496","0.0-8.0-0.0-3.0","48","<p><img class= 'stimulus' src='images/baseline/house7.jpg'></img></p>","null","","1551536817247","","","","","","",""
"null","","html-keyboard-response","315","2123596","0.0-8.0-0.0-4.0","48","<p><img class= 'stimulus' src='images/baseline/building8.jpg'></img></p>","null","","1551536817347","4","","","","","",""
"null","","html-keyboard-response","316","2123696","0.0-8.0-0.0-5.0","48","<p><img class= 'stimulus' src='images/baseline/field 1.jpg'></img></p>","null","","1551536817447","","","","","","",""
"null","","html-keyboard-response","317","2123797","0.0-8.0-0.0-6.0","48","<p><img class= 'stimulus' src='images/baseline/02988v.jpg'></img></p>","null","","1551536817548","6","","","","","",""
"null","","html-keyboard-response","318","2123896","0.0-8.0-0.0-7.0","48","<p><img class= 'stimulus' src='images/baseline/snowy tree.jpg'></img></p>","null","","1551536817648","","","","","","",""
"null","","html-keyboard-response","319","2123997","0.0-8.0-0.0-8.0","48","<p><img class= 'stimulus' src='images/baseline/pexels-photo-894312.jpeg'></img></p>","null","","1551536817747","8","","","","","",""
"null","","html-keyboard-response","320","2124096","0.0-8.0-0.0-9.0","48","<p><img class= 'stimulus' src='images/baseline/sun-through-winter-tree-branches1.jpg'></img></p>","null","","1551536817847","","","","","","",""
"null","","html-keyboard-response","321","2124197","0.0-8.0-0.0-10.0","48","<p><img class= 'stimulus' src='images/baseline/Cold 7.jpg'></img></p>","null","","1551536817948","","","","","","",""
"null","","html-keyboard-response","322","2124296","0.0-8.0-0.0-11.0","48","<p><img class= 'stimulus' src='images/baseline/landscape14.jpg'></img></p>","null","","1551536818047","","","","","","",""
"null","","html-keyboard-response","323","2124396","0.0-8.0-0.0-12.0","48","<p><img class= 'stimulus' src='images/baseline/agriculture-cereal-clouds-175389.jpg'></img></p>","null","","1551536818147","12","","","","","",""
"null","","html-keyboard-response","324","2124496","0.0-8.0-0.0-13.0","48","<p><img class= 'stimulus' src='images/baseline/pexels-photo-440731.jpeg'></img></p>","null","","1551536818246","","","","","","",""
"null","","html-keyboard-response","325","2124597","0.0-8.0-0.0-14.0","48","<p><img class= 'stimulus left-rotate' src='images/target/transamerica-pyramid-530061_640.jpg'></img></p>","null","","1551536818346","14","","","","","",""
"null","","html-keyboard-response","326","2124695","0.0-8.0-0.0-15.0","48","<p><img class= 'stimulus' src='images/baseline/hills 1.jpg'></img></p>","null","","1551536818446","","","","","","",""
"null","","html-keyboard-response","327","2124796","0.0-8.0-0.0-16.0","48","<p><img class= 'stimulus' src='images/baseline/farmhouse9.jpg'></img></p>","null","","1551536818548","","","","","","",""
"null","","html-keyboard-response","328","2124913","0.0-8.0-0.0-17.0","48","<p><img class= 'stimulus' src='images/baseline/hills 4.jpg'></img></p>","null","","1551536818648","","","","","","",""
"822.9999999748543","","html-button-response","329","2126744","0.0-8.0-0.0-18.0","48","<div class = ""response_question"">WAS THE IMAGE ROTATED...</div>","","0","","","6","8","bas","left","test","true"
"1085.5999999912456","","html-button-response","330","2127832","0.0-8.0-0.0-0.1","48","","","0","","","","","","","",""
"null","","html-keyboard-response","331","2127918","0.0-8.0-0.0-1.1","48","<p><img class= 'stimulus' src='images/baseline/architecture_modern_architecture_852928.jpg'></img></p>","null","","1551536821668","","","","","","",""
"null","","html-keyboard-response","332","2128018","0.0-8.0-0.0-2.1","48","<p><img class= 'stimulus' src='images/baseline/road 1(1).jpg'></img></p>","null","","1551536821768","","","","","","",""
"null","","html-keyboard-response","333","2128117","0.0-8.0-0.0-3.1","48","<p><img class= 'stimulus' src='images/baseline/99_-_Machu_Picchu_-_Juin_2009.edit3.jpg'></img></p>","null","","1551536821868","","","","","","",""
"null","","html-keyboard-response","334","2128217","0.0-8.0-0.0-4.1","48","<p><img class= 'stimulus' src='images/baseline/landscape39.jpg'></img></p>","null","","1551536821969","4","","","","","",""
"null","","html-keyboard-response","335","2128317","0.0-8.0-0.0-5.1","48","<p><img class= 'stimulus' src='images/baseline/03041v.jpg'></img></p>","null","","1551536822068","","","","","","",""
"null","","html-keyboard-response","336","2128418","0.0-8.0-0.0-6.1","48","<p><img class= 'stimulus' src='images/baseline/04179v.jpg'></img></p>","null","","1551536822168","6","","","","","",""
"null","","html-keyboard-response","337","2128518","0.0-8.0-0.0-7.1","48","<p><img class= 'stimulus' src='images/baseline/Camping 10.jpg'></img></p>","null","","1551536822268","","","","","","",""
"null","","html-keyboard-response","338","2128618","0.0-8.0-0.0-8.1","48","<p><img class= 'stimulus' src='images/baseline/pexels-photo-210617.jpeg'></img></p>","null","","1551536822368","8","","","","","",""
"null","","html-keyboard-response","339","2128718","0.0-8.0-0.0-9.1","48","<p><img class= 'stimulus' src='images/baseline/Sky 1.jpg'></img></p>","null","","1551536822468","","","","","","",""
"null","","html-keyboard-response","340","2128818","0.0-8.0-0.0-10.1","48","<p><img class= 'stimulus' src='images/baseline/04021v.jpg'></img></p>","null","","1551536822569","","","","","","",""
"null","","html-keyboard-response","341","2128918","0.0-8.0-0.0-11.1","48","<p><img class= 'stimulus' src='images/baseline/05167v.jpg'></img></p>","null","","1551536822669","","","","","","",""
"null","","html-keyboard-response","342","2129019","0.0-8.0-0.0-12.1","48","<p><img class= 'stimulus left-rotate' src='images/target/beach1.jpeg'></img></p>","null","","1551536822769","12","","","","","",""
"null","","html-keyboard-response","343","2129118","0.0-8.0-0.0-13.1","48","<p><img class= 'stimulus' src='images/baseline/building9.jpg'></img></p>","null","","1551536822868","","","","","","",""
"null","","html-keyboard-response","344","2129219","0.0-8.0-0.0-14.1","48","<p><img class= 'stimulus' src='images/baseline/Lake 15.jpg'></img></p>","null","","1551536822969","14","","","","","",""
"null","","html-keyboard-response","345","2129319","0.0-8.0-0.0-15.1","48","<p><img class= 'stimulus' src='images/baseline/05145v.jpg'></img></p>","null","","1551536823068","","","","","","",""
"null","","html-keyboard-response","346","2129417","0.0-8.0-0.0-16.1","48","<p><img class= 'stimulus' src='images/baseline/seoul-410266_1920.jpg'></img></p>","null","","1551536823169","","","","","","",""
"null","","html-keyboard-response","347","2129535","0.0-8.0-0.0-17.1","48","<p><img class= 'stimulus' src='images/baseline/valley 1.jpg'></img></p>","null","","1551536823268","","","","","","",""
"702.4000000092201","","html-button-response","348","2131241","0.0-8.0-0.0-18.1","48","<div class = ""response_question"">WAS THE IMAGE ROTATED...</div>","","0","","","4","8","bas","left","test","true"
"710.2999999769963","","html-button-response","349","2131952","0.0-8.0-0.0-0.2","48","","","0","","","","","","","",""
"null","","html-keyboard-response","350","2132035","0.0-8.0-0.0-1.2","48","<p><img class= 'stimulus' src='images/baseline/landscape12.jpg'></img></p>","null","","1551536825787","","","","","","",""
"null","","html-keyboard-response","351","2132136","0.0-8.0-0.0-2.2","48","<p><img class= 'stimulus' src='images/baseline/02977v.jpg'></img></p>","null","","1551536825886","","","","","","",""
"null","","html-keyboard-response","352","2132236","0.0-8.0-0.0-3.2","48","<p><img class= 'stimulus' src='images/baseline/Sailing 3.jpg'></img></p>","null","","1551536825985","","","","","","",""
"null","","html-keyboard-response","353","2132335","0.0-8.0-0.0-4.2","48","<p><img class= 'stimulus' src='images/baseline/04063v.jpg'></img></p>","null","","1551536826085","4","","","","","",""
"null","","html-keyboard-response","354","2132435","0.0-8.0-0.0-5.2","48","<p><img class= 'stimulus' src='images/baseline/farmhouse8.jpg'></img></p>","null","","1551536826186","","","","","","",""
"null","","html-keyboard-response","355","2132535","0.0-8.0-0.0-6.2","48","<p><img class= 'stimulus' src='images/negative/Shark 10.jpg'></img></p>","null","","1551536826286","6","","","","","",""
"null","","html-keyboard-response","356","2132635","0.0-8.0-0.0-7.2","48","<p><img class= 'stimulus' src='images/baseline/house2.jpg'></img></p>","null","","1551536826386","","","","","","",""
"null","","html-keyboard-response","357","2132735","0.0-8.0-0.0-8.2","48","<p><img class= 'stimulus left-rotate' src='images/target/pexels-photo-1102846.jpeg'></img></p>","null","","1551536826487","8","","","","","",""
"null","","html-keyboard-response","358","2132835","0.0-8.0-0.0-9.2","48","<p><img class= 'stimulus' src='images/baseline/Path 1.jpg'></img></p>","null","","1551536826585","","","","","","",""
"null","","html-keyboard-response","359","2132935","0.0-8.0-0.0-10.2","48","<p><img class= 'stimulus' src='images/baseline/03201v.jpg'></img></p>","null","","1551536826686","","","","","","",""
"null","","html-keyboard-response","360","2133035","0.0-8.0-0.0-11.2","48","<p><img class= 'stimulus' src='images/baseline/04284v.jpg'></img></p>","null","","1551536826786","","","","","","",""
"null","","html-keyboard-response","361","2133135","0.0-8.0-0.0-12.2","48","<p><img class= 'stimulus' src='images/baseline/landscape31.jpg'></img></p>","null","","1551536826885","12","","","","","",""
"null","","html-keyboard-response","362","2133235","0.0-8.0-0.0-13.2","48","<p><img class= 'stimulus' src='images/baseline/Street 1.jpg'></img></p>","null","","1551536826986","","","","","","",""
"null","","html-keyboard-response","363","2133335","0.0-8.0-0.0-14.2","48","<p><img class= 'stimulus' src='images/baseline/04085v.jpg'></img></p>","null","","1551536827087","14","","","","","",""
"null","","html-keyboard-response","364","2133434","0.0-8.0-0.0-15.2","48","<p><img class= 'stimulus' src='images/baseline/valley 2.jpg'></img></p>","null","","1551536827185","","","","","","",""
"null","","html-keyboard-response","365","2133535","0.0-8.0-0.0-16.2","48","<p><img class= 'stimulus' src='images/baseline/Street 5.jpg'></img></p>","null","","1551536827285","","","","","","",""
"null","","html-keyboard-response","366","2133652","0.0-8.0-0.0-17.2","48","<p><img class= 'stimulus' src='images/baseline/field 4.jpg'></img></p>","null","","1551536827386","","","","","","",""
"2648.300000000745","","html-button-response","367","2137305","0.0-8.0-0.0-18.2","48","<div class = ""response_question"">WAS THE IMAGE ROTATED...</div>","","4","","","6","2","neg","left","test","false"
"926.2999999918975","","html-button-response","368","2138233","0.0-8.0-0.0-0.3","48","","","0","","","","","","","",""
"null","","html-keyboard-response","369","2138318","0.0-8.0-0.0-1.3","48","<p><img class= 'stimulus' src='images/baseline/05255v.jpg'></img></p>","null","","1551536832068","","","","","","",""
"null","","html-keyboard-response","370","2138418","0.0-8.0-0.0-2.3","48","<p><img class= 'stimulus' src='images/baseline/lookout_tower.jpg'></img></p>","null","","1551536832169","","","","","","",""
"null","","html-keyboard-response","371","2138518","0.0-8.0-0.0-3.3","48","<p><img class= 'stimulus' src='images/baseline/landscape2.jpg'></img></p>","null","","1551536832269","","","","","","",""
"null","","html-keyboard-response","372","2138617","0.0-8.0-0.0-4.3","48","<p><img class= 'stimulus' src='images/baseline/03045v.jpg'></img></p>","null","","1551536832369","4","","","","","",""
"null","","html-keyboard-response","373","2138718","0.0-8.0-0.0-5.3","48","<p><img class= 'stimulus' src='images/baseline/scenic-mountain-landscape.jpg'></img></p>","null","","1551536832469","","","","","","",""
"null","","html-keyboard-response","374","2138818","0.0-8.0-0.0-6.3","48","<p><img class= 'stimulus' src='images/negative/Explosion 1.jpg'></img></p>","null","","1551536832568","6","","","","","",""
"null","","html-keyboard-response","375","2138918","0.0-8.0-0.0-7.3","48","<p><img class= 'stimulus' src='images/baseline/05247v.jpg'></img></p>","null","","1551536832668","","","","","","",""
"null","","html-keyboard-response","376","2139019","0.0-8.0-0.0-8.3","48","<p><img class= 'stimulus' src='images/target/building15.jpg'></img></p>","null","","1551536832768","8","","","","","",""
"null","","html-keyboard-response","377","2139118","0.0-8.0-0.0-9.3","48","<p><img class= 'stimulus' src='images/baseline/Paysage_karabagh_02.jpg'></img></p>","null","","1551536832869","","","","","","",""
"null","","html-keyboard-response","378","2139218","0.0-8.0-0.0-10.3","48","<p><img class= 'stimulus' src='images/baseline/pexels-photo-221125.jpeg'></img></p>","null","","1551536832968","","","","","","",""
"null","","html-keyboard-response","379","2139319","0.0-8.0-0.0-11.3","48","<p><img class= 'stimulus' src='images/baseline/red rocks from afar.jpg'></img></p>","null","","1551536833070","","","","","","",""
"null","","html-keyboard-response","380","2139418","0.0-8.0-0.0-12.3","48","<p><img class= 'stimulus' src='images/baseline/landscape17.jpg'></img></p>","null","","1551536833169","12","","","","","",""
"null","","html-keyboard-response","381","2139518","0.0-8.0-0.0-13.3","48","<p><img class= 'stimulus' src='images/baseline/building3.jpg'></img></p>","null","","1551536833268","","","","","","",""
"null","","html-keyboard-response","382","2139619","0.0-8.0-0.0-14.3","48","<p><img class= 'stimulus' src='images/baseline/chicago-skyline-at-night-1476869511p8U.jpg'></img></p>","null","","1551536833369","14","","","","","",""
"null","","html-keyboard-response","383","2139718","0.0-8.0-0.0-15.3","48","<p><img class= 'stimulus' src='images/baseline/04040v.jpg'></img></p>","null","","1551536833469","","","","","","",""
"null","","html-keyboard-response","384","2139818","0.0-8.0-0.0-16.3","48","<p><img class= 'stimulus' src='images/baseline/Lake 14.jpg'></img></p>","null","","1551536833569","","","","","","",""
"null","","html-keyboard-response","385","2139935","0.0-8.0-0.0-17.3","48","<p><img class= 'stimulus' src='images/baseline/landscape38.jpg'></img></p>","null","","1551536833668","","","","","","",""
"614.000000001397","","html-button-response","386","2141552","0.0-8.0-0.0-18.3","48","<div class = ""response_question"">WAS THE IMAGE ROTATED...</div>","","3","","","6","2","neg","right","test","true"
"790.1000000420026","","html-button-response","387","2142344","0.0-8.0-0.0-0.4","48","","","0","","","","","","","",""
"null","","html-keyboard-response","388","2142418","0.0-8.0-0.0-1.4","48","<p><img class= 'stimulus' src='images/baseline/Freudenberg_sg_Switzerland.jpg'></img></p>","null","","1551536836168","","","","","","",""
"null","","html-keyboard-response","389","2142518","0.0-8.0-0.0-2.4","48","<p><img class= 'stimulus' src='images/baseline/Lake 9.jpg'></img></p>","null","","1551536836269","","","","","","",""
"null","","html-keyboard-response","390","2142618","0.0-8.0-0.0-3.4","48","<p><img class= 'stimulus' src='images/baseline/04064v.jpg'></img></p>","null","","1551536836369","","","","","","",""
"null","","html-keyboard-response","391","2142718","0.0-8.0-0.0-4.4","48","<p><img class= 'stimulus' src='images/neutral/Dog 29.jpg'></img></p>","null","","1551536836470","4","","","","","",""
"null","","html-keyboard-response","392","2142818","0.0-8.0-0.0-5.4","48","<p><img class= 'stimulus' src='images/baseline/05131v.jpg'></img></p>","null","","1551536836569","","","","","","",""
"null","","html-keyboard-response","393","2142918","0.0-8.0-0.0-6.4","48","<p><img class= 'stimulus' src='images/baseline/03180v.jpg'></img></p>","null","","1551536836669","6","","","","","",""
"null","","html-keyboard-response","394","2143019","0.0-8.0-0.0-7.4","48","<p><img class= 'stimulus' src='images/baseline/landscape1.jpg'></img></p>","null","","1551536836768","","","","","","",""
"null","","html-keyboard-response","395","2143119","0.0-8.0-0.0-8.4","48","<p><img class= 'stimulus' src='images/baseline/landscape16.jpg'></img></p>","null","","1551536836869","8","","","","","",""
"null","","html-keyboard-response","396","2143217","0.0-8.0-0.0-9.4","48","<p><img class= 'stimulus' src='images/baseline/pexels-photo-534164.jpeg'></img></p>","null","","1551536836968","","","","","","",""
"null","","html-keyboard-response","397","2143318","0.0-8.0-0.0-10.4","48","<p><img class= 'stimulus' src='images/baseline/Nature 1.jpg'></img></p>","null","","1551536837068","","","","","","",""
"null","","html-keyboard-response","398","2143418","0.0-8.0-0.0-11.4","48","<p><img class= 'stimulus' src='images/baseline/02982v.jpg'></img></p>","null","","1551536837168","","","","","","",""
"null","","html-keyboard-response","399","2143518","0.0-8.0-0.0-12.4","48","<p><img class= 'stimulus' src='images/target/adventure-desert-landscape-6778.jpg'></img></p>","null","","1551536837269","12","","","","","",""
"null","","html-keyboard-response","400","2143618","0.0-8.0-0.0-13.4","48","<p><img class= 'stimulus' src='images/baseline/05139v.jpg'></img></p>","null","","1551536837369","","","","","","",""
"null","","html-keyboard-response","401","2143718","0.0-8.0-0.0-14.4","48","<p><img class= 'stimulus' src='images/baseline/pexels-photo-1287089.jpeg'></img></p>","null","","1551536837468","14","","","","","",""
"null","","html-keyboard-response","402","2143820","0.0-8.0-0.0-15.4","48","<p><img class= 'stimulus' src='images/baseline/pexels-photo-568236.jpeg'></img></p>","null","","1551536837569","","","","","","",""
"null","","html-keyboard-response","403","2143918","0.0-8.0-0.0-16.4","48","<p><img class= 'stimulus' src='images/baseline/Aletschgletscher-Eggishorn.jpg'></img></p>","null","","1551536837669","","","","","","",""
"null","","html-keyboard-response","404","2144034","0.0-8.0-0.0-17.4","48","<p><img class= 'stimulus' src='images/baseline/Bridge 1.jpg'></img></p>","null","","1551536837768","","","","","","",""
"514.400000043679","","html-button-response","405","2145552","0.0-8.0-0.0-18.4","48","<div class = ""response_question"">WAS THE IMAGE ROTATED...</div>","","3","","","4","8","neu","right","test","true"
"542.0000000158325","","html-button-response","406","2146096","0.0-8.0-0.0-0.5","48","","","0","","","","","","","",""
"null","","html-keyboard-response","407","2146168","0.0-8.0-0.0-1.5","48","<p><img class= 'stimulus' src='images/baseline/pexels-photo-541101.jpeg'></img></p>","null","","1551536839918","","","","","","",""
"null","","html-keyboard-response","408","2146269","0.0-8.0-0.0-2.5","48","<p><img class= 'stimulus' src='images/baseline/empire-state-building.jpg'></img></p>","null","","1551536840020","","","","","","",""
"null","","html-keyboard-response","409","2146368","0.0-8.0-0.0-3.5","48","<p><img class= 'stimulus' src='images/baseline/03220v.jpg'></img></p>","null","","1551536840118","","","","","","",""
"null","","html-keyboard-response","410","2146468","0.0-8.0-0.0-4.5","48","<p><img class= 'stimulus' src='images/baseline/02971v.jpg'></img></p>","null","","1551536840219","4","","","","","",""
"null","","html-keyboard-response","411","2146568","0.0-8.0-0.0-5.5","48","<p><img class= 'stimulus' src='images/baseline/Beach 3.jpg'></img></p>","null","","1551536840319","","","","","","",""
"null","","html-keyboard-response","412","2146668","0.0-8.0-0.0-6.5","48","<p><img class= 'stimulus' src='images/neutral/playing-saxophone-871291665036ZmX.jpg'></img></p>","null","","1551536840419","6","","","","","",""
"null","","html-keyboard-response","413","2146768","0.0-8.0-0.0-7.5","48","<p><img class= 'stimulus' src='images/baseline/02960v.jpg'></img></p>","null","","1551536840519","","","","","","",""
"null","","html-keyboard-response","414","2146867","0.0-8.0-0.0-8.5","48","<p><img class= 'stimulus' src='images/target/tree_1.jpg'></img></p>","null","","1551536840620","8","","","","","",""
"null","","html-keyboard-response","415","2146969","0.0-8.0-0.0-9.5","48","<p><img class= 'stimulus' src='images/baseline/horse_statue.jpg'></img></p>","null","","1551536840719","","","","","","",""
"null","","html-keyboard-response","416","2147068","0.0-8.0-0.0-10.5","48","<p><img class= 'stimulus' src='images/baseline/pexels-photo-1054289.jpeg'></img></p>","null","","1551536840820","","","","","","",""
"null","","html-keyboard-response","417","2147168","0.0-8.0-0.0-11.5","48","<p><img class= 'stimulus' src='images/baseline/trees 23.jpg'></img></p>","null","","1551536840919","","","","","","",""
"null","","html-keyboard-response","418","2147268","0.0-8.0-0.0-12.5","48","<p><img class= 'stimulus' src='images/baseline/05280v.jpg'></img></p>","null","","1551536841018","12","","","","","",""
"null","","html-keyboard-response","419","2147368","0.0-8.0-0.0-13.5","48","<p><img class= 'stimulus' src='images/baseline/autumn-in-red-rocks-park.jpg'></img></p>","null","","1551536841120","","","","","","",""
"null","","html-keyboard-response","420","2147469","0.0-8.0-0.0-14.5","48","<p><img class= 'stimulus' src='images/baseline/pexels-photo-1837621.jpeg'></img></p>","null","","1551536841219","14","","","","","",""
"null","","html-keyboard-response","421","2147568","0.0-8.0-0.0-15.5","48","<p><img class= 'stimulus' src='images/baseline/pexels-photo-1048039.jpeg'></img></p>","null","","1551536841319","","","","","","",""
"null","","html-keyboard-response","422","2147668","0.0-8.0-0.0-16.5","48","<p><img class= 'stimulus' src='images/baseline/geese-flying-over-lake-at-dusk.jpg'></img></p>","null","","1551536841419","","","","","","",""
"null","","html-keyboard-response","423","2147784","0.0-8.0-0.0-17.5","48","<p><img class= 'stimulus' src='images/baseline/05242v.jpg'></img></p>","null","","1551536841518","","","","","","",""
"477.1000000182539","","html-button-response","424","2149264","0.0-8.0-0.0-18.5","48","<div class = ""response_question"">WAS THE IMAGE ROTATED...</div>","","3","","","6","2","neu","right","test","true"
"774.0000000339933","","html-button-response","425","2150040","0.0-8.0-0.0-0.6","48","","","0","","","","","","","",""
"null","","html-keyboard-response","426","2150119","0.0-8.0-0.0-1.6","48","<p><img class= 'stimulus' src='images/baseline/05179v.jpg'></img></p>","null","","1551536843868","","","","","","",""
"null","","html-keyboard-response","427","2150219","0.0-8.0-0.0-2.6","48","<p><img class= 'stimulus' src='images/baseline/flooded-bridge.jpg'></img></p>","null","","1551536843968","","","","","","",""
"null","","html-keyboard-response","428","2150318","0.0-8.0-0.0-3.6","48","<p><img class= 'stimulus' src='images/baseline/04130v.jpg'></img></p>","null","","1551536844069","","","","","","",""
"null","","html-keyboard-response","429","2150417","0.0-8.0-0.0-4.6","48","<p><img class= 'stimulus' src='images/negative/Cockroach 1.jpg'></img></p>","null","","1551536844168","4","","","","","",""
"null","","html-keyboard-response","430","2150518","0.0-8.0-0.0-5.6","48","<p><img class= 'stimulus' src='images/baseline/architecture-1314416_1920.jpg'></img></p>","null","","1551536844269","","","","","","",""
"null","","html-keyboard-response","431","2150618","0.0-8.0-0.0-6.6","48","<p><img class= 'stimulus' src='images/baseline/Skijump 1.jpg'></img></p>","null","","1551536844368","6","","","","","",""
"null","","html-keyboard-response","432","2150719","0.0-8.0-0.0-7.6","48","<p><img class= 'stimulus' src='images/baseline/red-rocks-park.jpg'></img></p>","null","","1551536844469","","","","","","",""
"null","","html-keyboard-response","433","2150819","0.0-8.0-0.0-8.6","48","<p><img class= 'stimulus' src='images/baseline/building2.jpg'></img></p>","null","","1551536844570","8","","","","","",""
"null","","html-keyboard-response","434","2150918","0.0-8.0-0.0-9.6","48","<p><img class= 'stimulus' src='images/baseline/building4.jpg'></img></p>","null","","1551536844668","","","","","","",""
"null","","html-keyboard-response","435","2151018","0.0-8.0-0.0-10.6","48","<p><img class= 'stimulus' src='images/baseline/meadow-with-mountain-in-background.jpg'></img></p>","null","","1551536844769","","","","","","",""
"null","","html-keyboard-response","436","2151118","0.0-8.0-0.0-11.6","48","<p><img class= 'stimulus' src='images/baseline/tennis-court-net-buried-in-snow.jpg'></img></p>","null","","1551536844869","","","","","","",""
"null","","html-keyboard-response","437","2151219","0.0-8.0-0.0-12.6","48","<p><img class= 'stimulus' src='images/target/mitre peak.jpg'></img></p>","null","","1551536844969","12","","","","","",""
"null","","html-keyboard-response","438","2151318","0.0-8.0-0.0-13.6","48","<p><img class= 'stimulus' src='images/baseline/church-silhouette-8712964986014Kb.jpg'></img></p>","null","","1551536845069","","","","","","",""
"null","","html-keyboard-response","439","2151418","0.0-8.0-0.0-14.6","48","<p><img class= 'stimulus' src='images/baseline/pexels-photo-59321.jpeg'></img></p>","null","","1551536845169","14","","","","","",""
"null","","html-keyboard-response","440","2151520","0.0-8.0-0.0-15.6","48","<p><img class= 'stimulus' src='images/baseline/agriculture-bright-clouds-440731.jpg'></img></p>","null","","1551536845269","","","","","","",""
"null","","html-keyboard-response","441","2151617","0.0-8.0-0.0-16.6","48","<p><img class= 'stimulus' src='images/baseline/landscape23.jpg'></img></p>","null","","1551536845369","","","","","","",""
"null","","html-keyboard-response","442","2151735","0.0-8.0-0.0-17.6","48","<p><img class= 'stimulus' src='images/baseline/lake3.jpg'></img></p>","null","","1551536845469","","","","","","",""
"606.2999999849126","","html-button-response","443","2153345","0.0-8.0-0.0-18.6","48","<div class = ""response_question"">WAS THE IMAGE ROTATED...</div>","","3","","","4","8","neg","right","test","true"
"853.400000021793","","html-button-response","444","2154200","0.0-8.0-0.0-0.7","48","","","0","","","","","","","",""
"null","","html-keyboard-response","445","2154285","0.0-8.0-0.0-1.7","48","<p><img class= 'stimulus' src='images/baseline/Happy pose 3.jpg'></img></p>","null","","1551536848036","","","","","","",""
"null","","html-keyboard-response","446","2154385","0.0-8.0-0.0-2.7","48","<p><img class= 'stimulus' src='images/baseline/agriculture-countryside-crop-259280.jpg'></img></p>","null","","1551536848135","","","","","","",""
"null","","html-keyboard-response","447","2154485","0.0-8.0-0.0-3.7","48","<p><img class= 'stimulus' src='images/baseline/pexels-photo-259280.jpeg'></img></p>","null","","1551536848235","","","","","","",""
"null","","html-keyboard-response","448","2154585","0.0-8.0-0.0-4.7","48","<p><img class= 'stimulus' src='images/baseline/lake 1.jpg'></img></p>","null","","1551536848335","4","","","","","",""
"null","","html-keyboard-response","449","2154685","0.0-8.0-0.0-5.7","48","<p><img class= 'stimulus' src='images/baseline/04010v.jpg'></img></p>","null","","1551536848435","","","","","","",""
"null","","html-keyboard-response","450","2154785","0.0-8.0-0.0-6.7","48","<p><img class= 'stimulus' src='images/neutral/Neutral pose 1.jpg'></img></p>","null","","1551536848535","6","","","","","",""
"null","","html-keyboard-response","451","2154885","0.0-8.0-0.0-7.7","48","<p><img class= 'stimulus' src='images/baseline/landscape13.jpg'></img></p>","null","","1551536848636","","","","","","",""
"null","","html-keyboard-response","452","2154985","0.0-8.0-0.0-8.7","48","<p><img class= 'stimulus' src='images/baseline/04014v.jpg'></img></p>","null","","1551536848735","8","","","","","",""
"null","","html-keyboard-response","453","2155086","0.0-8.0-0.0-9.7","48","<p><img class= 'stimulus' src='images/baseline/Street 3.jpg'></img></p>","null","","1551536848836","","","","","","",""
"null","","html-keyboard-response","454","2155185","0.0-8.0-0.0-10.7","48","<p><img class= 'stimulus' src='images/baseline/farmhouse3.jpg'></img></p>","null","","1551536848935","","","","","","",""
"null","","html-keyboard-response","455","2155284","0.0-8.0-0.0-11.7","48","<p><img class= 'stimulus' src='images/baseline/05279v.jpg'></img></p>","null","","1551536849035","","","","","","",""
"null","","html-keyboard-response","456","2155384","0.0-8.0-0.0-12.7","48","<p><img class= 'stimulus' src='images/baseline/Sunset 5.jpg'></img></p>","null","","1551536849136","12","","","","","",""
"null","","html-keyboard-response","457","2155485","0.0-8.0-0.0-13.7","48","<p><img class= 'stimulus' src='images/baseline/pexels-photo-414491.jpeg'></img></p>","null","","1551536849236","","","","","","",""
"null","","html-keyboard-response","458","2155584","0.0-8.0-0.0-14.7","48","<p><img class= 'stimulus' src='images/target/shotstash_0036-1-1100x734.jpg'></img></p>","null","","1551536849336","14","","","","","",""
"null","","html-keyboard-response","459","2155685","0.0-8.0-0.0-15.7","48","<p><img class= 'stimulus' src='images/baseline/dirt-road-or-trail-through-park.jpg'></img></p>","null","","1551536849437","","","","","","",""
"null","","html-keyboard-response","460","2155785","0.0-8.0-0.0-16.7","48","<p><img class= 'stimulus' src='images/baseline/04098v.jpg'></img></p>","null","","1551536849535","","","","","","",""
"null","","html-keyboard-response","461","2155902","0.0-8.0-0.0-17.7","48","<p><img class= 'stimulus' src='images/baseline/05240v.jpg'></img></p>","null","","1551536849635","","","","","","",""
"559.3000000226311","","html-button-response","462","2157465","0.0-8.0-0.0-18.7","48","<div class = ""response_question"">WAS THE IMAGE ROTATED...</div>","","3","","","6","8","neu","right","test","true"
"718.2000000029802","","html-button-response","463","2158184","0.0-8.0-0.0-0.8","48","","","0","","","","","","","",""
"null","","html-keyboard-response","464","2158269","0.0-8.0-0.0-1.8","48","<p><img class= 'stimulus' src='images/baseline/landscape19.jpg'></img></p>","null","","1551536852018","","","","","","",""
"null","","html-keyboard-response","465","2158369","0.0-8.0-0.0-2.8","48","<p><img class= 'stimulus' src='images/baseline/05158v.jpg'></img></p>","null","","1551536852118","","","","","","",""
"null","","html-keyboard-response","466","2158469","0.0-8.0-0.0-3.8","48","<p><img class= 'stimulus' src='images/baseline/bird-flying-at-sunset.jpg'></img></p>","null","","1551536852218","","","","","","",""
"null","","html-keyboard-response","467","2158569","0.0-8.0-0.0-4.8","48","<p><img class= 'stimulus' src='images/negative/Weapon 1 (1).jpg'></img></p>","null","","1551536852318","4","","","","","",""
"null","","html-keyboard-response","468","2158668","0.0-8.0-0.0-5.8","48","<p><img class= 'stimulus' src='images/baseline/03148v.jpg'></img></p>","null","","1551536852419","","","","","","",""
"null","","html-keyboard-response","469","2158768","0.0-8.0-0.0-6.8","48","<p><img class= 'stimulus left-rotate' src='images/target/church-2306128_640.jpg'></img></p>","null","","1551536852519","6","","","","","",""
"null","","html-keyboard-response","470","2158869","0.0-8.0-0.0-7.8","48","<p><img class= 'stimulus' src='images/baseline/landscape7.jpg'></img></p>","null","","1551536852619","","","","","","",""
"null","","html-keyboard-response","471","2158968","0.0-8.0-0.0-8.8","48","<p><img class= 'stimulus' src='images/baseline/Niinsaare_jarv.jpg'></img></p>","null","","1551536852719","8","","","","","",""
"null","","html-keyboard-response","472","2159068","0.0-8.0-0.0-9.8","48","<p><img class= 'stimulus' src='images/baseline/Skyscraper 2.jpg'></img></p>","null","","1551536852819","","","","","","",""
"null","","html-keyboard-response","473","2159169","0.0-8.0-0.0-10.8","48","<p><img class= 'stimulus' src='images/baseline/grand-teton-mountains.jpg'></img></p>","null","","1551536852919","","","","","","",""
"null","","html-keyboard-response","474","2159268","0.0-8.0-0.0-11.8","48","<p><img class= 'stimulus' src='images/baseline/Paysage_enneige_02.jpg'></img></p>","null","","1551536853019","","","","","","",""
"null","","html-keyboard-response","475","2159368","0.0-8.0-0.0-12.8","48","<p><img class= 'stimulus' src='images/baseline/house11.jpg'></img></p>","null","","1551536853118","12","","","","","",""
"null","","html-keyboard-response","476","2159469","0.0-8.0-0.0-13.8","48","<p><img class= 'stimulus' src='images/baseline/autumn-landscape-with-lake-fall-trees-mountains.jpg'></img></p>","null","","1551536853219","","","","","","",""
"null","","html-keyboard-response","477","2159569","0.0-8.0-0.0-14.8","48","<p><img class= 'stimulus' src='images/baseline/Road 1.jpg'></img></p>","null","","1551536853320","14","","","","","",""
"null","","html-keyboard-response","478","2159669","0.0-8.0-0.0-15.8","48","<p><img class= 'stimulus' src='images/baseline/05203v.jpg'></img></p>","null","","1551536853419","","","","","","",""
"null","","html-keyboard-response","479","2159770","0.0-8.0-0.0-16.8","48","<p><img class= 'stimulus' src='images/baseline/farmhouse7.jpg'></img></p>","null","","1551536853518","","","","","","",""
"null","","html-keyboard-response","480","2159885","0.0-8.0-0.0-17.8","48","<p><img class= 'stimulus' src='images/baseline/Lake 16.jpg'></img></p>","null","","1551536853619","","","","","","",""
"800.3000000026077","","html-button-response","481","2161689","0.0-8.0-0.0-18.8","48","<div class = ""response_question"">WAS THE IMAGE ROTATED...</div>","","0","","","4","2","neg","left","test","true"
"1766.5000000270084","","html-button-response","482","2163456","0.0-8.0-0.0-0.9","48","","","0","","","","","","","",""
"null","","html-keyboard-response","483","2163536","0.0-8.0-0.0-1.9","48","<p><img class= 'stimulus' src='images/baseline/road.jpg'></img></p>","null","","1551536857286","","","","","","",""
"null","","html-keyboard-response","484","2163634","0.0-8.0-0.0-2.9","48","<p><img class= 'stimulus' src='images/baseline/pexels-photo-459203.jpeg'></img></p>","null","","1551536857385","","","","","","",""
"null","","html-keyboard-response","485","2163736","0.0-8.0-0.0-3.9","48","<p><img class= 'stimulus' src='images/baseline/pexels-photo-750108.jpeg'></img></p>","null","","1551536857486","","","","","","",""
"null","","html-keyboard-response","486","2163835","0.0-8.0-0.0-4.9","48","<p><img class= 'stimulus' src='images/baseline/cranes 1.jpg'></img></p>","null","","1551536857586","4","","","","","",""
"null","","html-keyboard-response","487","2163935","0.0-8.0-0.0-5.9","48","<p><img class= 'stimulus' src='images/baseline/4k-wallpaper-agriculture-clouds-842711.jpg'></img></p>","null","","1551536857686","","","","","","",""
"null","","html-keyboard-response","488","2164035","0.0-8.0-0.0-6.9","48","<p><img class= 'stimulus' src='images/negative/Car accident 4.jpg'></img></p>","null","","1551536857785","6","","","","","",""
"null","","html-keyboard-response","489","2164135","0.0-8.0-0.0-7.9","48","<p><img class= 'stimulus' src='images/baseline/pexels-photo-351264.jpeg'></img></p>","null","","1551536857885","","","","","","",""
"null","","html-keyboard-response","490","2164235","0.0-8.0-0.0-8.9","48","<p><img class= 'stimulus' src='images/baseline/Lake 7.jpg'></img></p>","null","","1551536857985","8","","","","","",""
"null","","html-keyboard-response","491","2164335","0.0-8.0-0.0-9.9","48","<p><img class= 'stimulus' src='images/baseline/pexels-photo-280222.jpeg'></img></p>","null","","1551536858085","","","","","","",""
"null","","html-keyboard-response","492","2164436","0.0-8.0-0.0-10.9","48","<p><img class= 'stimulus' src='images/baseline/house10.jpg'></img></p>","null","","1551536858185","","","","","","",""
"null","","html-keyboard-response","493","2164535","0.0-8.0-0.0-11.9","48","<p><img class= 'stimulus' src='images/baseline/05161v.jpg'></img></p>","null","","1551536858286","","","","","","",""
"null","","html-keyboard-response","494","2164636","0.0-8.0-0.0-12.9","48","<p><img class= 'stimulus' src='images/baseline/house8.jpg'></img></p>","null","","1551536858386","12","","","","","",""
"null","","html-keyboard-response","495","2164735","0.0-8.0-0.0-13.9","48","<p><img class= 'stimulus' src='images/baseline/landscape3.jpg'></img></p>","null","","1551536858487","","","","","","",""
"null","","html-keyboard-response","496","2164834","0.0-8.0-0.0-14.9","48","<p><img class= 'stimulus' src='images/target/chicago-673558_640.jpg'></img></p>","null","","1551536858586","14","","","","","",""
"null","","html-keyboard-response","497","2164936","0.0-8.0-0.0-15.9","48","<p><img class= 'stimulus' src='images/baseline/04229v.jpg'></img></p>","null","","1551536858685","","","","","","",""
"null","","html-keyboard-response","498","2165035","0.0-8.0-0.0-16.9","48","<p><img class= 'stimulus' src='images/baseline/03112v.jpg'></img></p>","null","","1551536858787","","","","","","",""
"null","","html-keyboard-response","499","2165152","0.0-8.0-0.0-17.9","48","<p><img class= 'stimulus' src='images/baseline/building12.jpg'></img></p>","null","","1551536858885","","","","","","",""
"612.699999997858","","html-button-response","500","2166769","0.0-8.0-0.0-18.9","48","<div class = ""response_question"">WAS THE IMAGE ROTATED...</div>","","3","","","6","8","neg","right","test","true"
"789.8999999742955","","html-button-response","501","2167561","0.0-8.0-0.0-0.10","48","","","0","","","","","","","",""
"null","","html-keyboard-response","502","2167635","0.0-8.0-0.0-1.10","48","<p><img class= 'stimulus' src='images/baseline/landscape40.jpg'></img></p>","null","","1551536861386","","","","","","",""
"null","","html-keyboard-response","503","2167735","0.0-8.0-0.0-2.10","48","<p><img class= 'stimulus' src='images/baseline/Sunset 6.jpg'></img></p>","null","","1551536861486","","","","","","",""
"null","","html-keyboard-response","504","2167834","0.0-8.0-0.0-3.10","48","<p><img class= 'stimulus' src='images/baseline/Lake 4.jpg'></img></p>","null","","1551536861585","","","","","","",""
"null","","html-keyboard-response","505","2167935","0.0-8.0-0.0-4.10","48","<p><img class= 'stimulus' src='images/baseline/Street 2.jpg'></img></p>","null","","1551536861686","4","","","","","",""
"null","","html-keyboard-response","506","2168036","0.0-8.0-0.0-5.10","48","<p><img class= 'stimulus' src='images/baseline/building6.jpg'></img></p>","null","","1551536861785","","","","","","",""
