"rt","responses","trial_type","trial_index","time_elapsed","internal_node_id","participant_id","stimulus","key_press","button_pressed","stim_onset","sequence_position","distractor_position","target_lag","distractor_type","target_orientation","phase","correct"
"18926.19999999988","{""Q0"":""34""}","survey-text","0","18930","0.0-0.0","34","","","","","","","","","","",""
"2832084.200000001","","html-keyboard-response","1","2851023","0.0-1.0","34","Welcome to the experiment.","67","","","","","","","","",""
"34904.09999999963","","html-button-response","2","2885933","0.0-2.0","34","<p>Several images will be presented sequentially.        Each image will only be on the screen for about 100 milliseconds.</p>        <p> One of the images may be rotated 90 degrees right or left.        Watch for this image and remember if it is rotated right or left.</p>               <p>Images of people and animals will appear, and sometimes they will be unpleasant.        These will never be the rotated target image.</p>","","0","","","","","","","",""
"5294.299999997485","","html-button-response","3","2891229","0.0-3.0","34","<p><img class=""stimulus left-rotate"" src=""images/target/building15.jpg""></img></p><p>This is an example of an image rotated to the left.</p>","","0","","","","","","","",""
"3614.700000002049","","html-button-response","4","2894845","0.0-4.0","34","<p><img class=""stimulus"" src=""images/target/torrotito-375925_640.jpg""></img></p><p>This is an example of an image rotated to the right.</p>","","0","","","","","","","",""
"33991.399999998976","","html-button-response","5","2928837","0.0-5.0","34","<p>We will now begin a short practice session.</p>         <p>A + symbol will appear in the middle of the screen. Please fix your gaze on the center of the +, and then click the mouse button to begin the image sequence.</p>         <p>Please avoid blinking or eye movements while the images are on the screen.</p>        <p>The image sequence will start relatively slow. After a few sequences, it will speed up.</p>","","0","","","","","","","",""
"9550.599999998696","","html-button-response","6","2938390","0.0-6.0-0.0","34","","","0","","","","","","","",""
"null","","html-keyboard-response","7","2938566","0.0-6.0-1.0","34","<p><img class= 'stimulus' src='images/baseline/landscape38.jpg'></img></p>","null","","1550962569630","","","","","","",""
"null","","html-keyboard-response","8","2938766","0.0-6.0-2.0","34","<p><img class= 'stimulus' src='images/baseline/lake 2.jpg'></img></p>","null","","1550962569830","","","","","","",""
"null","","html-keyboard-response","9","2938967","0.0-6.0-3.0","34","<p><img class= 'stimulus' src='images/baseline/05264v.jpg'></img></p>","null","","1550962570030","","","","","","",""
"null","","html-keyboard-response","10","2939166","0.0-6.0-4.0","34","<p><img class= 'stimulus' src='images/baseline/__08_-_ITALY_-_Forli_under_snow_-_winter_landscape_of_city_(christmas).jpg'></img></p>","null","","1550962570230","4","","","","","",""
"null","","html-keyboard-response","11","2939367","0.0-6.0-5.0","34","<p><img class= 'stimulus' src='images/baseline/Skijump 1.jpg'></img></p>","null","","1550962570430","","","","","","",""
"null","","html-keyboard-response","12","2939566","0.0-6.0-6.0","34","<p><img class= 'stimulus' src='images/baseline/field 2.jpg'></img></p>","null","","1550962570630","6","","","","","",""
"null","","html-keyboard-response","13","2939767","0.0-6.0-7.0","34","<p><img class= 'stimulus' src='images/baseline/landscape22.jpg'></img></p>","null","","1550962570831","","","","","","",""
"null","","html-keyboard-response","14","2939966","0.0-6.0-8.0","34","<p><img class= 'stimulus' src='images/baseline/04284v.jpg'></img></p>","null","","1550962571032","8","","","","","",""
"null","","html-keyboard-response","15","2940166","0.0-6.0-9.0","34","<p><img class= 'stimulus' src='images/baseline/03148v.jpg'></img></p>","null","","1550962571231","","","","","","",""
"null","","html-keyboard-response","16","2940367","0.0-6.0-10.0","34","<p><img class= 'stimulus' src='images/baseline/03045v.jpg'></img></p>","null","","1550962571432","","","","","","",""
"null","","html-keyboard-response","17","2940566","0.0-6.0-11.0","34","<p><img class= 'stimulus' src='images/baseline/landscape3.jpg'></img></p>","null","","1550962571633","","","","","","",""
"null","","html-keyboard-response","18","2940767","0.0-6.0-12.0","34","<p><img class= 'stimulus left-rotate' src='images/target/chicago-673558_640.jpg'></img></p>","null","","1550962571831","12","","","","","",""
"null","","html-keyboard-response","19","2940967","0.0-6.0-13.0","34","<p><img class= 'stimulus' src='images/baseline/Aletschgletscher-Eggishorn.jpg'></img></p>","null","","1550962572031","","","","","","",""
"null","","html-keyboard-response","20","2941168","0.0-6.0-14.0","34","<p><img class= 'stimulus' src='images/baseline/04085v.jpg'></img></p>","null","","1550962572231","14","","","","","",""
"null","","html-keyboard-response","21","2941367","0.0-6.0-15.0","34","<p><img class= 'stimulus' src='images/baseline/pexels-photo-459203.jpeg'></img></p>","null","","1550962572433","","","","","","",""
"null","","html-keyboard-response","22","2941567","0.0-6.0-16.0","34","<p><img class= 'stimulus' src='images/baseline/02982v.jpg'></img></p>","null","","1550962572631","","","","","","",""
"null","","html-keyboard-response","23","2941785","0.0-6.0-17.0","34","<p><img class= 'stimulus' src='images/baseline/04162v.jpg'></img></p>","null","","1550962572833","","","","","","",""
"11144.0999999973","","html-button-response","24","2953934","0.0-6.0-18.0","34","<div class = ""response_question"">WAS THE IMAGE ROTATED...</div>","","1","","","4","8","bas","left","practice","true"
"4661.700000000652","","html-button-response","25","2958597","0.0-6.0-0.1","34","","","0","","","","","","","",""
"null","","html-keyboard-response","26","2958783","0.0-6.0-1.1","34","<p><img class= 'stimulus' src='images/baseline/Skyscraper 1.jpg'></img></p>","null","","1550962589848","","","","","","",""
"null","","html-keyboard-response","27","2958984","0.0-6.0-2.1","34","<p><img class= 'stimulus' src='images/baseline/05247v.jpg'></img></p>","null","","1550962590048","","","","","","",""
"null","","html-keyboard-response","28","2959184","0.0-6.0-3.1","34","<p><img class= 'stimulus' src='images/baseline/Bahia_Onelli_Parque_Nacional_Los_Glaciares_Patagonia_Argentina_Luca_Galuzzi_2005.jpg'></img></p>","null","","1550962590247","","","","","","",""
"null","","html-keyboard-response","29","2959384","0.0-6.0-4.1","34","<p><img class= 'stimulus' src='images/baseline/05198v.jpg'></img></p>","null","","1550962590448","4","","","","","",""
"null","","html-keyboard-response","30","2959584","0.0-6.0-5.1","34","<p><img class= 'stimulus' src='images/baseline/farmhouse11.jpg'></img></p>","null","","1550962590649","","","","","","",""
"null","","html-keyboard-response","31","2959784","0.0-6.0-6.1","34","<p><img class= 'stimulus' src='images/baseline/pexels-photo-1287089.jpeg'></img></p>","null","","1550962590850","6","","","","","",""
"null","","html-keyboard-response","32","2959984","0.0-6.0-7.1","34","<p><img class= 'stimulus' src='images/baseline/04086v.jpg'></img></p>","null","","1550962591049","","","","","","",""
"null","","html-keyboard-response","33","2960184","0.0-6.0-8.1","34","<p><img class= 'stimulus left-rotate' src='images/target/oak-1913194_640.jpg'></img></p>","null","","1550962591248","8","","","","","",""
"null","","html-keyboard-response","34","2960384","0.0-6.0-9.1","34","<p><img class= 'stimulus' src='images/baseline/hills 1.jpg'></img></p>","null","","1550962591448","","","","","","",""
"null","","html-keyboard-response","35","2960585","0.0-6.0-10.1","34","<p><img class= 'stimulus' src='images/baseline/landscape36.jpg'></img></p>","null","","1550962591648","","","","","","",""
"null","","html-keyboard-response","36","2960786","0.0-6.0-11.1","34","<p><img class= 'stimulus' src='images/baseline/lake3.jpg'></img></p>","null","","1550962591849","","","","","","",""
"null","","html-keyboard-response","37","2960985","0.0-6.0-12.1","34","<p><img class= 'stimulus' src='images/baseline/05240v.jpg'></img></p>","null","","1550962592050","12","","","","","",""
"null","","html-keyboard-response","38","2961186","0.0-6.0-13.1","34","<p><img class= 'stimulus' src='images/baseline/pexels-photo-568236.jpeg'></img></p>","null","","1550962592249","","","","","","",""
"null","","html-keyboard-response","39","2961387","0.0-6.0-14.1","34","<p><img class= 'stimulus' src='images/baseline/flooded-bridge.jpg'></img></p>","null","","1550962592450","14","","","","","",""
"null","","html-keyboard-response","40","2961585","0.0-6.0-15.1","34","<p><img class= 'stimulus' src='images/baseline/pexels-photo-351264.jpeg'></img></p>","null","","1550962592650","","","","","","",""
"null","","html-keyboard-response","41","2961786","0.0-6.0-16.1","34","<p><img class= 'stimulus' src='images/baseline/hills 4.jpg'></img></p>","null","","1550962592851","","","","","","",""
"null","","html-keyboard-response","42","2962003","0.0-6.0-17.1","34","<p><img class= 'stimulus' src='images/baseline/Waterfall 1.jpg'></img></p>","null","","1550962593049","","","","","","",""
"3718.3000000002794","","html-button-response","43","2966726","0.0-6.0-18.1","34","<div class = ""response_question"">WAS THE IMAGE ROTATED...</div>","","0","","","6","2","bas","left","practice","true"
"2782.4000000003725","","html-button-response","44","2969509","0.0-6.0-0.2","34","","","0","","","","","","","",""
"null","","html-keyboard-response","45","2969684","0.0-6.0-1.2","34","<p><img class= 'stimulus' src='images/baseline/Linden,_paysage.jpg'></img></p>","null","","1550962600748","","","","","","",""
"null","","html-keyboard-response","46","2969884","0.0-6.0-2.2","34","<p><img class= 'stimulus' src='images/baseline/road.jpg'></img></p>","null","","1550962600948","","","","","","",""
"null","","html-keyboard-response","47","2970084","0.0-6.0-3.2","34","<p><img class= 'stimulus' src='images/baseline/Beach 2.jpg'></img></p>","null","","1550962601150","","","","","","",""
"null","","html-keyboard-response","48","2970284","0.0-6.0-4.2","34","<p><img class= 'stimulus' src='images/baseline/05189v.jpg'></img></p>","null","","1550962601349","4","","","","","",""
"null","","html-keyboard-response","49","2970485","0.0-6.0-5.2","34","<p><img class= 'stimulus' src='images/baseline/pexels-photo-1054289.jpeg'></img></p>","null","","1550962601548","","","","","","",""
"null","","html-keyboard-response","50","2970685","0.0-6.0-6.2","34","<p><img class= 'stimulus' src='images/baseline/landscape8.jpg'></img></p>","null","","1550962601748","6","","","","","",""
"null","","html-keyboard-response","51","2970883","0.0-6.0-7.2","34","<p><img class= 'stimulus' src='images/baseline/sun-through-winter-tree-branches1.jpg'></img></p>","null","","1550962601949","","","","","","",""
"null","","html-keyboard-response","52","2971084","0.0-6.0-8.2","34","<p><img class= 'stimulus' src='images/baseline/Beach 8.jpg'></img></p>","null","","1550962602149","8","","","","","",""
"null","","html-keyboard-response","53","2971285","0.0-6.0-9.2","34","<p><img class= 'stimulus' src='images/baseline/tennis-court-net-buried-in-snow.jpg'></img></p>","null","","1550962602349","","","","","","",""
"null","","html-keyboard-response","54","2971485","0.0-6.0-10.2","34","<p><img class= 'stimulus' src='images/baseline/landscape17.jpg'></img></p>","null","","1550962602549","","","","","","",""
"null","","html-keyboard-response","55","2971685","0.0-6.0-11.2","34","<p><img class= 'stimulus' src='images/baseline/building_at_national_conservation.jpg'></img></p>","null","","1550962602750","","","","","","",""
"null","","html-keyboard-response","56","2971884","0.0-6.0-12.2","34","<p><img class= 'stimulus' src='images/target/tree_1.jpg'></img></p>","null","","1550962602949","12","","","","","",""
"null","","html-keyboard-response","57","2972085","0.0-6.0-13.2","34","<p><img class= 'stimulus' src='images/baseline/04196v.jpg'></img></p>","null","","1550962603149","","","","","","",""
"null","","html-keyboard-response","58","2972284","0.0-6.0-14.2","34","<p><img class= 'stimulus' src='images/baseline/house6.jpg'></img></p>","null","","1550962603349","14","","","","","",""
"null","","html-keyboard-response","59","2972484","0.0-6.0-15.2","34","<p><img class= 'stimulus' src='images/baseline/farmhouse2.jpg'></img></p>","null","","1550962603550","","","","","","",""
"null","","html-keyboard-response","60","2972684","0.0-6.0-16.2","34","<p><img class= 'stimulus' src='images/baseline/landscape13.jpg'></img></p>","null","","1550962603748","","","","","","",""
"null","","html-keyboard-response","61","2972903","0.0-6.0-17.2","34","<p><img class= 'stimulus' src='images/baseline/house3.jpg'></img></p>","null","","1550962603949","","","","","","",""
"2963.7000000001863","","html-button-response","62","2976870","0.0-6.0-18.2","34","<div class = ""response_question"">WAS THE IMAGE ROTATED...</div>","","3","","","4","8","bas","right","practice","true"
"4270.000000000466","","html-button-response","63","2981132","0.0-6.0-0.3","34","","","0","","","","","","","",""
"null","","html-keyboard-response","64","2981308","0.0-6.0-1.3","34","<p><img class= 'stimulus' src='images/baseline/Lake 8.jpg'></img></p>","null","","1550962612372","","","","","","",""
"null","","html-keyboard-response","65","2981508","0.0-6.0-2.3","34","<p><img class= 'stimulus' src='images/baseline/landscape4.jpg'></img></p>","null","","1550962612572","","","","","","",""
"null","","html-keyboard-response","66","2981708","0.0-6.0-3.3","34","<p><img class= 'stimulus' src='images/baseline/05167v.jpg'></img></p>","null","","1550962612773","","","","","","",""
"null","","html-keyboard-response","67","2981907","0.0-6.0-4.3","34","<p><img class= 'stimulus' src='images/baseline/landscape14.jpg'></img></p>","null","","1550962612973","4","","","","","",""
"null","","html-keyboard-response","68","2982108","0.0-6.0-5.3","34","<p><img class= 'stimulus' src='images/baseline/Lake 9.jpg'></img></p>","null","","1550962613173","","","","","","",""
"null","","html-keyboard-response","69","2982308","0.0-6.0-6.3","34","<p><img class= 'stimulus' src='images/baseline/building16.jpg'></img></p>","null","","1550962613372","6","","","","","",""
"null","","html-keyboard-response","70","2982508","0.0-6.0-7.3","34","<p><img class= 'stimulus' src='images/baseline/autumn-in-red-rocks-park.jpg'></img></p>","null","","1550962613572","","","","","","",""
"null","","html-keyboard-response","71","2982710","0.0-6.0-8.3","34","<p><img class= 'stimulus' src='images/baseline/landscape11.jpg'></img></p>","null","","1550962613772","8","","","","","",""
"null","","html-keyboard-response","72","2982912","0.0-6.0-9.3","34","<p><img class= 'stimulus' src='images/baseline/Nature 1.jpg'></img></p>","null","","1550962613976","","","","","","",""
"null","","html-keyboard-response","73","2983109","0.0-6.0-10.3","34","<p><img class= 'stimulus' src='images/baseline/04014v.jpg'></img></p>","null","","1550962614175","","","","","","",""
"null","","html-keyboard-response","74","2983308","0.0-6.0-11.3","34","<p><img class= 'stimulus' src='images/baseline/farmhouse7.jpg'></img></p>","null","","1550962614374","","","","","","",""
"null","","html-keyboard-response","75","2983509","0.0-6.0-12.3","34","<p><img class= 'stimulus' src='images/baseline/Grass 6.jpg'></img></p>","null","","1550962614573","12","","","","","",""
"null","","html-keyboard-response","76","2983709","0.0-6.0-13.3","34","<p><img class= 'stimulus' src='images/baseline/04064v.jpg'></img></p>","null","","1550962614773","","","","","","",""
"null","","html-keyboard-response","77","2983909","0.0-6.0-14.3","34","<p><img class= 'stimulus left-rotate' src='images/target/building4.jpg'></img></p>","null","","1550962614973","14","","","","","",""
"null","","html-keyboard-response","78","2984108","0.0-6.0-15.3","34","<p><img class= 'stimulus' src='images/baseline/02988v.jpg'></img></p>","null","","1550962615173","","","","","","",""
"null","","html-keyboard-response","79","2984308","0.0-6.0-16.3","34","<p><img class= 'stimulus' src='images/baseline/Lake 13.jpg'></img></p>","null","","1550962615373","","","","","","",""
"null","","html-keyboard-response","80","2984525","0.0-6.0-17.3","34","<p><img class= 'stimulus' src='images/baseline/02971v.jpg'></img></p>","null","","1550962615572","","","","","","",""
"1554.700000000652","","html-button-response","81","2987084","0.0-6.0-18.3","34","<div class = ""response_question"">WAS THE IMAGE ROTATED...</div>","","0","","","6","8","bas","left","practice","true"
"2822.799999997951","","html-button-response","82","2989908","0.0-6.0-0.4","34","","","0","","","","","","","",""
"null","","html-keyboard-response","83","2990041","0.0-6.0-1.4","34","<p><img class= 'stimulus' src='images/baseline/town-square-in-wroclaw-1539098440MZy.jpg'></img></p>","null","","1550962621155","","","","","","",""
"null","","html-keyboard-response","84","2990190","0.0-6.0-2.4","34","<p><img class= 'stimulus' src='images/baseline/pexels-photo-1837621.jpeg'></img></p>","null","","1550962621307","","","","","","",""
"null","","html-keyboard-response","85","2990340","0.0-6.0-3.4","34","<p><img class= 'stimulus' src='images/baseline/valley 2.jpg'></img></p>","null","","1550962621455","","","","","","",""
"null","","html-keyboard-response","86","2990490","0.0-6.0-4.4","34","<p><img class= 'stimulus' src='images/baseline/Lake 3.jpg'></img></p>","null","","1550962621605","4","","","","","",""
"null","","html-keyboard-response","87","2990641","0.0-6.0-5.4","34","<p><img class= 'stimulus' src='images/baseline/05292v.jpg'></img></p>","null","","1550962621754","","","","","","",""
"null","","html-keyboard-response","88","2990791","0.0-6.0-6.4","34","<p><img class= 'stimulus' src='images/baseline/Path 1.jpg'></img></p>","null","","1550962621905","6","","","","","",""
"null","","html-keyboard-response","89","2990940","0.0-6.0-7.4","34","<p><img class= 'stimulus' src='images/baseline/pexels-photo-541101.jpeg'></img></p>","null","","1550962622055","","","","","","",""
"null","","html-keyboard-response","90","2991090","0.0-6.0-8.4","34","<p><img class= 'stimulus' src='images/baseline/landscape29.jpg'></img></p>","null","","1550962622205","8","","","","","",""
"null","","html-keyboard-response","91","2991240","0.0-6.0-9.4","34","<p><img class= 'stimulus' src='images/baseline/red rocks from afar.jpg'></img></p>","null","","1550962622356","","","","","","",""
"null","","html-keyboard-response","92","2991390","0.0-6.0-10.4","34","<p><img class= 'stimulus' src='images/baseline/building12.jpg'></img></p>","null","","1550962622505","","","","","","",""
"null","","html-keyboard-response","93","2991541","0.0-6.0-11.4","34","<p><img class= 'stimulus' src='images/baseline/building5.jpg'></img></p>","null","","1550962622654","","","","","","",""
"null","","html-keyboard-response","94","2991691","0.0-6.0-12.4","34","<p><img class= 'stimulus' src='images/baseline/02960v.jpg'></img></p>","null","","1550962622805","12","","","","","",""
"null","","html-keyboard-response","95","2991839","0.0-6.0-13.4","34","<p><img class= 'stimulus' src='images/baseline/Dirt 2.jpg'></img></p>","null","","1550962622955","","","","","","",""
"null","","html-keyboard-response","96","2991990","0.0-6.0-14.4","34","<p><img class= 'stimulus' src='images/target/Tree-Landscape-Winter-Nature-Winter-Trees-Snow-2117951.jpg'></img></p>","null","","1550962623105","14","","","","","",""
"null","","html-keyboard-response","97","2992140","0.0-6.0-15.4","34","<p><img class= 'stimulus' src='images/baseline/landscape34.jpg'></img></p>","null","","1550962623255","","","","","","",""
"null","","html-keyboard-response","98","2992290","0.0-6.0-16.4","34","<p><img class= 'stimulus' src='images/baseline/Road 1.jpg'></img></p>","null","","1550962623405","","","","","","",""
"null","","html-keyboard-response","99","2992457","0.0-6.0-17.4","34","<p><img class= 'stimulus' src='images/baseline/04300v.jpg'></img></p>","null","","1550962623554","","","","","","",""
"2366.2000000001863","","html-button-response","100","2995829","0.0-6.0-18.4","34","<div class = ""response_question"">WAS THE IMAGE ROTATED...</div>","","3","","","6","8","bas","right","practice","true"
"3406.199999997858","","html-button-response","101","2999236","0.0-6.0-0.5","34","","","0","","","","","","","",""
"null","","html-keyboard-response","102","2999374","0.0-6.0-1.5","34","<p><img class= 'stimulus' src='images/baseline/farmhouse3.jpg'></img></p>","null","","1550962630488","","","","","","",""
"null","","html-keyboard-response","103","2999523","0.0-6.0-2.5","34","<p><img class= 'stimulus' src='images/baseline/03041v.jpg'></img></p>","null","","1550962630639","","","","","","",""
"null","","html-keyboard-response","104","2999674","0.0-6.0-3.5","34","<p><img class= 'stimulus' src='images/baseline/building9.jpg'></img></p>","null","","1550962630787","","","","","","",""
"null","","html-keyboard-response","105","2999823","0.0-6.0-4.5","34","<p><img class= 'stimulus' src='images/baseline/4k-wallpaper-agriculture-clouds-842711.jpg'></img></p>","null","","1550962630937","4","","","","","",""
"null","","html-keyboard-response","106","2999973","0.0-6.0-5.5","34","<p><img class= 'stimulus' src='images/baseline/agriculture-cereal-clouds-175389.jpg'></img></p>","null","","1550962631087","","","","","","",""
"null","","html-keyboard-response","107","3000123","0.0-6.0-6.5","34","<p><img class= 'stimulus' src='images/target/tree-197536_640.jpg'></img></p>","null","","1550962631238","6","","","","","",""
"null","","html-keyboard-response","108","3000273","0.0-6.0-7.5","34","<p><img class= 'stimulus' src='images/baseline/Street 4.jpg'></img></p>","null","","1550962631387","","","","","","",""
"null","","html-keyboard-response","109","3000423","0.0-6.0-8.5","34","<p><img class= 'stimulus' src='images/baseline/04063v.jpg'></img></p>","null","","1550962631538","8","","","","","",""
"null","","html-keyboard-response","110","3000573","0.0-6.0-9.5","34","<p><img class= 'stimulus' src='images/baseline/02945v.jpg'></img></p>","null","","1550962631687","","","","","","",""
"null","","html-keyboard-response","111","3000723","0.0-6.0-10.5","34","<p><img class= 'stimulus' src='images/baseline/pexels-photo-1048039.jpeg'></img></p>","null","","1550962631838","","","","","","",""
"null","","html-keyboard-response","112","3000873","0.0-6.0-11.5","34","<p><img class= 'stimulus' src='images/baseline/farmhouse6.jpg'></img></p>","null","","1550962631988","","","","","","",""
"null","","html-keyboard-response","113","3001023","0.0-6.0-12.5","34","<p><img class= 'stimulus' src='images/baseline/architecture-1314416_1920.jpg'></img></p>","null","","1550962632138","12","","","","","",""
"null","","html-keyboard-response","114","3001173","0.0-6.0-13.5","34","<p><img class= 'stimulus' src='images/baseline/landscape33.jpg'></img></p>","null","","1550962632289","","","","","","",""
"null","","html-keyboard-response","115","3001323","0.0-6.0-14.5","34","<p><img class= 'stimulus' src='images/baseline/pexels-photo-210617.jpeg'></img></p>","null","","1550962632438","14","","","","","",""
"null","","html-keyboard-response","116","3001473","0.0-6.0-15.5","34","<p><img class= 'stimulus' src='images/baseline/vintage-art-deco-storefront.jpg'></img></p>","null","","1550962632588","","","","","","",""
"null","","html-keyboard-response","117","3001624","0.0-6.0-16.5","34","<p><img class= 'stimulus' src='images/baseline/house10.jpg'></img></p>","null","","1550962632739","","","","","","",""
"null","","html-keyboard-response","118","3001791","0.0-6.0-17.5","34","<p><img class= 'stimulus' src='images/baseline/landscape1.jpg'></img></p>","null","","1550962632888","","","","","","",""
"1699.3000000002794","","html-button-response","119","3004508","0.0-6.0-18.5","34","<div class = ""response_question"">WAS THE IMAGE ROTATED...</div>","","3","","","4","2","bas","right","practice","true"
"4638.399999999907","","html-button-response","120","3009148","0.0-6.0-0.6","34","","","0","","","","","","","",""
"null","","html-keyboard-response","121","3009273","0.0-6.0-1.6","34","<p><img class= 'stimulus' src='images/baseline/04021v.jpg'></img></p>","null","","1550962640388","","","","","","",""
"null","","html-keyboard-response","122","3009423","0.0-6.0-2.6","34","<p><img class= 'stimulus' src='images/baseline/landscape40.jpg'></img></p>","null","","1550962640537","","","","","","",""
"null","","html-keyboard-response","123","3009574","0.0-6.0-3.6","34","<p><img class= 'stimulus' src='images/baseline/farmhouse9.jpg'></img></p>","null","","1550962640687","","","","","","",""
"null","","html-keyboard-response","124","3009723","0.0-6.0-4.6","34","<p><img class= 'stimulus' src='images/baseline/Sunset 4.jpg'></img></p>","null","","1550962640837","4","","","","","",""
"null","","html-keyboard-response","125","3009874","0.0-6.0-5.6","34","<p><img class= 'stimulus' src='images/baseline/04010v.jpg'></img></p>","null","","1550962640987","","","","","","",""
"null","","html-keyboard-response","126","3010023","0.0-6.0-6.6","34","<p><img class= 'stimulus left-rotate' src='images/target/building15.jpg'></img></p>","null","","1550962641139","6","","","","","",""
"null","","html-keyboard-response","127","3010173","0.0-6.0-7.6","34","<p><img class= 'stimulus' src='images/baseline/03201v.jpg'></img></p>","null","","1550962641288","","","","","","",""
"null","","html-keyboard-response","128","3010324","0.0-6.0-8.6","34","<p><img class= 'stimulus' src='images/baseline/05139v.jpg'></img></p>","null","","1550962641438","8","","","","","",""
"null","","html-keyboard-response","129","3010473","0.0-6.0-9.6","34","<p><img class= 'stimulus' src='images/baseline/Lake 5.jpg'></img></p>","null","","1550962641587","","","","","","",""
"null","","html-keyboard-response","130","3010623","0.0-6.0-10.6","34","<p><img class= 'stimulus' src='images/baseline/pexels-photo-59321.jpeg'></img></p>","null","","1550962641739","","","","","","",""
"null","","html-keyboard-response","131","3010773","0.0-6.0-11.6","34","<p><img class= 'stimulus' src='images/baseline/road 1(1).jpg'></img></p>","null","","1550962641889","","","","","","",""
"null","","html-keyboard-response","132","3010923","0.0-6.0-12.6","34","<p><img class= 'stimulus' src='images/baseline/Happy pose 3.jpg'></img></p>","null","","1550962642037","12","","","","","",""
"null","","html-keyboard-response","133","3011074","0.0-6.0-13.6","34","<p><img class= 'stimulus' src='images/baseline/05158v.jpg'></img></p>","null","","1550962642188","","","","","","",""
"null","","html-keyboard-response","134","3011224","0.0-6.0-14.6","34","<p><img class= 'stimulus' src='images/baseline/Lake 4.jpg'></img></p>","null","","1550962642337","14","","","","","",""
"null","","html-keyboard-response","135","3011373","0.0-6.0-15.6","34","<p><img class= 'stimulus' src='images/baseline/03056v.jpg'></img></p>","null","","1550962642489","","","","","","",""
"null","","html-keyboard-response","136","3011523","0.0-6.0-16.6","34","<p><img class= 'stimulus' src='images/baseline/03112v.jpg'></img></p>","null","","1550962642639","","","","","","",""
"null","","html-keyboard-response","137","3011691","0.0-6.0-17.6","34","<p><img class= 'stimulus' src='images/baseline/Lake 14.jpg'></img></p>","null","","1550962642788","","","","","","",""
"1213.7999999974854","","html-button-response","138","3013908","0.0-6.0-18.6","34","<div class = ""response_question"">WAS THE IMAGE ROTATED...</div>","","0","","","4","2","bas","left","practice","true"
"2541.9999999976717","","html-button-response","139","3016452","0.0-6.0-0.7","34","","","0","","","","","","","",""
"null","","html-keyboard-response","140","3016573","0.0-6.0-1.7","34","<p><img class= 'stimulus' src='images/baseline/house7.jpg'></img></p>","null","","1550962647688","","","","","","",""
"null","","html-keyboard-response","141","3016724","0.0-6.0-2.7","34","<p><img class= 'stimulus' src='images/baseline/landscape23.jpg'></img></p>","null","","1550962647837","","","","","","",""
"null","","html-keyboard-response","142","3016873","0.0-6.0-3.7","34","<p><img class= 'stimulus' src='images/baseline/05280v.jpg'></img></p>","null","","1550962647987","","","","","","",""
"null","","html-keyboard-response","143","3017023","0.0-6.0-4.7","34","<p><img class= 'stimulus' src='images/baseline/seoul-410266_1920.jpg'></img></p>","null","","1550962648137","4","","","","","",""
"null","","html-keyboard-response","144","3017174","0.0-6.0-5.7","34","<p><img class= 'stimulus' src='images/baseline/Sailing 3.jpg'></img></p>","null","","1550962648287","","","","","","",""
"null","","html-keyboard-response","145","3017324","0.0-6.0-6.7","34","<p><img class= 'stimulus' src='images/baseline/Street 3.jpg'></img></p>","null","","1550962648439","6","","","","","",""
"null","","html-keyboard-response","146","3017473","0.0-6.0-7.7","34","<p><img class= 'stimulus' src='images/baseline/Sunset 5.jpg'></img></p>","null","","1550962648588","","","","","","",""
"null","","html-keyboard-response","147","3017624","0.0-6.0-8.7","34","<p><img class= 'stimulus' src='images/target/building2.jpg'></img></p>","null","","1550962648739","8","","","","","",""
"null","","html-keyboard-response","148","3017773","0.0-6.0-9.7","34","<p><img class= 'stimulus' src='images/baseline/landscape16.jpg'></img></p>","null","","1550962648888","","","","","","",""
"null","","html-keyboard-response","149","3017924","0.0-6.0-10.7","34","<p><img class= 'stimulus' src='images/baseline/05145v.jpg'></img></p>","null","","1550962649038","","","","","","",""
"null","","html-keyboard-response","150","3018073","0.0-6.0-11.7","34","<p><img class= 'stimulus' src='images/baseline/landscape39.jpg'></img></p>","null","","1550962649187","","","","","","",""
"null","","html-keyboard-response","151","3018224","0.0-6.0-12.7","34","<p><img class= 'stimulus' src='images/baseline/Paysage_karabagh_02.jpg'></img></p>","null","","1550962649337","12","","","","","",""
"null","","html-keyboard-response","152","3018374","0.0-6.0-13.7","34","<p><img class= 'stimulus' src='images/baseline/04040v.jpg'></img></p>","null","","1550962649488","","","","","","",""
"null","","html-keyboard-response","153","3018522","0.0-6.0-14.7","34","<p><img class= 'stimulus' src='images/baseline/house2.jpg'></img></p>","null","","1550962649637","14","","","","","",""
"null","","html-keyboard-response","154","3018674","0.0-6.0-15.7","34","<p><img class= 'stimulus' src='images/baseline/sunny-landscape-with-dry-brush-and-mountain-background.jpg'></img></p>","null","","1550962649788","","","","","","",""
"null","","html-keyboard-response","155","3018823","0.0-6.0-16.7","34","<p><img class= 'stimulus' src='images/baseline/pexels-photo-259280.jpeg'></img></p>","null","","1550962649938","","","","","","",""
"null","","html-keyboard-response","156","3018991","0.0-6.0-17.7","34","<p><img class= 'stimulus' src='images/baseline/river 1.jpg'></img></p>","null","","1550962650087","","","","","","",""
"1462.200000002049","","html-button-response","157","3021460","0.0-6.0-18.7","34","<div class = ""response_question"">WAS THE IMAGE ROTATED...</div>","","3","","","6","2","bas","right","practice","true"
"4982.299999999814","","html-button-response","158","3026444","0.0-6.0-0.8","34","","","0","","","","","","","",""
"null","","html-keyboard-response","159","3026523","0.0-6.0-1.8","34","<p><img class= 'stimulus' src='images/baseline/05242v.jpg'></img></p>","null","","1550962657688","","","","","","",""
"null","","html-keyboard-response","160","3026624","0.0-6.0-2.8","34","<p><img class= 'stimulus' src='images/baseline/05203v.jpg'></img></p>","null","","1550962657787","","","","","","",""
"null","","html-keyboard-response","161","3026723","0.0-6.0-3.8","34","<p><img class= 'stimulus' src='images/baseline/99_-_Machu_Picchu_-_Juin_2009.edit3.jpg'></img></p>","null","","1550962657888","","","","","","",""
"null","","html-keyboard-response","162","3026823","0.0-6.0-4.8","34","<p><img class= 'stimulus' src='images/baseline/pexels-photo-894312.jpeg'></img></p>","null","","1550962657988","4","","","","","",""
"null","","html-keyboard-response","163","3026924","0.0-6.0-5.8","34","<p><img class= 'stimulus' src='images/baseline/04201v.jpg'></img></p>","null","","1550962658088","","","","","","",""
"null","","html-keyboard-response","164","3027024","0.0-6.0-6.8","34","<p><img class= 'stimulus left-rotate' src='images/target/pexels-photo-602607.jpeg'></img></p>","null","","1550962658188","6","","","","","",""
"null","","html-keyboard-response","165","3027124","0.0-6.0-7.8","34","<p><img class= 'stimulus' src='images/baseline/04193v.jpg'></img></p>","null","","1550962658289","","","","","","",""
"null","","html-keyboard-response","166","3027224","0.0-6.0-8.8","34","<p><img class= 'stimulus' src='images/baseline/pexels-photo-280222.jpeg'></img></p>","null","","1550962658388","8","","","","","",""
"null","","html-keyboard-response","167","3027323","0.0-6.0-9.8","34","<p><img class= 'stimulus' src='images/baseline/05179v.jpg'></img></p>","null","","1550962658489","","","","","","",""
"null","","html-keyboard-response","168","3027423","0.0-6.0-10.8","34","<p><img class= 'stimulus' src='images/baseline/03098v.jpg'></img></p>","null","","1550962658588","","","","","","",""
"null","","html-keyboard-response","169","3027523","0.0-6.0-11.8","34","<p><img class= 'stimulus' src='images/baseline/house11.jpg'></img></p>","null","","1550962658688","","","","","","",""
"null","","html-keyboard-response","170","3027624","0.0-6.0-12.8","34","<p><img class= 'stimulus' src='images/baseline/pexels-photo-221125.jpeg'></img></p>","null","","1550962658788","12","","","","","",""
"null","","html-keyboard-response","171","3027723","0.0-6.0-13.8","34","<p><img class= 'stimulus' src='images/baseline/building3.jpg'></img></p>","null","","1550962658888","","","","","","",""
"null","","html-keyboard-response","172","3027823","0.0-6.0-14.8","34","<p><img class= 'stimulus' src='images/baseline/geese-flying-over-lake-at-dusk.jpg'></img></p>","null","","1550962658988","14","","","","","",""
"null","","html-keyboard-response","173","3027924","0.0-6.0-15.8","34","<p><img class= 'stimulus' src='images/baseline/04130v.jpg'></img></p>","null","","1550962659088","","","","","","",""
"null","","html-keyboard-response","174","3028024","0.0-6.0-16.8","34","<p><img class= 'stimulus' src='images/baseline/landscape15.jpg'></img></p>","null","","1550962659188","","","","","","",""
"null","","html-keyboard-response","175","3028140","0.0-6.0-17.8","34","<p><img class= 'stimulus' src='images/baseline/autumn-landscape-with-lake-fall-trees-mountains.jpg'></img></p>","null","","1550962659288","","","","","","",""
"1661.1000000010245","","html-button-response","176","3030804","0.0-6.0-18.8","34","<div class = ""response_question"">WAS THE IMAGE ROTATED...</div>","","0","","","4","2","bas","left","practice","true"
"5574.299999996554","","html-button-response","177","3036380","0.0-6.0-0.9","34","","","0","","","","","","","",""
"null","","html-keyboard-response","178","3036457","0.0-6.0-1.9","34","<p><img class= 'stimulus' src='images/baseline/valley 1.jpg'></img></p>","null","","1550962667621","","","","","","",""
"null","","html-keyboard-response","179","3036558","0.0-6.0-2.9","34","<p><img class= 'stimulus' src='images/baseline/05186v.jpg'></img></p>","null","","1550962667722","","","","","","",""
"null","","html-keyboard-response","180","3036657","0.0-6.0-3.9","34","<p><img class= 'stimulus' src='images/baseline/04062v.jpg'></img></p>","null","","1550962667821","","","","","","",""
"null","","html-keyboard-response","181","3036756","0.0-6.0-4.9","34","<p><img class= 'stimulus' src='images/baseline/field 4.jpg'></img></p>","null","","1550962667923","4","","","","","",""
"null","","html-keyboard-response","182","3036858","0.0-6.0-5.9","34","<p><img class= 'stimulus' src='images/baseline/03204v.jpg'></img></p>","null","","1550962668021","","","","","","",""
"null","","html-keyboard-response","183","3036958","0.0-6.0-6.9","34","<p><img class= 'stimulus' src='images/baseline/landscape31.jpg'></img></p>","null","","1550962668121","6","","","","","",""
"null","","html-keyboard-response","184","3037057","0.0-6.0-7.9","34","<p><img class= 'stimulus' src='images/baseline/05255v.jpg'></img></p>","null","","1550962668223","","","","","","",""
"null","","html-keyboard-response","185","3037157","0.0-6.0-8.9","34","<p><img class= 'stimulus' src='images/baseline/04222v.jpg'></img></p>","null","","1550962668322","8","","","","","",""
"null","","html-keyboard-response","186","3037257","0.0-6.0-9.9","34","<p><img class= 'stimulus' src='images/baseline/lookout_tower.jpg'></img></p>","null","","1550962668421","","","","","","",""
"null","","html-keyboard-response","187","3037357","0.0-6.0-10.9","34","<p><img class= 'stimulus' src='images/baseline/03114v.jpg'></img></p>","null","","1550962668521","","","","","","",""
"null","","html-keyboard-response","188","3037457","0.0-6.0-11.9","34","<p><img class= 'stimulus' src='images/baseline/trees 23.jpg'></img></p>","null","","1550962668621","","","","","","",""
"null","","html-keyboard-response","189","3037557","0.0-6.0-12.9","34","<p><img class= 'stimulus' src='images/target/buildin.png'></img></p>","null","","1550962668722","12","","","","","",""
"null","","html-keyboard-response","190","3037658","0.0-6.0-13.9","34","<p><img class= 'stimulus' src='images/baseline/architecture_modern_architecture_852928.jpg'></img></p>","null","","1550962668822","","","","","","",""
"null","","html-keyboard-response","191","3037758","0.0-6.0-14.9","34","<p><img class= 'stimulus' src='images/baseline/02962v.jpg'></img></p>","null","","1550962668921","14","","","","","",""
"null","","html-keyboard-response","192","3037856","0.0-6.0-15.9","34","<p><img class= 'stimulus' src='images/baseline/pexels-photo-808465.jpeg'></img></p>","null","","1550962669021","","","","","","",""
"null","","html-keyboard-response","193","3037957","0.0-6.0-16.9","34","<p><img class= 'stimulus' src='images/baseline/Sky 1.jpg'></img></p>","null","","1550962669121","","","","","","",""
"null","","html-keyboard-response","194","3038073","0.0-6.0-17.9","34","<p><img class= 'stimulus' src='images/baseline/farmhouse1.jpg'></img></p>","null","","1550962669221","","","","","","",""
"1309.3000000012107","","html-button-response","195","3040388","0.0-6.0-18.9","34","<div class = ""response_question"">WAS THE IMAGE ROTATED...</div>","","3","","","4","8","bas","right","practice","true"
"1925.3000000026077","","html-button-response","196","3042311","0.0-6.0-0.10","34","","","0","","","","","","","",""
"null","","html-keyboard-response","197","3042385","0.0-6.0-1.10","34","<p><img class= 'stimulus' src='images/baseline/04031v.jpg'></img></p>","null","","1550962673550","","","","","","",""
"null","","html-keyboard-response","198","3042486","0.0-6.0-2.10","34","<p><img class= 'stimulus' src='images/baseline/05303v.jpg'></img></p>","null","","1550962673649","","","","","","",""
"null","","html-keyboard-response","199","3042585","0.0-6.0-3.10","34","<p><img class= 'stimulus' src='images/baseline/sunset-over-the-lake.jpg'></img></p>","null","","1550962673750","","","","","","",""
"null","","html-keyboard-response","200","3042685","0.0-6.0-4.10","34","<p><img class= 'stimulus' src='images/baseline/03162v.jpg'></img></p>","null","","1550962673849","4","","","","","",""
"null","","html-keyboard-response","201","3042786","0.0-6.0-5.10","34","<p><img class= 'stimulus' src='images/baseline/03180v.jpg'></img></p>","null","","1550962673949","","","","","","",""
"null","","html-keyboard-response","202","3042886","0.0-6.0-6.10","34","<p><img class= 'stimulus' src='images/baseline/hiking-trail.jpg'></img></p>","null","","1550962674051","6","","","","","",""
"null","","html-keyboard-response","203","3042986","0.0-6.0-7.10","34","<p><img class= 'stimulus' src='images/baseline/landscape35.jpg'></img></p>","null","","1550962674150","","","","","","",""
"null","","html-keyboard-response","204","3043085","0.0-6.0-8.10","34","<p><img class= 'stimulus' src='images/baseline/Sunset 3.jpg'></img></p>","null","","1550962674250","8","","","","","",""
"null","","html-keyboard-response","205","3043187","0.0-6.0-9.10","34","<p><img class= 'stimulus' src='images/baseline/Street 1.jpg'></img></p>","null","","1550962674350","","","","","","",""
"null","","html-keyboard-response","206","3043286","0.0-6.0-10.10","34","<p><img class= 'stimulus' src='images/baseline/dirt-road-or-trail-through-park.jpg'></img></p>","null","","1550962674451","","","","","","",""
"null","","html-keyboard-response","207","3043386","0.0-6.0-11.10","34","<p><img class= 'stimulus' src='images/baseline/Sidewalk 4.jpg'></img></p>","null","","1550962674550","","","","","","",""
"null","","html-keyboard-response","208","3043486","0.0-6.0-12.10","34","<p><img class= 'stimulus' src='images/baseline/Dock 1.jpg'></img></p>","null","","1550962674650","12","","","","","",""
"null","","html-keyboard-response","209","3043585","0.0-6.0-13.10","34","<p><img class= 'stimulus' src='images/baseline/Beach 3.jpg'></img></p>","null","","1550962674750","","","","","","",""
"null","","html-keyboard-response","210","3043686","0.0-6.0-14.10","34","<p><img class= 'stimulus left-rotate' src='images/target/buildin2.png'></img></p>","null","","1550962674851","14","","","","","",""
"null","","html-keyboard-response","211","3043786","0.0-6.0-15.10","34","<p><img class= 'stimulus' src='images/baseline/02977v.jpg'></img></p>","null","","1550962674950","","","","","","",""
"null","","html-keyboard-response","212","3043886","0.0-6.0-16.10","34","<p><img class= 'stimulus' src='images/baseline/Street 5.jpg'></img></p>","null","","1550962675050","","","","","","",""
"null","","html-keyboard-response","213","3044003","0.0-6.0-17.10","34","<p><img class= 'stimulus' src='images/baseline/landscape6.jpg'></img></p>","null","","1550962675150","","","","","","",""
"1987.4999999995343","","html-button-response","214","3047007","0.0-6.0-18.10","34","<div class = ""response_question"">WAS THE IMAGE ROTATED...</div>","","0","","","6","8","bas","left","practice","true"
"1790.6000000005588","","html-button-response","215","3048800","0.0-6.0-0.11","34","","","0","","","","","","","",""
"null","","html-keyboard-response","216","3048885","0.0-6.0-1.11","34","<p><img class= 'stimulus' src='images/baseline/agriculture-bright-clouds-440731.jpg'></img></p>","null","","1550962680052","","","","","","",""
"null","","html-keyboard-response","217","3048986","0.0-6.0-2.11","34","<p><img class= 'stimulus' src='images/baseline/pexels-photo-440731.jpeg'></img></p>","null","","1550962680151","","","","","","",""
"null","","html-keyboard-response","218","3049086","0.0-6.0-3.11","34","<p><img class= 'stimulus' src='images/baseline/05161v.jpg'></img></p>","null","","1550962680250","","","","","","",""
"null","","html-keyboard-response","219","3049187","0.0-6.0-4.11","34","<p><img class= 'stimulus' src='images/baseline/03075v.jpg'></img></p>","null","","1550962680349","4","","","","","",""
"null","","html-keyboard-response","220","3049286","0.0-6.0-5.11","34","<p><img class= 'stimulus' src='images/baseline/03063v.jpg'></img></p>","null","","1550962680450","","","","","","",""
"null","","html-keyboard-response","221","3049386","0.0-6.0-6.11","34","<p><img class= 'stimulus' src='images/baseline/04117v.jpg'></img></p>","null","","1550962680550","6","","","","","",""
"null","","html-keyboard-response","222","3049486","0.0-6.0-7.11","34","<p><img class= 'stimulus' src='images/baseline/03220v.jpg'></img></p>","null","","1550962680650","","","","","","",""
"null","","html-keyboard-response","223","3049586","0.0-6.0-8.11","34","<p><img class= 'stimulus' src='images/target/buildin5.jpg'></img></p>","null","","1550962680750","8","","","","","",""
"null","","html-keyboard-response","224","3049686","0.0-6.0-9.11","34","<p><img class= 'stimulus' src='images/baseline/church-silhouette-8712964986014Kb.jpg'></img></p>","null","","1550962680850","","","","","","",""
"null","","html-keyboard-response","225","3049786","0.0-6.0-10.11","34","<p><img class= 'stimulus' src='images/baseline/chicago-skyline-at-night-1476869511p8U.jpg'></img></p>","null","","1550962680951","","","","","","",""
"null","","html-keyboard-response","226","3049886","0.0-6.0-11.11","34","<p><img class= 'stimulus' src='images/baseline/building6.jpg'></img></p>","null","","1550962681050","","","","","","",""
"null","","html-keyboard-response","227","3049986","0.0-6.0-12.11","34","<p><img class= 'stimulus' src='images/baseline/field 3.jpg'></img></p>","null","","1550962681151","12","","","","","",""
"null","","html-keyboard-response","228","3050085","0.0-6.0-13.11","34","<p><img class= 'stimulus' src='images/baseline/grand-teton-mountains.jpg'></img></p>","null","","1550962681250","","","","","","",""
"null","","html-keyboard-response","229","3050186","0.0-6.0-14.11","34","<p><img class= 'stimulus' src='images/baseline/Bridge 1.jpg'></img></p>","null","","1550962681350","14","","","","","",""
"null","","html-keyboard-response","230","3050287","0.0-6.0-15.11","34","<p><img class= 'stimulus' src='images/baseline/Desert_View_Indian_Wells.jpg'></img></p>","null","","1550962681450","","","","","","",""
"null","","html-keyboard-response","231","3050387","0.0-6.0-16.11","34","<p><img class= 'stimulus' src='images/baseline/meadow-with-mountain-in-background.jpg'></img></p>","null","","1550962681550","","","","","","",""
"null","","html-keyboard-response","232","3050502","0.0-6.0-17.11","34","<p><img class= 'stimulus' src='images/baseline/building2.jpg'></img></p>","null","","1550962681651","","","","","","",""
"1146.9000000031665","","html-button-response","233","3052656","0.0-6.0-18.11","34","<div class = ""response_question"">WAS THE IMAGE ROTATED...</div>","","3","","","6","2","bas","right","practice","true"
"1798.3999999994412","","html-button-response","234","3054456","0.0-6.0-0.12","34","","","0","","","","","","","",""
"null","","html-keyboard-response","235","3054535","0.0-6.0-1.12","34","<p><img class= 'stimulus' src='images/baseline/building4.jpg'></img></p>","null","","1550962685701","","","","","","",""
"null","","html-keyboard-response","236","3054636","0.0-6.0-2.12","34","<p><img class= 'stimulus' src='images/baseline/04098v.jpg'></img></p>","null","","1550962685800","","","","","","",""
"null","","html-keyboard-response","237","3054736","0.0-6.0-3.12","34","<p><img class= 'stimulus' src='images/baseline/pexels-photo-427676.jpeg'></img></p>","null","","1550962685900","","","","","","",""
"null","","html-keyboard-response","238","3054835","0.0-6.0-4.12","34","<p><img class= 'stimulus' src='images/baseline/cranes 1.jpg'></img></p>","null","","1550962686001","4","","","","","",""
"null","","html-keyboard-response","239","3054935","0.0-6.0-5.12","34","<p><img class= 'stimulus' src='images/baseline/landscape12.jpg'></img></p>","null","","1550962686100","","","","","","",""
"null","","html-keyboard-response","240","3055036","0.0-6.0-6.12","34","<p><img class= 'stimulus' src='images/baseline/Street 2.jpg'></img></p>","null","","1550962686200","6","","","","","",""
"null","","html-keyboard-response","241","3055136","0.0-6.0-7.12","34","<p><img class= 'stimulus' src='images/baseline/05279v.jpg'></img></p>","null","","1550962686300","","","","","","",""
"null","","html-keyboard-response","242","3055236","0.0-6.0-8.12","34","<p><img class= 'stimulus left-rotate' src='images/target/transamerica-pyramid-530061_640.jpg'></img></p>","null","","1550962686400","8","","","","","",""
"null","","html-keyboard-response","243","3055335","0.0-6.0-9.12","34","<p><img class= 'stimulus' src='images/baseline/landscape7.jpg'></img></p>","null","","1550962686500","","","","","","",""
"null","","html-keyboard-response","244","3055437","0.0-6.0-10.12","34","<p><img class= 'stimulus' src='images/baseline/Lake 16.jpg'></img></p>","null","","1550962686601","","","","","","",""
"null","","html-keyboard-response","245","3055536","0.0-6.0-11.12","34","<p><img class= 'stimulus' src='images/baseline/landscape37.jpg'></img></p>","null","","1550962686701","","","","","","",""
"null","","html-keyboard-response","246","3055635","0.0-6.0-12.12","34","<p><img class= 'stimulus' src='images/baseline/hills 3.jpg'></img></p>","null","","1550962686800","12","","","","","",""
"null","","html-keyboard-response","247","3055736","0.0-6.0-13.12","34","<p><img class= 'stimulus' src='images/baseline/05131v.jpg'></img></p>","null","","1550962686900","","","","","","",""
"null","","html-keyboard-response","248","3055836","0.0-6.0-14.12","34","<p><img class= 'stimulus' src='images/baseline/pexels-photo-1840893.jpeg'></img></p>","null","","1550962687000","14","","","","","",""
"null","","html-keyboard-response","249","3055936","0.0-6.0-15.12","34","<p><img class= 'stimulus' src='images/baseline/foreclosed_home.jpg'></img></p>","null","","1550962687100","","","","","","",""
"null","","html-keyboard-response","250","3056035","0.0-6.0-16.12","34","<p><img class= 'stimulus' src='images/baseline/horse_statue.jpg'></img></p>","null","","1550962687200","","","","","","",""
"null","","html-keyboard-response","251","3056152","0.0-6.0-17.12","34","<p><img class= 'stimulus' src='images/baseline/Lake 7.jpg'></img></p>","null","","1550962687300","","","","","","",""
"4025.2999999974854","","html-button-response","252","3061184","0.0-6.0-18.12","34","<div class = ""response_question"">WAS THE IMAGE ROTATED...</div>","","0","","","6","2","bas","left","practice","true"
"1974.299999997951","","html-button-response","253","3063159","0.0-6.0-0.13","34","","","0","","","","","","","",""
"null","","html-keyboard-response","254","3063236","0.0-6.0-1.13","34","<p><img class= 'stimulus' src='images/baseline/Niinsaare_jarv.jpg'></img></p>","null","","1550962694400","","","","","","",""
"null","","html-keyboard-response","255","3063336","0.0-6.0-2.13","34","<p><img class= 'stimulus' src='images/baseline/pexels-photo-1261728.jpeg'></img></p>","null","","1550962694500","","","","","","",""
"null","","html-keyboard-response","256","3063436","0.0-6.0-3.13","34","<p><img class= 'stimulus' src='images/baseline/building8.jpg'></img></p>","null","","1550962694600","","","","","","",""
"null","","html-keyboard-response","257","3063536","0.0-6.0-4.13","34","<p><img class= 'stimulus' src='images/baseline/Kocherbaumwald-01.jpg'></img></p>","null","","1550962694701","4","","","","","",""
"null","","html-keyboard-response","258","3063636","0.0-6.0-5.13","34","<p><img class= 'stimulus' src='images/baseline/landscape2.jpg'></img></p>","null","","1550962694799","","","","","","",""
"null","","html-keyboard-response","259","3063735","0.0-6.0-6.13","34","<p><img class= 'stimulus' src='images/target/lone-tree-1934897_640.jpg'></img></p>","null","","1550962694900","6","","","","","",""
"null","","html-keyboard-response","260","3063836","0.0-6.0-7.13","34","<p><img class= 'stimulus' src='images/baseline/kokkari-1523011968Xfr.jpg'></img></p>","null","","1550962694999","","","","","","",""
"null","","html-keyboard-response","261","3063937","0.0-6.0-8.13","34","<p><img class= 'stimulus' src='images/baseline/04229v.jpg'></img></p>","null","","1550962695100","8","","","","","",""
"null","","html-keyboard-response","262","3064037","0.0-6.0-9.13","34","<p><img class= 'stimulus' src='images/baseline/red-rocks-park.jpg'></img></p>","null","","1550962695201","","","","","","",""
"null","","html-keyboard-response","263","3064135","0.0-6.0-10.13","34","<p><img class= 'stimulus' src='images/baseline/landscape19.jpg'></img></p>","null","","1550962695300","","","","","","",""
"null","","html-keyboard-response","264","3064236","0.0-6.0-11.13","34","<p><img class= 'stimulus' src='images/baseline/snowy tree.jpg'></img></p>","null","","1550962695402","","","","","","",""
"null","","html-keyboard-response","265","3064336","0.0-6.0-12.13","34","<p><img class= 'stimulus' src='images/baseline/farmhouse4.jpg'></img></p>","null","","1550962695500","12","","","","","",""
"null","","html-keyboard-response","266","3064436","0.0-6.0-13.13","34","<p><img class= 'stimulus' src='images/baseline/house8.jpg'></img></p>","null","","1550962695601","","","","","","",""
"null","","html-keyboard-response","267","3064535","0.0-6.0-14.13","34","<p><img class= 'stimulus' src='images/baseline/lone-old-cottonwood-tree.jpg'></img></p>","null","","1550962695700","14","","","","","",""
"null","","html-keyboard-response","268","3064636","0.0-6.0-15.13","34","<p><img class= 'stimulus' src='images/baseline/Paysage_enneige_02.jpg'></img></p>","null","","1550962695800","","","","","","",""
"null","","html-keyboard-response","269","3064736","0.0-6.0-16.13","34","<p><img class= 'stimulus' src='images/baseline/03217v.jpg'></img></p>","null","","1550962695900","","","","","","",""
"null","","html-keyboard-response","270","3064853","0.0-6.0-17.13","34","<p><img class= 'stimulus' src='images/baseline/field 1.jpg'></img></p>","null","","1550962696000","","","","","","",""
"934.6000000005588","","html-button-response","271","3066792","0.0-6.0-18.13","34","<div class = ""response_question"">WAS THE IMAGE ROTATED...</div>","","3","","","4","2","bas","right","practice","true"
"1918.0999999991618","","html-button-response","272","3068711","0.0-6.0-0.14","34","","","0","","","","","","","",""
"null","","html-keyboard-response","273","3068786","0.0-6.0-1.14","34","<p><img class= 'stimulus' src='images/baseline/03066v.jpg'></img></p>","null","","1550962699950","","","","","","",""
"null","","html-keyboard-response","274","3068886","0.0-6.0-2.14","34","<p><img class= 'stimulus' src='images/baseline/03212v.jpg'></img></p>","null","","1550962700051","","","","","","",""
"null","","html-keyboard-response","275","3068985","0.0-6.0-3.14","34","<p><img class= 'stimulus' src='images/baseline/farmhouse8.jpg'></img></p>","null","","1550962700149","","","","","","",""
"null","","html-keyboard-response","276","3069085","0.0-6.0-4.14","34","<p><img class= 'stimulus' src='images/baseline/architecture-956332_1280.jpg'></img></p>","null","","1550962700250","4","","","","","",""
"null","","html-keyboard-response","277","3069186","0.0-6.0-5.14","34","<p><img class= 'stimulus' src='images/baseline/agriculture-countryside-crop-259280.jpg'></img></p>","null","","1550962700350","","","","","","",""
"null","","html-keyboard-response","278","3069286","0.0-6.0-6.14","34","<p><img class= 'stimulus' src='images/baseline/Camping 10.jpg'></img></p>","null","","1550962700450","6","","","","","",""
"null","","html-keyboard-response","279","3069386","0.0-6.0-7.14","34","<p><img class= 'stimulus' src='images/baseline/04158v.jpg'></img></p>","null","","1550962700550","","","","","","",""
"null","","html-keyboard-response","280","3069486","0.0-6.0-8.14","34","<p><img class= 'stimulus' src='images/baseline/cyrillic.jpg'></img></p>","null","","1550962700650","8","","","","","",""
"null","","html-keyboard-response","281","3069586","0.0-6.0-9.14","34","<p><img class= 'stimulus' src='images/baseline/lake 1.jpg'></img></p>","null","","1550962700751","","","","","","",""
"null","","html-keyboard-response","282","3069686","0.0-6.0-10.14","34","<p><img class= 'stimulus' src='images/baseline/city-silhouette-at-sunset-871291580819Esw.jpg'></img></p>","null","","1550962700851","","","","","","",""
"null","","html-keyboard-response","283","3069786","0.0-6.0-11.14","34","<p><img class= 'stimulus' src='images/baseline/house1.jpg'></img></p>","null","","1550962700951","","","","","","",""
"null","","html-keyboard-response","284","3069886","0.0-6.0-12.14","34","<p><img class= 'stimulus left-rotate' src='images/target/pexels-photo-236294.jpeg'></img></p>","null","","1550962701052","12","","","","","",""
"null","","html-keyboard-response","285","3069987","0.0-6.0-13.14","34","<p><img class= 'stimulus' src='images/baseline/05252v.jpg'></img></p>","null","","1550962701151","","","","","","",""
"null","","html-keyboard-response","286","3070085","0.0-6.0-14.14","34","<p><img class= 'stimulus' src='images/baseline/Peyto_Lake-Banff_NP-Canada.jpg'></img></p>","null","","1550962701251","14","","","","","",""
"null","","html-keyboard-response","287","3070186","0.0-6.0-15.14","34","<p><img class= 'stimulus' src='images/baseline/pexels-photo-534164.jpeg'></img></p>","null","","1550962701350","","","","","","",""
"null","","html-keyboard-response","288","3070285","0.0-6.0-16.14","34","<p><img class= 'stimulus' src='images/baseline/Skyscraper 2.jpg'></img></p>","null","","1550962701449","","","","","","",""
"null","","html-keyboard-response","289","3070403","0.0-6.0-17.14","34","<p><img class= 'stimulus' src='images/baseline/pexels-photo-750108.jpeg'></img></p>","null","","1550962701550","","","","","","",""
"1300.800000000745","","html-button-response","290","3072712","0.0-6.0-18.14","34","<div class = ""response_question"">WAS THE IMAGE ROTATED...</div>","","0","","","4","8","bas","left","practice","true"
"1830.4000000022352","","html-button-response","291","3074543","0.0-6.0-0.15","34","","","0","","","","","","","",""
"null","","html-keyboard-response","292","3074619","0.0-6.0-1.15","34","<p><img class= 'stimulus' src='images/baseline/Lake 15.jpg'></img></p>","null","","1550962705783","","","","","","",""
"null","","html-keyboard-response","293","3074719","0.0-6.0-2.15","34","<p><img class= 'stimulus' src='images/baseline/Cold 7.jpg'></img></p>","null","","1550962705883","","","","","","",""
"null","","html-keyboard-response","294","3074820","0.0-6.0-3.15","34","<p><img class= 'stimulus' src='images/baseline/04179v.jpg'></img></p>","null","","1550962705983","","","","","","",""
"null","","html-keyboard-response","295","3074919","0.0-6.0-4.15","34","<p><img class= 'stimulus' src='images/baseline/scenic-mountain-landscape.jpg'></img></p>","null","","1550962706084","4","","","","","",""
"null","","html-keyboard-response","296","3075019","0.0-6.0-5.15","34","<p><img class= 'stimulus' src='images/baseline/bird-flying-at-sunset.jpg'></img></p>","null","","1550962706184","","","","","","",""
"null","","html-keyboard-response","297","3075120","0.0-6.0-6.15","34","<p><img class= 'stimulus' src='images/baseline/Freudenberg_sg_Switzerland.jpg'></img></p>","null","","1550962706285","6","","","","","",""
"null","","html-keyboard-response","298","3075219","0.0-6.0-7.15","34","<p><img class= 'stimulus' src='images/baseline/02947v.jpg'></img></p>","null","","1550962706384","","","","","","",""
"null","","html-keyboard-response","299","3075320","0.0-6.0-8.15","34","<p><img class= 'stimulus' src='images/baseline/04060v.jpg'></img></p>","null","","1550962706485","8","","","","","",""
"null","","html-keyboard-response","300","3075419","0.0-6.0-9.15","34","<p><img class= 'stimulus' src='images/baseline/empire-state-building.jpg'></img></p>","null","","1550962706583","","","","","","",""
"null","","html-keyboard-response","301","3075519","0.0-6.0-10.15","34","<p><img class= 'stimulus' src='images/baseline/Sunset 6.jpg'></img></p>","null","","1550962706685","","","","","","",""
"null","","html-keyboard-response","302","3075620","0.0-6.0-11.15","34","<p><img class= 'stimulus' src='images/baseline/pexels-photo-414491.jpeg'></img></p>","null","","1550962706784","","","","","","",""
"null","","html-keyboard-response","303","3075720","0.0-6.0-12.15","34","<p><img class= 'stimulus' src='images/baseline/Nature 2.jpg'></img></p>","null","","1550962706883","12","","","","","",""
"null","","html-keyboard-response","304","3075819","0.0-6.0-13.15","34","<p><img class= 'stimulus' src='images/baseline/03162v.jpg'></img></p>","null","","1550962706984","","","","","","",""
"null","","html-keyboard-response","305","3075920","0.0-6.0-14.15","34","<p><img class= 'stimulus' src='images/target/palm-trees-1209125_640.jpg'></img></p>","null","","1550962707083","14","","","","","",""
"null","","html-keyboard-response","306","3076019","0.0-6.0-15.15","34","<p><img class= 'stimulus' src='images/baseline/03180v.jpg'></img></p>","null","","1550962707184","","","","","","",""
"null","","html-keyboard-response","307","3076119","0.0-6.0-16.15","34","<p><img class= 'stimulus' src='images/baseline/02945v.jpg'></img></p>","null","","1550962707285","","","","","","",""
"null","","html-keyboard-response","308","3076236","0.0-6.0-17.15","34","<p><img class= 'stimulus' src='images/baseline/Lake 15.jpg'></img></p>","null","","1550962707384","","","","","","",""
"1678.299999999348","","html-button-response","309","3078920","0.0-6.0-18.15","34","<div class = ""response_question"">WAS THE IMAGE ROTATED...</div>","","3","","","6","8","bas","right","practice","true"
"38430.4999999986","","html-button-response","310","3117354","0.0-7.0","34","<p>You have now completed the practice phase. We will now begin the real trials.         This is a reminder that you will be searching for a rotated image among the series of upright images.</p>         <p>Remember, please do not blink or move your eyes while the images are on the screen.</p>         <p>At the end of the experiment, the experimenter will be able to show you how accurate you were.</p>","","0","","","","","","","",""
"2910.500000001397","","html-button-response","311","3120267","0.0-8.0-0.0-0.0","34","","","0","","","","","","","",""
"null","","html-keyboard-response","312","3120340","0.0-8.0-0.0-1.0","34","<p><img class= 'stimulus' src='images/baseline/house8.jpg'></img></p>","null","","1550962751503","","","","","","",""
"null","","html-keyboard-response","313","3120440","0.0-8.0-0.0-2.0","34","<p><img class= 'stimulus' src='images/baseline/valley 1.jpg'></img></p>","null","","1550962751604","","","","","","",""
"null","","html-keyboard-response","314","3120540","0.0-8.0-0.0-3.0","34","<p><img class= 'stimulus' src='images/baseline/lake3.jpg'></img></p>","null","","1550962751704","","","","","","",""
"null","","html-keyboard-response","315","3120640","0.0-8.0-0.0-4.0","34","<p><img class= 'stimulus' src='images/baseline/landscape1.jpg'></img></p>","null","","1550962751805","4","","","","","",""
"null","","html-keyboard-response","316","3120741","0.0-8.0-0.0-5.0","34","<p><img class= 'stimulus' src='images/baseline/Lake 5.jpg'></img></p>","null","","1550962751905","","","","","","",""
"null","","html-keyboard-response","317","3120839","0.0-8.0-0.0-6.0","34","<p><img class= 'stimulus' src='images/negative/Dog attack 1.jpg'></img></p>","null","","1550962752006","6","","","","","",""
"null","","html-keyboard-response","318","3120939","0.0-8.0-0.0-7.0","34","<p><img class= 'stimulus' src='images/baseline/Sunset 6.jpg'></img></p>","null","","1550962752104","","","","","","",""
"null","","html-keyboard-response","319","3121040","0.0-8.0-0.0-8.0","34","<p><img class= 'stimulus left-rotate' src='images/target/building3.jpg'></img></p>","null","","1550962752205","8","","","","","",""
"null","","html-keyboard-response","320","3121140","0.0-8.0-0.0-9.0","34","<p><img class= 'stimulus' src='images/baseline/autumn-landscape-with-lake-fall-trees-mountains.jpg'></img></p>","null","","1550962752304","","","","","","",""
"null","","html-keyboard-response","321","3121241","0.0-8.0-0.0-10.0","34","<p><img class= 'stimulus' src='images/baseline/city-silhouette-at-sunset-871291580819Esw.jpg'></img></p>","null","","1550962752404","","","","","","",""
"null","","html-keyboard-response","322","3121340","0.0-8.0-0.0-11.0","34","<p><img class= 'stimulus' src='images/baseline/Waterfall 1.jpg'></img></p>","null","","1550962752504","","","","","","",""
"null","","html-keyboard-response","323","3121440","0.0-8.0-0.0-12.0","34","<p><img class= 'stimulus' src='images/baseline/04064v.jpg'></img></p>","null","","1550962752604","12","","","","","",""
"null","","html-keyboard-response","324","3121540","0.0-8.0-0.0-13.0","34","<p><img class= 'stimulus' src='images/baseline/landscape40.jpg'></img></p>","null","","1550962752703","","","","","","",""
"null","","html-keyboard-response","325","3121640","0.0-8.0-0.0-14.0","34","<p><img class= 'stimulus' src='images/baseline/landscape19.jpg'></img></p>","null","","1550962752804","14","","","","","",""
"null","","html-keyboard-response","326","3121740","0.0-8.0-0.0-15.0","34","<p><img class= 'stimulus' src='images/baseline/05264v.jpg'></img></p>","null","","1550962752904","","","","","","",""
"null","","html-keyboard-response","327","3121840","0.0-8.0-0.0-16.0","34","<p><img class= 'stimulus' src='images/baseline/landscape34.jpg'></img></p>","null","","1550962753005","","","","","","",""
"null","","html-keyboard-response","328","3121956","0.0-8.0-0.0-17.0","34","<p><img class= 'stimulus' src='images/baseline/02977v.jpg'></img></p>","null","","1550962753105","","","","","","",""
"1794.2999999974854","","html-button-response","329","3124755","0.0-8.0-0.0-18.0","34","<div class = ""response_question"">WAS THE IMAGE ROTATED...</div>","","0","","","6","2","neg","left","test","true"
"1806.199999999255","","html-button-response","330","3126562","0.0-8.0-0.0-0.1","34","","","0","","","","","","","",""
"null","","html-keyboard-response","331","3126640","0.0-8.0-0.0-1.1","34","<p><img class= 'stimulus' src='images/baseline/03220v.jpg'></img></p>","null","","1550962757804","","","","","","",""
"null","","html-keyboard-response","332","3126740","0.0-8.0-0.0-2.1","34","<p><img class= 'stimulus' src='images/baseline/03045v.jpg'></img></p>","null","","1550962757905","","","","","","",""
"null","","html-keyboard-response","333","3126841","0.0-8.0-0.0-3.1","34","<p><img class= 'stimulus' src='images/baseline/field 2.jpg'></img></p>","null","","1550962758005","","","","","","",""
"null","","html-keyboard-response","334","3126940","0.0-8.0-0.0-4.1","34","<p><img class= 'stimulus' src='images/baseline/02982v.jpg'></img></p>","null","","1550962758104","4","","","","","",""
"null","","html-keyboard-response","335","3127041","0.0-8.0-0.0-5.1","34","<p><img class= 'stimulus' src='images/baseline/foreclosed_home.jpg'></img></p>","null","","1550962758204","","","","","","",""
"null","","html-keyboard-response","336","3127139","0.0-8.0-0.0-6.1","34","<p><img class= 'stimulus' src='images/baseline/trees 23.jpg'></img></p>","null","","1550962758305","6","","","","","",""
"null","","html-keyboard-response","337","3127240","0.0-8.0-0.0-7.1","34","<p><img class= 'stimulus' src='images/baseline/snowy tree.jpg'></img></p>","null","","1550962758404","","","","","","",""
"null","","html-keyboard-response","338","3127341","0.0-8.0-0.0-8.1","34","<p><img class= 'stimulus' src='images/baseline/lookout_tower.jpg'></img></p>","null","","1550962758505","8","","","","","",""
"null","","html-keyboard-response","339","3127439","0.0-8.0-0.0-9.1","34","<p><img class= 'stimulus' src='images/baseline/05186v.jpg'></img></p>","null","","1550962758606","","","","","","",""
"null","","html-keyboard-response","340","3127540","0.0-8.0-0.0-10.1","34","<p><img class= 'stimulus' src='images/baseline/Street 5.jpg'></img></p>","null","","1550962758705","","","","","","",""
"null","","html-keyboard-response","341","3127640","0.0-8.0-0.0-11.1","34","<p><img class= 'stimulus' src='images/baseline/lake 1.jpg'></img></p>","null","","1550962758805","","","","","","",""
"null","","html-keyboard-response","342","3127740","0.0-8.0-0.0-12.1","34","<p><img class= 'stimulus' src='images/target/coconut-3396945_640.jpg'></img></p>","null","","1550962758905","12","","","","","",""
"null","","html-keyboard-response","343","3127839","0.0-8.0-0.0-13.1","34","<p><img class= 'stimulus' src='images/baseline/Linden,_paysage.jpg'></img></p>","null","","1550962759004","","","","","","",""
"null","","html-keyboard-response","344","3127940","0.0-8.0-0.0-14.1","34","<p><img class= 'stimulus' src='images/baseline/Grass 6.jpg'></img></p>","null","","1550962759105","14","","","","","",""
"null","","html-keyboard-response","345","3128040","0.0-8.0-0.0-15.1","34","<p><img class= 'stimulus' src='images/baseline/Skyscraper 1.jpg'></img></p>","null","","1550962759205","","","","","","",""
"null","","html-keyboard-response","346","3128141","0.0-8.0-0.0-16.1","34","<p><img class= 'stimulus' src='images/baseline/Lake 16.jpg'></img></p>","null","","1550962759305","","","","","","",""
"null","","html-keyboard-response","347","3128256","0.0-8.0-0.0-17.1","34","<p><img class= 'stimulus' src='images/baseline/02988v.jpg'></img></p>","null","","1550962759406","","","","","","",""
"742.5000000004657","","html-button-response","348","3130003","0.0-8.0-0.0-18.1","34","<div class = ""response_question"">WAS THE IMAGE ROTATED...</div>","","3","","","4","8","bas","right","test","true"
"1790.300000000745","","html-button-response","349","3131794","0.0-8.0-0.0-0.2","34","","","0","","","","","","","",""
"null","","html-keyboard-response","350","3131874","0.0-8.0-0.0-1.2","34","<p><img class= 'stimulus' src='images/baseline/tennis-court-net-buried-in-snow.jpg'></img></p>","null","","1550962763038","","","","","","",""
"null","","html-keyboard-response","351","3131974","0.0-8.0-0.0-2.2","34","<p><img class= 'stimulus' src='images/baseline/Beach 2.jpg'></img></p>","null","","1550962763138","","","","","","",""
"null","","html-keyboard-response","352","3132073","0.0-8.0-0.0-3.2","34","<p><img class= 'stimulus' src='images/baseline/03041v.jpg'></img></p>","null","","1550962763239","","","","","","",""
"null","","html-keyboard-response","353","3132173","0.0-8.0-0.0-4.2","34","<p><img class= 'stimulus' src='images/negative/Shark 2.jpg'></img></p>","null","","1550962763337","4","","","","","",""
"null","","html-keyboard-response","354","3132273","0.0-8.0-0.0-5.2","34","<p><img class= 'stimulus' src='images/baseline/Sky 1.jpg'></img></p>","null","","1550962763439","","","","","","",""
"null","","html-keyboard-response","355","3132374","0.0-8.0-0.0-6.2","34","<p><img class= 'stimulus left-rotate' src='images/target/pexels-photo-1534411.jpeg'></img></p>","null","","1550962763539","6","","","","","",""
"null","","html-keyboard-response","356","3132473","0.0-8.0-0.0-7.2","34","<p><img class= 'stimulus' src='images/baseline/Skyscraper 2.jpg'></img></p>","null","","1550962763638","","","","","","",""
"null","","html-keyboard-response","357","3132573","0.0-8.0-0.0-8.2","34","<p><img class= 'stimulus' src='images/baseline/Sunset 5.jpg'></img></p>","null","","1550962763737","8","","","","","",""
"null","","html-keyboard-response","358","3132674","0.0-8.0-0.0-9.2","34","<p><img class= 'stimulus' src='images/baseline/05255v.jpg'></img></p>","null","","1550962763838","","","","","","",""
"null","","html-keyboard-response","359","3132773","0.0-8.0-0.0-10.2","34","<p><img class= 'stimulus' src='images/baseline/03201v.jpg'></img></p>","null","","1550962763938","","","","","","",""
"null","","html-keyboard-response","360","3132873","0.0-8.0-0.0-11.2","34","<p><img class= 'stimulus' src='images/baseline/building4.jpg'></img></p>","null","","1550962764038","","","","","","",""
"null","","html-keyboard-response","361","3132974","0.0-8.0-0.0-12.2","34","<p><img class= 'stimulus' src='images/baseline/03148v.jpg'></img></p>","null","","1550962764138","12","","","","","",""
"null","","html-keyboard-response","362","3133073","0.0-8.0-0.0-13.2","34","<p><img class= 'stimulus' src='images/baseline/house10.jpg'></img></p>","null","","1550962764238","","","","","","",""
"null","","html-keyboard-response","363","3133174","0.0-8.0-0.0-14.2","34","<p><img class= 'stimulus' src='images/baseline/Lake 7.jpg'></img></p>","null","","1550962764339","14","","","","","",""
"null","","html-keyboard-response","364","3133273","0.0-8.0-0.0-15.2","34","<p><img class= 'stimulus' src='images/baseline/empire-state-building.jpg'></img></p>","null","","1550962764438","","","","","","",""
"null","","html-keyboard-response","365","3133373","0.0-8.0-0.0-16.2","34","<p><img class= 'stimulus' src='images/baseline/04014v.jpg'></img></p>","null","","1550962764538","","","","","","",""
"null","","html-keyboard-response","366","3133490","0.0-8.0-0.0-17.2","34","<p><img class= 'stimulus' src='images/baseline/house2.jpg'></img></p>","null","","1550962764638","","","","","","",""
"1307.8000000026077","","html-button-response","367","3135803","0.0-8.0-0.0-18.2","34","<div class = ""response_question"">WAS THE IMAGE ROTATED...</div>","","0","","","4","2","neg","left","test","true"
"2030.5000000004657","","html-button-response","368","3137835","0.0-8.0-0.0-0.3","34","","","0","","","","","","","",""
"null","","html-keyboard-response","369","3137906","0.0-8.0-0.0-1.3","34","<p><img class= 'stimulus' src='images/baseline/Lake 13.jpg'></img></p>","null","","1550962769071","","","","","","",""
"null","","html-keyboard-response","370","3138007","0.0-8.0-0.0-2.3","34","<p><img class= 'stimulus' src='images/baseline/03075v.jpg'></img></p>","null","","1550962769171","","","","","","",""
"null","","html-keyboard-response","371","3138107","0.0-8.0-0.0-3.3","34","<p><img class= 'stimulus' src='images/baseline/church-silhouette-8712964986014Kb.jpg'></img></p>","null","","1550962769273","","","","","","",""
"null","","html-keyboard-response","372","3138206","0.0-8.0-0.0-4.3","34","<p><img class= 'stimulus' src='images/baseline/Skijump 1.jpg'></img></p>","null","","1550962769371","4","","","","","",""
"null","","html-keyboard-response","373","3138307","0.0-8.0-0.0-5.3","34","<p><img class= 'stimulus' src='images/baseline/04196v.jpg'></img></p>","null","","1550962769471","","","","","","",""
"null","","html-keyboard-response","374","3138406","0.0-8.0-0.0-6.3","34","<p><img class= 'stimulus' src='images/neutral/Neutral pose 1.jpg'></img></p>","null","","1550962769572","6","","","","","",""
"null","","html-keyboard-response","375","3138506","0.0-8.0-0.0-7.3","34","<p><img class= 'stimulus' src='images/baseline/red rocks from afar.jpg'></img></p>","null","","1550962769672","","","","","","",""
"null","","html-keyboard-response","376","3138606","0.0-8.0-0.0-8.3","34","<p><img class= 'stimulus left-rotate' src='images/target/specphotops-563427-unsplash.jpg'></img></p>","null","","1550962769772","8","","","","","",""
"null","","html-keyboard-response","377","3138707","0.0-8.0-0.0-9.3","34","<p><img class= 'stimulus' src='images/baseline/Desert_View_Indian_Wells.jpg'></img></p>","null","","1550962769871","","","","","","",""
"null","","html-keyboard-response","378","3138807","0.0-8.0-0.0-10.3","34","<p><img class= 'stimulus' src='images/baseline/landscape11.jpg'></img></p>","null","","1550962769970","","","","","","",""
"null","","html-keyboard-response","379","3138907","0.0-8.0-0.0-11.3","34","<p><img class= 'stimulus' src='images/baseline/04062v.jpg'></img></p>","null","","1550962770071","","","","","","",""
"null","","html-keyboard-response","380","3139007","0.0-8.0-0.0-12.3","34","<p><img class= 'stimulus' src='images/baseline/pexels-photo-1048039.jpeg'></img></p>","null","","1550962770172","12","","","","","",""
"null","","html-keyboard-response","381","3139107","0.0-8.0-0.0-13.3","34","<p><img class= 'stimulus' src='images/baseline/pexels-photo-414491.jpeg'></img></p>","null","","1550962770271","","","","","","",""
"null","","html-keyboard-response","382","3139208","0.0-8.0-0.0-14.3","34","<p><img class= 'stimulus' src='images/baseline/road.jpg'></img></p>","null","","1550962770372","14","","","","","",""
"null","","html-keyboard-response","383","3139306","0.0-8.0-0.0-15.3","34","<p><img class= 'stimulus' src='images/baseline/Sailing 3.jpg'></img></p>","null","","1550962770471","","","","","","",""
"null","","html-keyboard-response","384","3139407","0.0-8.0-0.0-16.3","34","<p><img class= 'stimulus' src='images/baseline/04300v.jpg'></img></p>","null","","1550962770571","","","","","","",""
"null","","html-keyboard-response","385","3139523","0.0-8.0-0.0-17.3","34","<p><img class= 'stimulus' src='images/baseline/landscape36.jpg'></img></p>","null","","1550962770672","","","","","","",""
"1695.7000000001863","","html-button-response","386","3142227","0.0-8.0-0.0-18.3","34","<div class = ""response_question"">WAS THE IMAGE ROTATED...</div>","","0","","","6","2","neu","left","test","true"
"1590.700000000652","","html-button-response","387","3143819","0.0-8.0-0.0-0.4","34","","","0","","","","","","","",""
"null","","html-keyboard-response","388","3143889","0.0-8.0-0.0-1.4","34","<p><img class= 'stimulus' src='images/baseline/hills 3.jpg'></img></p>","null","","1550962775055","","","","","","",""
"null","","html-keyboard-response","389","3143990","0.0-8.0-0.0-2.4","34","<p><img class= 'stimulus' src='images/baseline/Path 1.jpg'></img></p>","null","","1550962775154","","","","","","",""
"null","","html-keyboard-response","390","3144090","0.0-8.0-0.0-3.4","34","<p><img class= 'stimulus' src='images/baseline/building9.jpg'></img></p>","null","","1550962775255","","","","","","",""
"null","","html-keyboard-response","391","3144190","0.0-8.0-0.0-4.4","34","<p><img class= 'stimulus' src='images/negative/Shark 11.jpg'></img></p>","null","","1550962775354","4","","","","","",""
"null","","html-keyboard-response","392","3144290","0.0-8.0-0.0-5.4","34","<p><img class= 'stimulus' src='images/baseline/landscape38.jpg'></img></p>","null","","1550962775455","","","","","","",""
"null","","html-keyboard-response","393","3144391","0.0-8.0-0.0-6.4","34","<p><img class= 'stimulus' src='images/target/landscape_1.jpg'></img></p>","null","","1550962775556","6","","","","","",""
"null","","html-keyboard-response","394","3144490","0.0-8.0-0.0-7.4","34","<p><img class= 'stimulus' src='images/baseline/farmhouse7.jpg'></img></p>","null","","1550962775654","","","","","","",""
"null","","html-keyboard-response","395","3144591","0.0-8.0-0.0-8.4","34","<p><img class= 'stimulus' src='images/baseline/landscape23.jpg'></img></p>","null","","1550962775755","8","","","","","",""
"null","","html-keyboard-response","396","3144690","0.0-8.0-0.0-9.4","34","<p><img class= 'stimulus' src='images/baseline/landscape15.jpg'></img></p>","null","","1550962775854","","","","","","",""
"null","","html-keyboard-response","397","3144790","0.0-8.0-0.0-10.4","34","<p><img class= 'stimulus' src='images/baseline/Lake 14.jpg'></img></p>","null","","1550962775955","","","","","","",""
"null","","html-keyboard-response","398","3144890","0.0-8.0-0.0-11.4","34","<p><img class= 'stimulus' src='images/baseline/pexels-photo-259280.jpeg'></img></p>","null","","1550962776055","","","","","","",""
"null","","html-keyboard-response","399","3144990","0.0-8.0-0.0-12.4","34","<p><img class= 'stimulus' src='images/baseline/landscape13.jpg'></img></p>","null","","1550962776155","12","","","","","",""
"null","","html-keyboard-response","400","3145091","0.0-8.0-0.0-13.4","34","<p><img class= 'stimulus' src='images/baseline/05198v.jpg'></img></p>","null","","1550962776255","","","","","","",""
"null","","html-keyboard-response","401","3145191","0.0-8.0-0.0-14.4","34","<p><img class= 'stimulus' src='images/baseline/autumn-in-red-rocks-park.jpg'></img></p>","null","","1550962776354","14","","","","","",""
"null","","html-keyboard-response","402","3145290","0.0-8.0-0.0-15.4","34","<p><img class= 'stimulus' src='images/baseline/Freudenberg_sg_Switzerland.jpg'></img></p>","null","","1550962776454","","","","","","",""
"null","","html-keyboard-response","403","3145391","0.0-8.0-0.0-16.4","34","<p><img class= 'stimulus' src='images/baseline/house3.jpg'></img></p>","null","","1550962776554","","","","","","",""
"null","","html-keyboard-response","404","3145508","0.0-8.0-0.0-17.4","34","<p><img class= 'stimulus' src='images/baseline/chicago-skyline-at-night-1476869511p8U.jpg'></img></p>","null","","1550962776656","","","","","","",""
"2164.3000000002794","","html-button-response","405","3148683","0.0-8.0-0.0-18.4","34","<div class = ""response_question"">WAS THE IMAGE ROTATED...</div>","","5","","","4","2","neg","right","test","false"
"2974.200000000652","","html-button-response","406","3151659","0.0-8.0-0.0-0.5","34","","","0","","","","","","","",""
"null","","html-keyboard-response","407","3151740","0.0-8.0-0.0-1.5","34","<p><img class= 'stimulus' src='images/baseline/landscape6.jpg'></img></p>","null","","1550962782905","","","","","","",""
"null","","html-keyboard-response","408","3151840","0.0-8.0-0.0-2.5","34","<p><img class= 'stimulus' src='images/baseline/pexels-photo-427676.jpeg'></img></p>","null","","1550962783005","","","","","","",""
"null","","html-keyboard-response","409","3151940","0.0-8.0-0.0-3.5","34","<p><img class= 'stimulus' src='images/baseline/Peyto_Lake-Banff_NP-Canada.jpg'></img></p>","null","","1550962783106","","","","","","",""
"null","","html-keyboard-response","410","3152040","0.0-8.0-0.0-4.5","34","<p><img class= 'stimulus' src='images/baseline/landscape39.jpg'></img></p>","null","","1550962783205","4","","","","","",""
"null","","html-keyboard-response","411","3152140","0.0-8.0-0.0-5.5","34","<p><img class= 'stimulus' src='images/baseline/pexels-photo-221125.jpeg'></img></p>","null","","1550962783305","","","","","","",""
"null","","html-keyboard-response","412","3152241","0.0-8.0-0.0-6.5","34","<p><img class= 'stimulus' src='images/baseline/Kocherbaumwald-01.jpg'></img></p>","null","","1550962783406","6","","","","","",""
"null","","html-keyboard-response","413","3152341","0.0-8.0-0.0-7.5","34","<p><img class= 'stimulus' src='images/baseline/03112v.jpg'></img></p>","null","","1550962783506","","","","","","",""
"null","","html-keyboard-response","414","3152441","0.0-8.0-0.0-8.5","34","<p><img class= 'stimulus' src='images/baseline/Bahia_Onelli_Parque_Nacional_Los_Glaciares_Patagonia_Argentina_Luca_Galuzzi_2005.jpg'></img></p>","null","","1550962783605","8","","","","","",""
"null","","html-keyboard-response","415","3152540","0.0-8.0-0.0-9.5","34","<p><img class= 'stimulus' src='images/baseline/Happy pose 3.jpg'></img></p>","null","","1550962783704","","","","","","",""
"null","","html-keyboard-response","416","3152640","0.0-8.0-0.0-10.5","34","<p><img class= 'stimulus' src='images/baseline/landscape33.jpg'></img></p>","null","","1550962783806","","","","","","",""
"null","","html-keyboard-response","417","3152740","0.0-8.0-0.0-11.5","34","<p><img class= 'stimulus' src='images/baseline/04010v.jpg'></img></p>","null","","1550962783906","","","","","","",""
"null","","html-keyboard-response","418","3152840","0.0-8.0-0.0-12.5","34","<p><img class= 'stimulus' src='images/baseline/03114v.jpg'></img></p>","null","","1550962784005","12","","","","","",""
"null","","html-keyboard-response","419","3152941","0.0-8.0-0.0-13.5","34","<p><img class= 'stimulus' src='images/baseline/farmhouse1.jpg'></img></p>","null","","1550962784105","","","","","","",""
"null","","html-keyboard-response","420","3153040","0.0-8.0-0.0-14.5","34","<p><img class= 'stimulus' src='images/target/pexels-photo-932328.jpeg'></img></p>","null","","1550962784205","14","","","","","",""
"null","","html-keyboard-response","421","3153141","0.0-8.0-0.0-15.5","34","<p><img class= 'stimulus' src='images/baseline/04060v.jpg'></img></p>","null","","1550962784304","","","","","","",""
"null","","html-keyboard-response","422","3153240","0.0-8.0-0.0-16.5","34","<p><img class= 'stimulus' src='images/baseline/02962v.jpg'></img></p>","null","","1550962784404","","","","","","",""
"null","","html-keyboard-response","423","3153357","0.0-8.0-0.0-17.5","34","<p><img class= 'stimulus' src='images/baseline/pexels-photo-280222.jpeg'></img></p>","null","","1550962784504","","","","","","",""
"1520.999999997206","","html-button-response","424","3155884","0.0-8.0-0.0-18.5","34","<div class = ""response_question"">WAS THE IMAGE ROTATED...</div>","","4","","","6","8","bas","right","test","true"
"1782.199999997858","","html-button-response","425","3157666","0.0-8.0-0.0-0.6","34","","","0","","","","","","","",""
"null","","html-keyboard-response","426","3157741","0.0-8.0-0.0-1.6","34","<p><img class= 'stimulus' src='images/baseline/04040v.jpg'></img></p>","null","","1550962788905","","","","","","",""
"null","","html-keyboard-response","427","3157840","0.0-8.0-0.0-2.6","34","<p><img class= 'stimulus' src='images/baseline/pexels-photo-351264.jpeg'></img></p>","null","","1550962789005","","","","","","",""
"null","","html-keyboard-response","428","3157941","0.0-8.0-0.0-3.6","34","<p><img class= 'stimulus' src='images/baseline/05203v.jpg'></img></p>","null","","1550962789105","","","","","","",""
"null","","html-keyboard-response","429","3158040","0.0-8.0-0.0-4.6","34","<p><img class= 'stimulus' src='images/baseline/geese-flying-over-lake-at-dusk.jpg'></img></p>","null","","1550962789204","4","","","","","",""
"null","","html-keyboard-response","430","3158141","0.0-8.0-0.0-5.6","34","<p><img class= 'stimulus' src='images/baseline/architecture_modern_architecture_852928.jpg'></img></p>","null","","1550962789304","","","","","","",""
"null","","html-keyboard-response","431","3158240","0.0-8.0-0.0-6.6","34","<p><img class= 'stimulus left-rotate' src='images/target/tree spring.jpeg'></img></p>","null","","1550962789405","6","","","","","",""
"null","","html-keyboard-response","432","3158340","0.0-8.0-0.0-7.6","34","<p><img class= 'stimulus' src='images/baseline/sunset-over-the-lake.jpg'></img></p>","null","","1550962789504","","","","","","",""
"null","","html-keyboard-response","433","3158441","0.0-8.0-0.0-8.6","34","<p><img class= 'stimulus' src='images/baseline/Street 2.jpg'></img></p>","null","","1550962789605","8","","","","","",""
"null","","html-keyboard-response","434","3158541","0.0-8.0-0.0-9.6","34","<p><img class= 'stimulus' src='images/baseline/valley 2.jpg'></img></p>","null","","1550962789705","","","","","","",""
"null","","html-keyboard-response","435","3158641","0.0-8.0-0.0-10.6","34","<p><img class= 'stimulus' src='images/baseline/03066v.jpg'></img></p>","null","","1550962789805","","","","","","",""
"null","","html-keyboard-response","436","3158740","0.0-8.0-0.0-11.6","34","<p><img class= 'stimulus' src='images/baseline/04284v.jpg'></img></p>","null","","1550962789906","","","","","","",""
"null","","html-keyboard-response","437","3158841","0.0-8.0-0.0-12.6","34","<p><img class= 'stimulus' src='images/baseline/landscape8.jpg'></img></p>","null","","1550962790006","12","","","","","",""
"null","","html-keyboard-response","438","3158941","0.0-8.0-0.0-13.6","34","<p><img class= 'stimulus' src='images/baseline/pexels-photo-808465.jpeg'></img></p>","null","","1550962790106","","","","","","",""
"null","","html-keyboard-response","439","3159040","0.0-8.0-0.0-14.6","34","<p><img class= 'stimulus' src='images/baseline/lake 2.jpg'></img></p>","null","","1550962790205","14","","","","","",""
"null","","html-keyboard-response","440","3159141","0.0-8.0-0.0-15.6","34","<p><img class= 'stimulus' src='images/baseline/05240v.jpg'></img></p>","null","","1550962790304","","","","","","",""
"null","","html-keyboard-response","441","3159240","0.0-8.0-0.0-16.6","34","<p><img class= 'stimulus' src='images/baseline/02947v.jpg'></img></p>","null","","1550962790404","","","","","","",""
"null","","html-keyboard-response","442","3159357","0.0-8.0-0.0-17.6","34","<p><img class= 'stimulus' src='images/baseline/architecture-956332_1280.jpg'></img></p>","null","","1550962790505","","","","","","",""
"1145.5000000023283","","html-button-response","443","3161507","0.0-8.0-0.0-18.6","34","<div class = ""response_question"">WAS THE IMAGE ROTATED...</div>","","0","","","4","2","bas","left","test","true"
"1614.0999999986961","","html-button-response","444","3163123","0.0-8.0-0.0-0.7","34","","","0","","","","","","","",""
"null","","html-keyboard-response","445","3163207","0.0-8.0-0.0-1.7","34","<p><img class= 'stimulus' src='images/baseline/Paysage_enneige_02.jpg'></img></p>","null","","1550962794372","","","","","","",""
"null","","html-keyboard-response","446","3163308","0.0-8.0-0.0-2.7","34","<p><img class= 'stimulus' src='images/baseline/03204v.jpg'></img></p>","null","","1550962794471","","","","","","",""
"null","","html-keyboard-response","447","3163407","0.0-8.0-0.0-3.7","34","<p><img class= 'stimulus' src='images/baseline/farmhouse8.jpg'></img></p>","null","","1550962794571","","","","","","",""
"null","","html-keyboard-response","448","3163507","0.0-8.0-0.0-4.7","34","<p><img class= 'stimulus' src='images/neutral/Lion 3.jpg'></img></p>","null","","1550962794671","4","","","","","",""
"null","","html-keyboard-response","449","3163608","0.0-8.0-0.0-5.7","34","<p><img class= 'stimulus' src='images/baseline/landscape4.jpg'></img></p>","null","","1550962794772","","","","","","",""
"null","","html-keyboard-response","450","3163708","0.0-8.0-0.0-6.7","34","<p><img class= 'stimulus' src='images/baseline/vintage-art-deco-storefront.jpg'></img></p>","null","","1550962794872","6","","","","","",""
"null","","html-keyboard-response","451","3163807","0.0-8.0-0.0-7.7","34","<p><img class= 'stimulus' src='images/baseline/Lake 9.jpg'></img></p>","null","","1550962794972","","","","","","",""
"null","","html-keyboard-response","452","3163908","0.0-8.0-0.0-8.7","34","<p><img class= 'stimulus' src='images/baseline/house7.jpg'></img></p>","null","","1550962795071","8","","","","","",""
"null","","html-keyboard-response","453","3164008","0.0-8.0-0.0-9.7","34","<p><img class= 'stimulus' src='images/baseline/pexels-photo-568236.jpeg'></img></p>","null","","1550962795172","","","","","","",""
"null","","html-keyboard-response","454","3164108","0.0-8.0-0.0-10.7","34","<p><img class= 'stimulus' src='images/baseline/landscape22.jpg'></img></p>","null","","1550962795273","","","","","","",""
"null","","html-keyboard-response","455","3164207","0.0-8.0-0.0-11.7","34","<p><img class= 'stimulus' src='images/baseline/pexels-photo-541101.jpeg'></img></p>","null","","1550962795372","","","","","","",""
"null","","html-keyboard-response","456","3164307","0.0-8.0-0.0-12.7","34","<p><img class= 'stimulus left-rotate' src='images/target/landscape20.jpg'></img></p>","null","","1550962795472","12","","","","","",""
"null","","html-keyboard-response","457","3164407","0.0-8.0-0.0-13.7","34","<p><img class= 'stimulus' src='images/baseline/pexels-photo-210617.jpeg'></img></p>","null","","1550962795571","","","","","","",""
"null","","html-keyboard-response","458","3164507","0.0-8.0-0.0-14.7","34","<p><img class= 'stimulus' src='images/baseline/Cold 7.jpg'></img></p>","null","","1550962795671","14","","","","","",""
"null","","html-keyboard-response","459","3164608","0.0-8.0-0.0-15.7","34","<p><img class= 'stimulus' src='images/baseline/building16.jpg'></img></p>","null","","1550962795773","","","","","","",""
"null","","html-keyboard-response","460","3164708","0.0-8.0-0.0-16.7","34","<p><img class= 'stimulus' src='images/baseline/05131v.jpg'></img></p>","null","","1550962795872","","","","","","",""
"null","","html-keyboard-response","461","3164824","0.0-8.0-0.0-17.7","34","<p><img class= 'stimulus' src='images/baseline/hills 1.jpg'></img></p>","null","","1550962795972","","","","","","",""
"1174.699999999255","","html-button-response","462","3167003","0.0-8.0-0.0-18.7","34","<div class = ""response_question"">WAS THE IMAGE ROTATED...</div>","","0","","","4","8","neu","left","test","true"
"1861.8000000026077","","html-button-response","463","3168867","0.0-8.0-0.0-0.8","34","","","0","","","","","","","",""
"null","","html-keyboard-response","464","3168942","0.0-8.0-0.0-1.8","34","<p><img class= 'stimulus' src='images/baseline/agriculture-countryside-crop-259280.jpg'></img></p>","null","","1550962800105","","","","","","",""
"null","","html-keyboard-response","465","3169040","0.0-8.0-0.0-2.8","34","<p><img class= 'stimulus' src='images/baseline/building2.jpg'></img></p>","null","","1550962800205","","","","","","",""
"null","","html-keyboard-response","466","3169140","0.0-8.0-0.0-3.8","34","<p><img class= 'stimulus' src='images/baseline/Nature 2.jpg'></img></p>","null","","1550962800305","","","","","","",""
"null","","html-keyboard-response","467","3169242","0.0-8.0-0.0-4.8","34","<p><img class= 'stimulus' src='images/baseline/field 4.jpg'></img></p>","null","","1550962800405","4","","","","","",""
"null","","html-keyboard-response","468","3169341","0.0-8.0-0.0-5.8","34","<p><img class= 'stimulus' src='images/baseline/landscape37.jpg'></img></p>","null","","1550962800505","","","","","","",""
"null","","html-keyboard-response","469","3169440","0.0-8.0-0.0-6.8","34","<p><img class= 'stimulus' src='images/neutral/cottontail-rabbit.jpg'></img></p>","null","","1550962800606","6","","","","","",""
"null","","html-keyboard-response","470","3169541","0.0-8.0-0.0-7.8","34","<p><img class= 'stimulus' src='images/baseline/pexels-photo-894312.jpeg'></img></p>","null","","1550962800705","","","","","","",""
"null","","html-keyboard-response","471","3169640","0.0-8.0-0.0-8.8","34","<p><img class= 'stimulus' src='images/baseline/sunny-landscape-with-dry-brush-and-mountain-background.jpg'></img></p>","null","","1550962800805","8","","","","","",""
"null","","html-keyboard-response","472","3169740","0.0-8.0-0.0-9.8","34","<p><img class= 'stimulus' src='images/baseline/Sunset 3.jpg'></img></p>","null","","1550962800905","","","","","","",""
"null","","html-keyboard-response","473","3169840","0.0-8.0-0.0-10.8","34","<p><img class= 'stimulus' src='images/baseline/Bridge 1.jpg'></img></p>","null","","1550962801005","","","","","","",""
"null","","html-keyboard-response","474","3169941","0.0-8.0-0.0-11.8","34","<p><img class= 'stimulus' src='images/baseline/pexels-photo-1287089.jpeg'></img></p>","null","","1550962801105","","","","","","",""
"null","","html-keyboard-response","475","3170041","0.0-8.0-0.0-12.8","34","<p><img class= 'stimulus' src='images/baseline/cranes 1.jpg'></img></p>","null","","1550962801205","12","","","","","",""
"null","","html-keyboard-response","476","3170140","0.0-8.0-0.0-13.8","34","<p><img class= 'stimulus' src='images/baseline/05139v.jpg'></img></p>","null","","1550962801307","","","","","","",""
"null","","html-keyboard-response","477","3170241","0.0-8.0-0.0-14.8","34","<p><img class= 'stimulus' src='images/target/tree_2.jpg'></img></p>","null","","1550962801404","14","","","","","",""
"null","","html-keyboard-response","478","3170340","0.0-8.0-0.0-15.8","34","<p><img class= 'stimulus' src='images/baseline/house1.jpg'></img></p>","null","","1550962801505","","","","","","",""
"null","","html-keyboard-response","479","3170440","0.0-8.0-0.0-16.8","34","<p><img class= 'stimulus' src='images/baseline/field 3.jpg'></img></p>","null","","1550962801606","","","","","","",""
"null","","html-keyboard-response","480","3170558","0.0-8.0-0.0-17.8","34","<p><img class= 'stimulus' src='images/baseline/flooded-bridge.jpg'></img></p>","null","","1550962801706","","","","","","",""
"985.7000000011176","","html-button-response","481","3172547","0.0-8.0-0.0-18.8","34","<div class = ""response_question"">WAS THE IMAGE ROTATED...</div>","","3","","","6","8","neu","right","test","true"
"1757.9000000003725","","html-button-response","482","3174307","0.0-8.0-0.0-0.9","34","","","0","","","","","","","",""
"null","","html-keyboard-response","483","3174391","0.0-8.0-0.0-1.9","34","<p><img class= 'stimulus' src='images/baseline/landscape29.jpg'></img></p>","null","","1550962805555","","","","","","",""
"null","","html-keyboard-response","484","3174490","0.0-8.0-0.0-2.9","34","<p><img class= 'stimulus' src='images/baseline/05189v.jpg'></img></p>","null","","1550962805655","","","","","","",""
"null","","html-keyboard-response","485","3174591","0.0-8.0-0.0-3.9","34","<p><img class= 'stimulus' src='images/baseline/Niinsaare_jarv.jpg'></img></p>","null","","1550962805756","","","","","","",""
"null","","html-keyboard-response","486","3174690","0.0-8.0-0.0-4.9","34","<p><img class= 'stimulus' src='images/neutral/Camping 4.jpg'></img></p>","null","","1550962805856","4","","","","","",""
"null","","html-keyboard-response","487","3174790","0.0-8.0-0.0-5.9","34","<p><img class= 'stimulus' src='images/baseline/Lake 4.jpg'></img></p>","null","","1550962805956","","","","","","",""
"null","","html-keyboard-response","488","3174891","0.0-8.0-0.0-6.9","34","<p><img class= 'stimulus' src='images/baseline/04085v.jpg'></img></p>","null","","1550962806057","6","","","","","",""
"null","","html-keyboard-response","489","3174991","0.0-8.0-0.0-7.9","34","<p><img class= 'stimulus' src='images/baseline/Street 4.jpg'></img></p>","null","","1550962806155","","","","","","",""
"null","","html-keyboard-response","490","3175090","0.0-8.0-0.0-8.9","34","<p><img class= 'stimulus' src='images/baseline/__08_-_ITALY_-_Forli_under_snow_-_winter_landscape_of_city_(christmas).jpg'></img></p>","null","","1550962806256","8","","","","","",""
"null","","html-keyboard-response","491","3175190","0.0-8.0-0.0-9.9","34","<p><img class= 'stimulus' src='images/baseline/Beach 3.jpg'></img></p>","null","","1550962806355","","","","","","",""
"null","","html-keyboard-response","492","3175291","0.0-8.0-0.0-10.9","34","<p><img class= 'stimulus' src='images/baseline/04117v.jpg'></img></p>","null","","1550962806456","","","","","","",""
"null","","html-keyboard-response","493","3175391","0.0-8.0-0.0-11.9","34","<p><img class= 'stimulus' src='images/baseline/seoul-410266_1920.jpg'></img></p>","null","","1550962806556","","","","","","",""
"null","","html-keyboard-response","494","3175492","0.0-8.0-0.0-12.9","34","<p><img class= 'stimulus' src='images/target/petronas-towers-433081_1920.jpg'></img></p>","null","","1550962806655","12","","","","","",""
"null","","html-keyboard-response","495","3175590","0.0-8.0-0.0-13.9","34","<p><img class= 'stimulus' src='images/baseline/Paysage_karabagh_02.jpg'></img></p>","null","","1550962806755","","","","","","",""
"null","","html-keyboard-response","496","3175691","0.0-8.0-0.0-14.9","34","<p><img class= 'stimulus' src='images/baseline/pexels-photo-440731.jpeg'></img></p>","null","","1550962806855","14","","","","","",""
"null","","html-keyboard-response","497","3175791","0.0-8.0-0.0-15.9","34","<p><img class= 'stimulus' src='images/baseline/building12.jpg'></img></p>","null","","1550962806955","","","","","","",""
"null","","html-keyboard-response","498","3175890","0.0-8.0-0.0-16.9","34","<p><img class= 'stimulus' src='images/baseline/landscape7.jpg'></img></p>","null","","1550962807056","","","","","","",""
"null","","html-keyboard-response","499","3176008","0.0-8.0-0.0-17.9","34","<p><img class= 'stimulus' src='images/baseline/house11.jpg'></img></p>","null","","1550962807155","","","","","","",""
"837.9999999995343","","html-button-response","500","3177855","0.0-8.0-0.0-18.9","34","<div class = ""response_question"">WAS THE IMAGE ROTATED...</div>","","3","","","4","8","neu","right","test","true"
"2150.000000001397","","html-button-response","501","3180006","0.0-8.0-0.0-0.10","34","","","0","","","","","","","",""
"null","","html-keyboard-response","502","3180078","0.0-8.0-0.0-1.10","34","<p><img class= 'stimulus' src='images/baseline/farmhouse6.jpg'></img></p>","null","","1550962811242","","","","","","",""
"null","","html-keyboard-response","503","3180178","0.0-8.0-0.0-2.10","34","<p><img class= 'stimulus' src='images/baseline/04179v.jpg'></img></p>","null","","1550962811342","","","","","","",""
"null","","html-keyboard-response","504","3180279","0.0-8.0-0.0-3.10","34","<p><img class= 'stimulus' src='images/baseline/landscape31.jpg'></img></p>","null","","1550962811443","","","","","","",""
"null","","html-keyboard-response","505","3180378","0.0-8.0-0.0-4.10","34","<p><img class= 'stimulus' src='images/negative/Dummy 1.jpg'></img></p>","null","","1550962811542","4","","","","","",""
"null","","html-keyboard-response","506","3180479","0.0-8.0-0.0-5.10","34","<p><img class= 'stimulus' src='images/baseline/hills 4.jpg'></img></p>","null","","1550962811644","","","","","","",""
"null","","html-keyboard-response","507","3180578","0.0-8.0-0.0-6.10","34","<p><img class= 'stimulus left-rotate' src='images/target/mitre peak.jpg'></img></p>","null","","1550962811743","6","","","","","",""
