"rt","responses","trial_type","trial_index","time_elapsed","internal_node_id","participant_id","stimulus","key_press","button_pressed","stim_onset","sequence_position","distractor_position","target_lag","distractor_type","target_orientation","phase","correct"
"9960.3000000061","{""Q0"":""36""}","survey-text","0","9964","0.0-0.0","36","","","","","","","","","","",""
"1799891.0999999933","","html-keyboard-response","1","1809864","0.0-1.0","36","Welcome to the experiment.","67","","","","","","","","",""
"12081.500000000466","","html-button-response","2","1821951","0.0-2.0","36","<p>Several images will be presented sequentially.        Each image will only be on the screen for about 100 milliseconds.</p>        <p> One of the images may be rotated 90 degrees right or left.        Watch for this image and remember if it is rotated right or left.</p>               <p>Images of people and animals will appear, and sometimes they will be unpleasant.        These will never be the rotated target image.</p>","","0","","","","","","","",""
"3958.199999993667","","html-button-response","3","1825910","0.0-3.0","36","<p><img class=""stimulus left-rotate"" src=""images/target/Tree-Landscape-Winter-Nature-Winter-Trees-Snow-2117951.jpg""></img></p><p>This is an example of an image rotated to the left.</p>","","0","","","","","","","",""
"3078.699999998091","","html-button-response","4","1828990","0.0-4.0","36","<p><img class=""stimulus"" src=""images/target/building2.jpg""></img></p><p>This is an example of an image rotated to the right.</p>","","0","","","","","","","",""
"21119.099999996135","","html-button-response","5","1850108","0.0-5.0","36","<p>We will now begin a short practice session.</p>         <p>A + symbol will appear in the middle of the screen. Please fix your gaze on the center of the +, and then click the mouse button to begin the image sequence.</p>         <p>Please avoid blinking or eye movements while the images are on the screen.</p>        <p>The image sequence will start relatively slow. After a few sequences, it will speed up.</p>","","0","","","","","","","",""
"21830.90000000084","","html-button-response","6","1871940","0.0-6.0-0.0","36","","","0","","","","","","","",""
"null","","html-keyboard-response","7","1872123","0.0-6.0-1.0","36","<p><img class= 'stimulus' src='images/baseline/Sunset 5.jpg'></img></p>","null","","1551119510825","","","","","","",""
"null","","html-keyboard-response","8","1872324","0.0-6.0-2.0","36","<p><img class= 'stimulus' src='images/baseline/field 3.jpg'></img></p>","null","","1551119511024","","","","","","",""
"null","","html-keyboard-response","9","1872524","0.0-6.0-3.0","36","<p><img class= 'stimulus' src='images/baseline/pexels-photo-221125.jpeg'></img></p>","null","","1551119511225","","","","","","",""
"null","","html-keyboard-response","10","1872724","0.0-6.0-4.0","36","<p><img class= 'stimulus' src='images/baseline/architecture-1314416_1920.jpg'></img></p>","null","","1551119511425","4","","","","","",""
"null","","html-keyboard-response","11","1872924","0.0-6.0-5.0","36","<p><img class= 'stimulus' src='images/baseline/Street 2.jpg'></img></p>","null","","1551119511625","","","","","","",""
"null","","html-keyboard-response","12","1873125","0.0-6.0-6.0","36","<p><img class= 'stimulus' src='images/baseline/landscape31.jpg'></img></p>","null","","1551119511824","6","","","","","",""
"null","","html-keyboard-response","13","1873325","0.0-6.0-7.0","36","<p><img class= 'stimulus' src='images/baseline/05264v.jpg'></img></p>","null","","1551119512024","","","","","","",""
"null","","html-keyboard-response","14","1873526","0.0-6.0-8.0","36","<p><img class= 'stimulus' src='images/baseline/church-silhouette-8712964986014Kb.jpg'></img></p>","null","","1551119512225","8","","","","","",""
"null","","html-keyboard-response","15","1873725","0.0-6.0-9.0","36","<p><img class= 'stimulus' src='images/baseline/farmhouse7.jpg'></img></p>","null","","1551119512425","","","","","","",""
"null","","html-keyboard-response","16","1873924","0.0-6.0-10.0","36","<p><img class= 'stimulus' src='images/baseline/Sky 1.jpg'></img></p>","null","","1551119512625","","","","","","",""
"null","","html-keyboard-response","17","1874125","0.0-6.0-11.0","36","<p><img class= 'stimulus' src='images/baseline/landscape12.jpg'></img></p>","null","","1551119512825","","","","","","",""
"null","","html-keyboard-response","18","1874325","0.0-6.0-12.0","36","<p><img class= 'stimulus' src='images/baseline/02982v.jpg'></img></p>","null","","1551119513025","12","","","","","",""
"null","","html-keyboard-response","19","1874525","0.0-6.0-13.0","36","<p><img class= 'stimulus' src='images/baseline/Dock 1.jpg'></img></p>","null","","1551119513225","","","","","","",""
"null","","html-keyboard-response","20","1874725","0.0-6.0-14.0","36","<p><img class= 'stimulus left-rotate' src='images/target/cactus1.jpg'></img></p>","null","","1551119513426","14","","","","","",""
"null","","html-keyboard-response","21","1874925","0.0-6.0-15.0","36","<p><img class= 'stimulus' src='images/baseline/flooded-bridge.jpg'></img></p>","null","","1551119513625","","","","","","",""
"null","","html-keyboard-response","22","1875124","0.0-6.0-16.0","36","<p><img class= 'stimulus' src='images/baseline/Bridge 1.jpg'></img></p>","null","","1551119513825","","","","","","",""
"null","","html-keyboard-response","23","1875342","0.0-6.0-17.0","36","<p><img class= 'stimulus' src='images/baseline/architecture-956332_1280.jpg'></img></p>","null","","1551119514026","","","","","","",""
"8536.000000007218","","html-button-response","24","1884884","0.0-6.0-18.0","36","<div class = ""response_question"">WAS THE IMAGE ROTATED...</div>","","1","","","6","8","bas","left","practice","true"
"3989.7999999958556","","html-button-response","25","1888876","0.0-6.0-0.1","36","","","0","","","","","","","",""
"null","","html-keyboard-response","26","1889058","0.0-6.0-1.1","36","<p><img class= 'stimulus' src='images/baseline/05255v.jpg'></img></p>","null","","1551119527758","","","","","","",""
"null","","html-keyboard-response","27","1889259","0.0-6.0-2.1","36","<p><img class= 'stimulus' src='images/baseline/field 2.jpg'></img></p>","null","","1551119527959","","","","","","",""
"null","","html-keyboard-response","28","1889459","0.0-6.0-3.1","36","<p><img class= 'stimulus' src='images/baseline/03063v.jpg'></img></p>","null","","1551119528159","","","","","","",""
"null","","html-keyboard-response","29","1889660","0.0-6.0-4.1","36","<p><img class= 'stimulus' src='images/baseline/Lake 15.jpg'></img></p>","null","","1551119528359","4","","","","","",""
"null","","html-keyboard-response","30","1889859","0.0-6.0-5.1","36","<p><img class= 'stimulus' src='images/baseline/04196v.jpg'></img></p>","null","","1551119528561","","","","","","",""
"null","","html-keyboard-response","31","1890059","0.0-6.0-6.1","36","<p><img class= 'stimulus' src='images/baseline/pexels-photo-210617.jpeg'></img></p>","null","","1551119528760","6","","","","","",""
"null","","html-keyboard-response","32","1890259","0.0-6.0-7.1","36","<p><img class= 'stimulus' src='images/baseline/building8.jpg'></img></p>","null","","1551119528959","","","","","","",""
"null","","html-keyboard-response","33","1890459","0.0-6.0-8.1","36","<p><img class= 'stimulus left-rotate' src='images/target/9525-a-lonely-single-tree-in-a-field-pv.jpg'></img></p>","null","","1551119529159","8","","","","","",""
"null","","html-keyboard-response","34","1890659","0.0-6.0-9.1","36","<p><img class= 'stimulus' src='images/baseline/pexels-photo-541101.jpeg'></img></p>","null","","1551119529359","","","","","","",""
"null","","html-keyboard-response","35","1890859","0.0-6.0-10.1","36","<p><img class= 'stimulus' src='images/baseline/scenic-mountain-landscape.jpg'></img></p>","null","","1551119529559","","","","","","",""
"null","","html-keyboard-response","36","1891060","0.0-6.0-11.1","36","<p><img class= 'stimulus' src='images/baseline/building6.jpg'></img></p>","null","","1551119529760","","","","","","",""
"null","","html-keyboard-response","37","1891259","0.0-6.0-12.1","36","<p><img class= 'stimulus' src='images/baseline/Nature 2.jpg'></img></p>","null","","1551119529960","12","","","","","",""
"null","","html-keyboard-response","38","1891460","0.0-6.0-13.1","36","<p><img class= 'stimulus' src='images/baseline/landscape37.jpg'></img></p>","null","","1551119530160","","","","","","",""
"null","","html-keyboard-response","39","1891660","0.0-6.0-14.1","36","<p><img class= 'stimulus' src='images/baseline/farmhouse8.jpg'></img></p>","null","","1551119530359","14","","","","","",""
"null","","html-keyboard-response","40","1891860","0.0-6.0-15.1","36","<p><img class= 'stimulus' src='images/baseline/05189v.jpg'></img></p>","null","","1551119530560","","","","","","",""
"null","","html-keyboard-response","41","1892059","0.0-6.0-16.1","36","<p><img class= 'stimulus' src='images/baseline/road 1(1).jpg'></img></p>","null","","1551119530759","","","","","","",""
"null","","html-keyboard-response","42","1892275","0.0-6.0-17.1","36","<p><img class= 'stimulus' src='images/baseline/landscape38.jpg'></img></p>","null","","1551119530960","","","","","","",""
"16627.50000000233","","html-button-response","43","1909909","0.0-6.0-18.1","36","<div class = ""response_question"">WAS THE IMAGE ROTATED...</div>","","0","","","6","2","bas","left","practice","true"
"7542.4000000059605","","html-button-response","44","1917455","0.0-6.0-0.2","36","","","0","","","","","","","",""
"null","","html-keyboard-response","45","1917627","0.0-6.0-1.2","36","<p><img class= 'stimulus' src='images/baseline/05158v.jpg'></img></p>","null","","1551119556328","","","","","","",""
"null","","html-keyboard-response","46","1917828","0.0-6.0-2.2","36","<p><img class= 'stimulus' src='images/baseline/Happy pose 3.jpg'></img></p>","null","","1551119556528","","","","","","",""
"null","","html-keyboard-response","47","1918028","0.0-6.0-3.2","36","<p><img class= 'stimulus' src='images/baseline/05161v.jpg'></img></p>","null","","1551119556730","","","","","","",""
"null","","html-keyboard-response","48","1918227","0.0-6.0-4.2","36","<p><img class= 'stimulus' src='images/baseline/pexels-photo-894312.jpeg'></img></p>","null","","1551119556929","4","","","","","",""
"null","","html-keyboard-response","49","1918429","0.0-6.0-5.2","36","<p><img class= 'stimulus' src='images/baseline/grand-teton-mountains.jpg'></img></p>","null","","1551119557130","","","","","","",""
"null","","html-keyboard-response","50","1918629","0.0-6.0-6.2","36","<p><img class= 'stimulus left-rotate' src='images/target/tree1.jpg'></img></p>","null","","1551119557329","6","","","","","",""
"null","","html-keyboard-response","51","1918828","0.0-6.0-7.2","36","<p><img class= 'stimulus' src='images/baseline/house6.jpg'></img></p>","null","","1551119557529","","","","","","",""
"null","","html-keyboard-response","52","1919030","0.0-6.0-8.2","36","<p><img class= 'stimulus' src='images/baseline/Grass 6.jpg'></img></p>","null","","1551119557730","8","","","","","",""
"null","","html-keyboard-response","53","1919231","0.0-6.0-9.2","36","<p><img class= 'stimulus' src='images/baseline/Street 4.jpg'></img></p>","null","","1551119557929","","","","","","",""
"null","","html-keyboard-response","54","1919429","0.0-6.0-10.2","36","<p><img class= 'stimulus' src='images/baseline/field 4.jpg'></img></p>","null","","1551119558130","","","","","","",""
"null","","html-keyboard-response","55","1919629","0.0-6.0-11.2","36","<p><img class= 'stimulus' src='images/baseline/building_at_national_conservation.jpg'></img></p>","null","","1551119558330","","","","","","",""
"null","","html-keyboard-response","56","1919830","0.0-6.0-12.2","36","<p><img class= 'stimulus' src='images/baseline/05145v.jpg'></img></p>","null","","1551119558531","12","","","","","",""
"null","","html-keyboard-response","57","1920030","0.0-6.0-13.2","36","<p><img class= 'stimulus' src='images/baseline/vintage-art-deco-storefront.jpg'></img></p>","null","","1551119558729","","","","","","",""
"null","","html-keyboard-response","58","1920230","0.0-6.0-14.2","36","<p><img class= 'stimulus' src='images/baseline/05167v.jpg'></img></p>","null","","1551119558930","14","","","","","",""
"null","","html-keyboard-response","59","1920430","0.0-6.0-15.2","36","<p><img class= 'stimulus' src='images/baseline/lake 1.jpg'></img></p>","null","","1551119559130","","","","","","",""
"null","","html-keyboard-response","60","1920629","0.0-6.0-16.2","36","<p><img class= 'stimulus' src='images/baseline/Aletschgletscher-Eggishorn.jpg'></img></p>","null","","1551119559329","","","","","","",""
"null","","html-keyboard-response","61","1920846","0.0-6.0-17.2","36","<p><img class= 'stimulus' src='images/baseline/04300v.jpg'></img></p>","null","","1551119559529","","","","","","",""
"789.4999999988358","","html-button-response","62","1922639","0.0-6.0-18.2","36","<div class = ""response_question"">WAS THE IMAGE ROTATED...</div>","","0","","","4","2","bas","left","practice","true"
"2278.5000000004657","","html-button-response","63","1924918","0.0-6.0-0.3","36","","","0","","","","","","","",""
"null","","html-keyboard-response","64","1925094","0.0-6.0-1.3","36","<p><img class= 'stimulus' src='images/baseline/Skyscraper 1.jpg'></img></p>","null","","1551119563794","","","","","","",""
"null","","html-keyboard-response","65","1925294","0.0-6.0-2.3","36","<p><img class= 'stimulus' src='images/baseline/farmhouse1.jpg'></img></p>","null","","1551119563994","","","","","","",""
"null","","html-keyboard-response","66","1925494","0.0-6.0-3.3","36","<p><img class= 'stimulus' src='images/baseline/pexels-photo-808465.jpeg'></img></p>","null","","1551119564196","","","","","","",""
"null","","html-keyboard-response","67","1925695","0.0-6.0-4.3","36","<p><img class= 'stimulus' src='images/baseline/04062v.jpg'></img></p>","null","","1551119564394","4","","","","","",""
"null","","html-keyboard-response","68","1925895","0.0-6.0-5.3","36","<p><img class= 'stimulus' src='images/baseline/kokkari-1523011968Xfr.jpg'></img></p>","null","","1551119564595","","","","","","",""
"null","","html-keyboard-response","69","1926095","0.0-6.0-6.3","36","<p><img class= 'stimulus' src='images/target/building17.jpg'></img></p>","null","","1551119564795","6","","","","","",""
"null","","html-keyboard-response","70","1926296","0.0-6.0-7.3","36","<p><img class= 'stimulus' src='images/baseline/landscape40.jpg'></img></p>","null","","1551119564995","","","","","","",""
"null","","html-keyboard-response","71","1926496","0.0-6.0-8.3","36","<p><img class= 'stimulus' src='images/baseline/02988v.jpg'></img></p>","null","","1551119565195","8","","","","","",""
"null","","html-keyboard-response","72","1926696","0.0-6.0-9.3","36","<p><img class= 'stimulus' src='images/baseline/04040v.jpg'></img></p>","null","","1551119565397","","","","","","",""
"null","","html-keyboard-response","73","1926897","0.0-6.0-10.3","36","<p><img class= 'stimulus' src='images/baseline/Skijump 1.jpg'></img></p>","null","","1551119565598","","","","","","",""
"null","","html-keyboard-response","74","1927096","0.0-6.0-11.3","36","<p><img class= 'stimulus' src='images/baseline/landscape8.jpg'></img></p>","null","","1551119565797","","","","","","",""
"null","","html-keyboard-response","75","1927298","0.0-6.0-12.3","36","<p><img class= 'stimulus' src='images/baseline/Nature 1.jpg'></img></p>","null","","1551119565998","12","","","","","",""
"null","","html-keyboard-response","76","1927497","0.0-6.0-13.3","36","<p><img class= 'stimulus' src='images/baseline/hiking-trail.jpg'></img></p>","null","","1551119566199","","","","","","",""
"null","","html-keyboard-response","77","1927699","0.0-6.0-14.3","36","<p><img class= 'stimulus' src='images/baseline/03114v.jpg'></img></p>","null","","1551119566397","14","","","","","",""
"null","","html-keyboard-response","78","1927897","0.0-6.0-15.3","36","<p><img class= 'stimulus' src='images/baseline/landscape3.jpg'></img></p>","null","","1551119566598","","","","","","",""
"null","","html-keyboard-response","79","1928097","0.0-6.0-16.3","36","<p><img class= 'stimulus' src='images/baseline/Beach 2.jpg'></img></p>","null","","1551119566798","","","","","","",""
"null","","html-keyboard-response","80","1928314","0.0-6.0-17.3","36","<p><img class= 'stimulus' src='images/baseline/99_-_Machu_Picchu_-_Juin_2009.edit3.jpg'></img></p>","null","","1551119566999","","","","","","",""
"1254.9999999899883","","html-button-response","81","1930583","0.0-6.0-18.3","36","<div class = ""response_question"">WAS THE IMAGE ROTATED...</div>","","3","","","4","2","bas","right","practice","true"
"2454.2999999974854","","html-button-response","82","1933038","0.0-6.0-0.4","36","","","0","","","","","","","",""
"null","","html-keyboard-response","83","1933163","0.0-6.0-1.4","36","<p><img class= 'stimulus' src='images/baseline/Beach 8.jpg'></img></p>","null","","1551119571914","","","","","","",""
"null","","html-keyboard-response","84","1933312","0.0-6.0-2.4","36","<p><img class= 'stimulus' src='images/baseline/building12.jpg'></img></p>","null","","1551119572064","","","","","","",""
"null","","html-keyboard-response","85","1933462","0.0-6.0-3.4","36","<p><img class= 'stimulus' src='images/baseline/03162v.jpg'></img></p>","null","","1551119572214","","","","","","",""
"null","","html-keyboard-response","86","1933612","0.0-6.0-4.4","36","<p><img class= 'stimulus' src='images/baseline/hills 1.jpg'></img></p>","null","","1551119572363","4","","","","","",""
"null","","html-keyboard-response","87","1933762","0.0-6.0-5.4","36","<p><img class= 'stimulus' src='images/baseline/02977v.jpg'></img></p>","null","","1551119572513","","","","","","",""
"null","","html-keyboard-response","88","1933912","0.0-6.0-6.4","36","<p><img class= 'stimulus' src='images/baseline/landscape34.jpg'></img></p>","null","","1551119572663","6","","","","","",""
"null","","html-keyboard-response","89","1934062","0.0-6.0-7.4","36","<p><img class= 'stimulus' src='images/baseline/building2.jpg'></img></p>","null","","1551119572813","","","","","","",""
"null","","html-keyboard-response","90","1934213","0.0-6.0-8.4","36","<p><img class= 'stimulus' src='images/baseline/03098v.jpg'></img></p>","null","","1551119572962","8","","","","","",""
"null","","html-keyboard-response","91","1934362","0.0-6.0-9.4","36","<p><img class= 'stimulus' src='images/baseline/04085v.jpg'></img></p>","null","","1551119573114","","","","","","",""
"null","","html-keyboard-response","92","1934512","0.0-6.0-10.4","36","<p><img class= 'stimulus' src='images/baseline/landscape15.jpg'></img></p>","null","","1551119573262","","","","","","",""
"null","","html-keyboard-response","93","1934661","0.0-6.0-11.4","36","<p><img class= 'stimulus' src='images/baseline/landscape7.jpg'></img></p>","null","","1551119573413","","","","","","",""
"null","","html-keyboard-response","94","1934811","0.0-6.0-12.4","36","<p><img class= 'stimulus' src='images/baseline/bird-flying-at-sunset.jpg'></img></p>","null","","1551119573561","12","","","","","",""
"null","","html-keyboard-response","95","1934962","0.0-6.0-13.4","36","<p><img class= 'stimulus' src='images/baseline/building16.jpg'></img></p>","null","","1551119573711","","","","","","",""
"null","","html-keyboard-response","96","1935112","0.0-6.0-14.4","36","<p><img class= 'stimulus' src='images/target/tree-740901_1280.jpg'></img></p>","null","","1551119573862","14","","","","","",""
"null","","html-keyboard-response","97","1935261","0.0-6.0-15.4","36","<p><img class= 'stimulus' src='images/baseline/Sunset 4.jpg'></img></p>","null","","1551119574012","","","","","","",""
"null","","html-keyboard-response","98","1935411","0.0-6.0-16.4","36","<p><img class= 'stimulus' src='images/baseline/05240v.jpg'></img></p>","null","","1551119574162","","","","","","",""
"null","","html-keyboard-response","99","1935578","0.0-6.0-17.4","36","<p><img class= 'stimulus' src='images/baseline/red-rocks-park.jpg'></img></p>","null","","1551119574312","","","","","","",""
"2159.299999999348","","html-button-response","100","1938744","0.0-6.0-18.4","36","<div class = ""response_question"">WAS THE IMAGE ROTATED...</div>","","3","","","6","8","bas","right","practice","true"
"3509.000000005588","","html-button-response","101","1942255","0.0-6.0-0.5","36","","","0","","","","","","","",""
"null","","html-keyboard-response","102","1942377","0.0-6.0-1.5","36","<p><img class= 'stimulus' src='images/baseline/pexels-photo-59321.jpeg'></img></p>","null","","1551119581128","","","","","","",""
"null","","html-keyboard-response","103","1942527","0.0-6.0-2.5","36","<p><img class= 'stimulus' src='images/baseline/pexels-photo-1054289.jpeg'></img></p>","null","","1551119581278","","","","","","",""
"null","","html-keyboard-response","104","1942678","0.0-6.0-3.5","36","<p><img class= 'stimulus' src='images/baseline/lookout_tower.jpg'></img></p>","null","","1551119581428","","","","","","",""
"null","","html-keyboard-response","105","1942827","0.0-6.0-4.5","36","<p><img class= 'stimulus' src='images/baseline/04098v.jpg'></img></p>","null","","1551119581577","4","","","","","",""
"null","","html-keyboard-response","106","1942978","0.0-6.0-5.5","36","<p><img class= 'stimulus' src='images/baseline/02971v.jpg'></img></p>","null","","1551119581728","","","","","","",""
"null","","html-keyboard-response","107","1943128","0.0-6.0-6.5","36","<p><img class= 'stimulus' src='images/baseline/dirt-road-or-trail-through-park.jpg'></img></p>","null","","1551119581878","6","","","","","",""
"null","","html-keyboard-response","108","1943278","0.0-6.0-7.5","36","<p><img class= 'stimulus' src='images/baseline/Sunset 6.jpg'></img></p>","null","","1551119582028","","","","","","",""
"null","","html-keyboard-response","109","1943427","0.0-6.0-8.5","36","<p><img class= 'stimulus' src='images/baseline/landscape23.jpg'></img></p>","null","","1551119582179","8","","","","","",""
"null","","html-keyboard-response","110","1943577","0.0-6.0-9.5","36","<p><img class= 'stimulus' src='images/baseline/geese-flying-over-lake-at-dusk.jpg'></img></p>","null","","1551119582328","","","","","","",""
"null","","html-keyboard-response","111","1943727","0.0-6.0-10.5","36","<p><img class= 'stimulus' src='images/baseline/pexels-photo-568236.jpeg'></img></p>","null","","1551119582478","","","","","","",""
"null","","html-keyboard-response","112","1943878","0.0-6.0-11.5","36","<p><img class= 'stimulus' src='images/baseline/agriculture-bright-clouds-440731.jpg'></img></p>","null","","1551119582628","","","","","","",""
"null","","html-keyboard-response","113","1944027","0.0-6.0-12.5","36","<p><img class= 'stimulus' src='images/target/palm-trees-1209125_640.jpg'></img></p>","null","","1551119582777","12","","","","","",""
"null","","html-keyboard-response","114","1944177","0.0-6.0-13.5","36","<p><img class= 'stimulus' src='images/baseline/05131v.jpg'></img></p>","null","","1551119582929","","","","","","",""
"null","","html-keyboard-response","115","1944328","0.0-6.0-14.5","36","<p><img class= 'stimulus' src='images/baseline/pexels-photo-280222.jpeg'></img></p>","null","","1551119583078","14","","","","","",""
"null","","html-keyboard-response","116","1944477","0.0-6.0-15.5","36","<p><img class= 'stimulus' src='images/baseline/field 1.jpg'></img></p>","null","","1551119583228","","","","","","",""
"null","","html-keyboard-response","117","1944627","0.0-6.0-16.5","36","<p><img class= 'stimulus' src='images/baseline/Skyscraper 2.jpg'></img></p>","null","","1551119583379","","","","","","",""
"null","","html-keyboard-response","118","1944795","0.0-6.0-17.5","36","<p><img class= 'stimulus' src='images/baseline/landscape29.jpg'></img></p>","null","","1551119583529","","","","","","",""
"3464.399999997113","","html-button-response","119","1949263","0.0-6.0-18.5","36","<div class = ""response_question"">WAS THE IMAGE ROTATED...</div>","","3","","","4","8","bas","right","practice","true"
"2270.4000000085216","","html-button-response","120","1951535","0.0-6.0-0.6","36","","","0","","","","","","","",""
"null","","html-keyboard-response","121","1951660","0.0-6.0-1.6","36","<p><img class= 'stimulus' src='images/baseline/Lake 14.jpg'></img></p>","null","","1551119590411","","","","","","",""
"null","","html-keyboard-response","122","1951811","0.0-6.0-2.6","36","<p><img class= 'stimulus' src='images/baseline/lake 2.jpg'></img></p>","null","","1551119590561","","","","","","",""
"null","","html-keyboard-response","123","1951961","0.0-6.0-3.6","36","<p><img class= 'stimulus' src='images/baseline/landscape11.jpg'></img></p>","null","","1551119590711","","","","","","",""
"null","","html-keyboard-response","124","1952110","0.0-6.0-4.6","36","<p><img class= 'stimulus' src='images/baseline/sunset-over-the-lake.jpg'></img></p>","null","","1551119590861","4","","","","","",""
"null","","html-keyboard-response","125","1952261","0.0-6.0-5.6","36","<p><img class= 'stimulus' src='images/baseline/trees 23.jpg'></img></p>","null","","1551119591012","","","","","","",""
"null","","html-keyboard-response","126","1952411","0.0-6.0-6.6","36","<p><img class= 'stimulus' src='images/baseline/valley 2.jpg'></img></p>","null","","1551119591161","6","","","","","",""
"null","","html-keyboard-response","127","1952561","0.0-6.0-7.6","36","<p><img class= 'stimulus' src='images/baseline/05186v.jpg'></img></p>","null","","1551119591312","","","","","","",""
"null","","html-keyboard-response","128","1952712","0.0-6.0-8.6","36","<p><img class= 'stimulus' src='images/target/tree-3563269_640.jpg'></img></p>","null","","1551119591461","8","","","","","",""
"null","","html-keyboard-response","129","1952861","0.0-6.0-9.6","36","<p><img class= 'stimulus' src='images/baseline/Lake 16.jpg'></img></p>","null","","1551119591611","","","","","","",""
"null","","html-keyboard-response","130","1953010","0.0-6.0-10.6","36","<p><img class= 'stimulus' src='images/baseline/Dirt 2.jpg'></img></p>","null","","1551119591762","","","","","","",""
"null","","html-keyboard-response","131","1953161","0.0-6.0-11.6","36","<p><img class= 'stimulus' src='images/baseline/03217v.jpg'></img></p>","null","","1551119591911","","","","","","",""
"null","","html-keyboard-response","132","1953311","0.0-6.0-12.6","36","<p><img class= 'stimulus' src='images/baseline/03112v.jpg'></img></p>","null","","1551119592061","12","","","","","",""
"null","","html-keyboard-response","133","1953461","0.0-6.0-13.6","36","<p><img class= 'stimulus' src='images/baseline/04031v.jpg'></img></p>","null","","1551119592211","","","","","","",""
"null","","html-keyboard-response","134","1953611","0.0-6.0-14.6","36","<p><img class= 'stimulus' src='images/baseline/Desert_View_Indian_Wells.jpg'></img></p>","null","","1551119592361","14","","","","","",""
"null","","html-keyboard-response","135","1953761","0.0-6.0-15.6","36","<p><img class= 'stimulus' src='images/baseline/house11.jpg'></img></p>","null","","1551119592513","","","","","","",""
"null","","html-keyboard-response","136","1953911","0.0-6.0-16.6","36","<p><img class= 'stimulus' src='images/baseline/__08_-_ITALY_-_Forli_under_snow_-_winter_landscape_of_city_(christmas).jpg'></img></p>","null","","1551119592661","","","","","","",""
"null","","html-keyboard-response","137","1954077","0.0-6.0-17.6","36","<p><img class= 'stimulus' src='images/baseline/pexels-photo-414491.jpeg'></img></p>","null","","1551119592812","","","","","","",""
"1788.2000000099652","","html-button-response","138","1956872","0.0-6.0-18.6","36","<div class = ""response_question"">WAS THE IMAGE ROTATED...</div>","","3","","","6","2","bas","right","practice","true"
"2182.1999999955297","","html-button-response","139","1959055","0.0-6.0-0.7","36","","","0","","","","","","","",""
"null","","html-keyboard-response","140","1959177","0.0-6.0-1.7","36","<p><img class= 'stimulus' src='images/baseline/Sunset 3.jpg'></img></p>","null","","1551119597928","","","","","","",""
"null","","html-keyboard-response","141","1959327","0.0-6.0-2.7","36","<p><img class= 'stimulus' src='images/baseline/landscape2.jpg'></img></p>","null","","1551119598078","","","","","","",""
"null","","html-keyboard-response","142","1959478","0.0-6.0-3.7","36","<p><img class= 'stimulus' src='images/baseline/building9.jpg'></img></p>","null","","1551119598227","","","","","","",""
"null","","html-keyboard-response","143","1959628","0.0-6.0-4.7","36","<p><img class= 'stimulus' src='images/baseline/lone-old-cottonwood-tree.jpg'></img></p>","null","","1551119598379","4","","","","","",""
"null","","html-keyboard-response","144","1959778","0.0-6.0-5.7","36","<p><img class= 'stimulus' src='images/baseline/03212v.jpg'></img></p>","null","","1551119598528","","","","","","",""
"null","","html-keyboard-response","145","1959927","0.0-6.0-6.7","36","<p><img class= 'stimulus' src='images/baseline/04086v.jpg'></img></p>","null","","1551119598678","6","","","","","",""
"null","","html-keyboard-response","146","1960077","0.0-6.0-7.7","36","<p><img class= 'stimulus' src='images/baseline/Cold 7.jpg'></img></p>","null","","1551119598828","","","","","","",""
"null","","html-keyboard-response","147","1960229","0.0-6.0-8.7","36","<p><img class= 'stimulus' src='images/baseline/04021v.jpg'></img></p>","null","","1551119598979","8","","","","","",""
"null","","html-keyboard-response","148","1960377","0.0-6.0-9.7","36","<p><img class= 'stimulus' src='images/baseline/03201v.jpg'></img></p>","null","","1551119599129","","","","","","",""
"null","","html-keyboard-response","149","1960527","0.0-6.0-10.7","36","<p><img class= 'stimulus' src='images/baseline/05242v.jpg'></img></p>","null","","1551119599278","","","","","","",""
"null","","html-keyboard-response","150","1960678","0.0-6.0-11.7","36","<p><img class= 'stimulus' src='images/baseline/04014v.jpg'></img></p>","null","","1551119599427","","","","","","",""
"null","","html-keyboard-response","151","1960828","0.0-6.0-12.7","36","<p><img class= 'stimulus left-rotate' src='images/target/coconut-3396945_640.jpg'></img></p>","null","","1551119599578","12","","","","","",""
"null","","html-keyboard-response","152","1960978","0.0-6.0-13.7","36","<p><img class= 'stimulus' src='images/baseline/04130v.jpg'></img></p>","null","","1551119599728","","","","","","",""
"null","","html-keyboard-response","153","1961129","0.0-6.0-14.7","36","<p><img class= 'stimulus' src='images/baseline/Street 3.jpg'></img></p>","null","","1551119599878","14","","","","","",""
"null","","html-keyboard-response","154","1961277","0.0-6.0-15.7","36","<p><img class= 'stimulus' src='images/baseline/lake3.jpg'></img></p>","null","","1551119600028","","","","","","",""
"null","","html-keyboard-response","155","1961428","0.0-6.0-16.7","36","<p><img class= 'stimulus' src='images/baseline/Lake 4.jpg'></img></p>","null","","1551119600178","","","","","","",""
"null","","html-keyboard-response","156","1961596","0.0-6.0-17.7","36","<p><img class= 'stimulus' src='images/baseline/Peyto_Lake-Banff_NP-Canada.jpg'></img></p>","null","","1551119600330","","","","","","",""
"1352.2999999986496","","html-button-response","157","1963951","0.0-6.0-18.7","36","<div class = ""response_question"">WAS THE IMAGE ROTATED...</div>","","0","","","4","8","bas","left","practice","true"
"2398.600000000326","","html-button-response","158","1966351","0.0-6.0-0.8","36","","","0","","","","","","","",""
"null","","html-keyboard-response","159","1966428","0.0-6.0-1.8","36","<p><img class= 'stimulus' src='images/baseline/Bahia_Onelli_Parque_Nacional_Los_Glaciares_Patagonia_Argentina_Luca_Galuzzi_2005.jpg'></img></p>","null","","1551119605228","","","","","","",""
"null","","html-keyboard-response","160","1966527","0.0-6.0-2.8","36","<p><img class= 'stimulus' src='images/baseline/Beach 3.jpg'></img></p>","null","","1551119605328","","","","","","",""
"null","","html-keyboard-response","161","1966627","0.0-6.0-3.8","36","<p><img class= 'stimulus' src='images/baseline/Waterfall 1.jpg'></img></p>","null","","1551119605429","","","","","","",""
"null","","html-keyboard-response","162","1966727","0.0-6.0-4.8","36","<p><img class= 'stimulus' src='images/baseline/landscape6.jpg'></img></p>","null","","1551119605528","4","","","","","",""
"null","","html-keyboard-response","163","1966828","0.0-6.0-5.8","36","<p><img class= 'stimulus' src='images/baseline/Path 1.jpg'></img></p>","null","","1551119605627","","","","","","",""
"null","","html-keyboard-response","164","1966927","0.0-6.0-6.8","36","<p><img class= 'stimulus' src='images/baseline/road.jpg'></img></p>","null","","1551119605727","6","","","","","",""
"null","","html-keyboard-response","165","1967028","0.0-6.0-7.8","36","<p><img class= 'stimulus' src='images/baseline/architecture_modern_architecture_852928.jpg'></img></p>","null","","1551119605829","","","","","","",""
"null","","html-keyboard-response","166","1967128","0.0-6.0-8.8","36","<p><img class= 'stimulus' src='images/baseline/pexels-photo-1048039.jpeg'></img></p>","null","","1551119605928","8","","","","","",""
"null","","html-keyboard-response","167","1967228","0.0-6.0-9.8","36","<p><img class= 'stimulus' src='images/baseline/pexels-photo-1840893.jpeg'></img></p>","null","","1551119606028","","","","","","",""
"null","","html-keyboard-response","168","1967328","0.0-6.0-10.8","36","<p><img class= 'stimulus' src='images/baseline/05247v.jpg'></img></p>","null","","1551119606129","","","","","","",""
"null","","html-keyboard-response","169","1967427","0.0-6.0-11.8","36","<p><img class= 'stimulus' src='images/baseline/house7.jpg'></img></p>","null","","1551119606228","","","","","","",""
"null","","html-keyboard-response","170","1967529","0.0-6.0-12.8","36","<p><img class= 'stimulus' src='images/baseline/02945v.jpg'></img></p>","null","","1551119606328","12","","","","","",""
"null","","html-keyboard-response","171","1967627","0.0-6.0-13.8","36","<p><img class= 'stimulus' src='images/baseline/Street 1.jpg'></img></p>","null","","1551119606429","","","","","","",""
"null","","html-keyboard-response","172","1967727","0.0-6.0-14.8","36","<p><img class= 'stimulus left-rotate' src='images/target/mexico_tower_latin_american.jpg'></img></p>","null","","1551119606528","14","","","","","",""
"null","","html-keyboard-response","173","1967827","0.0-6.0-15.8","36","<p><img class= 'stimulus' src='images/baseline/pexels-photo-1261728.jpeg'></img></p>","null","","1551119606629","","","","","","",""
"null","","html-keyboard-response","174","1967928","0.0-6.0-16.8","36","<p><img class= 'stimulus' src='images/baseline/pexels-photo-459203.jpeg'></img></p>","null","","1551119606728","","","","","","",""
"null","","html-keyboard-response","175","1968044","0.0-6.0-17.8","36","<p><img class= 'stimulus' src='images/baseline/landscape19.jpg'></img></p>","null","","1551119606828","","","","","","",""
"1707.2000000043772","","html-button-response","176","1970764","0.0-6.0-18.8","36","<div class = ""response_question"">WAS THE IMAGE ROTATED...</div>","","1","","","6","8","bas","left","practice","true"
"2390.6000000131316","","html-button-response","177","1973156","0.0-6.0-0.9","36","","","0","","","","","","","",""
"null","","html-keyboard-response","178","1973241","0.0-6.0-1.9","36","<p><img class= 'stimulus' src='images/baseline/Road 1.jpg'></img></p>","null","","1551119612041","","","","","","",""
"null","","html-keyboard-response","179","1973341","0.0-6.0-2.9","36","<p><img class= 'stimulus' src='images/baseline/05280v.jpg'></img></p>","null","","1551119612142","","","","","","",""
"null","","html-keyboard-response","180","1973441","0.0-6.0-3.9","36","<p><img class= 'stimulus' src='images/baseline/04284v.jpg'></img></p>","null","","1551119612242","","","","","","",""
"null","","html-keyboard-response","181","1973541","0.0-6.0-4.9","36","<p><img class= 'stimulus' src='images/baseline/cranes 1.jpg'></img></p>","null","","1551119612341","4","","","","","",""
"null","","html-keyboard-response","182","1973642","0.0-6.0-5.9","36","<p><img class= 'stimulus' src='images/baseline/landscape16.jpg'></img></p>","null","","1551119612442","","","","","","",""
"null","","html-keyboard-response","183","1973742","0.0-6.0-6.9","36","<p><img class= 'stimulus left-rotate' src='images/target/church-2306128_640.jpg'></img></p>","null","","1551119612543","6","","","","","",""
"null","","html-keyboard-response","184","1973842","0.0-6.0-7.9","36","<p><img class= 'stimulus' src='images/baseline/pexels-photo-750108.jpeg'></img></p>","null","","1551119612641","","","","","","",""
"null","","html-keyboard-response","185","1973941","0.0-6.0-8.9","36","<p><img class= 'stimulus' src='images/baseline/pexels-photo-427676.jpeg'></img></p>","null","","1551119612743","8","","","","","",""
"null","","html-keyboard-response","186","1974042","0.0-6.0-9.9","36","<p><img class= 'stimulus' src='images/baseline/04064v.jpg'></img></p>","null","","1551119612842","","","","","","",""
"null","","html-keyboard-response","187","1974142","0.0-6.0-10.9","36","<p><img class= 'stimulus' src='images/baseline/Paysage_karabagh_02.jpg'></img></p>","null","","1551119612943","","","","","","",""
"null","","html-keyboard-response","188","1974242","0.0-6.0-11.9","36","<p><img class= 'stimulus' src='images/baseline/meadow-with-mountain-in-background.jpg'></img></p>","null","","1551119613043","","","","","","",""
"null","","html-keyboard-response","189","1974341","0.0-6.0-12.9","36","<p><img class= 'stimulus' src='images/baseline/house2.jpg'></img></p>","null","","1551119613141","12","","","","","",""
"null","","html-keyboard-response","190","1974441","0.0-6.0-13.9","36","<p><img class= 'stimulus' src='images/baseline/river 1.jpg'></img></p>","null","","1551119613242","","","","","","",""
"null","","html-keyboard-response","191","1974542","0.0-6.0-14.9","36","<p><img class= 'stimulus' src='images/baseline/building5.jpg'></img></p>","null","","1551119613342","14","","","","","",""
"null","","html-keyboard-response","192","1974641","0.0-6.0-15.9","36","<p><img class= 'stimulus' src='images/baseline/02960v.jpg'></img></p>","null","","1551119613441","","","","","","",""
"null","","html-keyboard-response","193","1974741","0.0-6.0-16.9","36","<p><img class= 'stimulus' src='images/baseline/building3.jpg'></img></p>","null","","1551119613542","","","","","","",""
"null","","html-keyboard-response","194","1974859","0.0-6.0-17.9","36","<p><img class= 'stimulus' src='images/baseline/Linden,_paysage.jpg'></img></p>","null","","1551119613642","","","","","","",""
"830.3000000016764","","html-button-response","195","1976692","0.0-6.0-18.9","36","<div class = ""response_question"">WAS THE IMAGE ROTATED...</div>","","0","","","4","2","bas","left","practice","true"
"2406.300000002375","","html-button-response","196","1979100","0.0-6.0-0.10","36","","","0","","","","","","","",""
"null","","html-keyboard-response","197","1979175","0.0-6.0-1.10","36","<p><img class= 'stimulus' src='images/baseline/04222v.jpg'></img></p>","null","","1551119617975","","","","","","",""
"null","","html-keyboard-response","198","1979275","0.0-6.0-2.10","36","<p><img class= 'stimulus' src='images/baseline/agriculture-cereal-clouds-175389.jpg'></img></p>","null","","1551119618075","","","","","","",""
"null","","html-keyboard-response","199","1979375","0.0-6.0-3.10","36","<p><img class= 'stimulus' src='images/baseline/04063v.jpg'></img></p>","null","","1551119618176","","","","","","",""
"null","","html-keyboard-response","200","1979476","0.0-6.0-4.10","36","<p><img class= 'stimulus' src='images/baseline/building4.jpg'></img></p>","null","","1551119618277","4","","","","","",""
"null","","html-keyboard-response","201","1979575","0.0-6.0-5.10","36","<p><img class= 'stimulus' src='images/baseline/04060v.jpg'></img></p>","null","","1551119618376","","","","","","",""
"null","","html-keyboard-response","202","1979675","0.0-6.0-6.10","36","<p><img class= 'stimulus' src='images/baseline/02962v.jpg'></img></p>","null","","1551119618475","6","","","","","",""
"null","","html-keyboard-response","203","1979774","0.0-6.0-7.10","36","<p><img class= 'stimulus' src='images/baseline/farmhouse3.jpg'></img></p>","null","","1551119618574","","","","","","",""
"null","","html-keyboard-response","204","1979875","0.0-6.0-8.10","36","<p><img class= 'stimulus' src='images/baseline/04158v.jpg'></img></p>","null","","1551119618674","8","","","","","",""
"null","","html-keyboard-response","205","1979975","0.0-6.0-9.10","36","<p><img class= 'stimulus' src='images/baseline/03220v.jpg'></img></p>","null","","1551119618775","","","","","","",""
"null","","html-keyboard-response","206","1980075","0.0-6.0-10.10","36","<p><img class= 'stimulus' src='images/baseline/05292v.jpg'></img></p>","null","","1551119618875","","","","","","",""
"null","","html-keyboard-response","207","1980175","0.0-6.0-11.10","36","<p><img class= 'stimulus' src='images/baseline/03066v.jpg'></img></p>","null","","1551119618975","","","","","","",""
"null","","html-keyboard-response","208","1980275","0.0-6.0-12.10","36","<p><img class= 'stimulus left-rotate' src='images/target/transamerica-pyramid-530061_640.jpg'></img></p>","null","","1551119619076","12","","","","","",""
"null","","html-keyboard-response","209","1980374","0.0-6.0-13.10","36","<p><img class= 'stimulus' src='images/baseline/4k-wallpaper-agriculture-clouds-842711.jpg'></img></p>","null","","1551119619175","","","","","","",""
"null","","html-keyboard-response","210","1980474","0.0-6.0-14.10","36","<p><img class= 'stimulus' src='images/baseline/04201v.jpg'></img></p>","null","","1551119619275","14","","","","","",""
"null","","html-keyboard-response","211","1980575","0.0-6.0-15.10","36","<p><img class= 'stimulus' src='images/baseline/Sailing 3.jpg'></img></p>","null","","1551119619376","","","","","","",""
"null","","html-keyboard-response","212","1980674","0.0-6.0-16.10","36","<p><img class= 'stimulus' src='images/baseline/town-square-in-wroclaw-1539098440MZy.jpg'></img></p>","null","","1551119619476","","","","","","",""
"null","","html-keyboard-response","213","1980791","0.0-6.0-17.10","36","<p><img class= 'stimulus' src='images/baseline/farmhouse11.jpg'></img></p>","null","","1551119619574","","","","","","",""
"489.7000000057742","","html-button-response","214","1982285","0.0-6.0-18.10","36","<div class = ""response_question"">WAS THE IMAGE ROTATED...</div>","","1","","","4","8","bas","left","practice","true"
"1326.3999999908265","","html-button-response","215","1983612","0.0-6.0-0.11","36","","","0","","","","","","","",""
"null","","html-keyboard-response","216","1983691","0.0-6.0-1.11","36","<p><img class= 'stimulus' src='images/baseline/empire-state-building.jpg'></img></p>","null","","1551119622492","","","","","","",""
"null","","html-keyboard-response","217","1983791","0.0-6.0-2.11","36","<p><img class= 'stimulus' src='images/baseline/foreclosed_home.jpg'></img></p>","null","","1551119622592","","","","","","",""
"null","","html-keyboard-response","218","1983893","0.0-6.0-3.11","36","<p><img class= 'stimulus' src='images/baseline/02947v.jpg'></img></p>","null","","1551119622692","","","","","","",""
"null","","html-keyboard-response","219","1983991","0.0-6.0-4.11","36","<p><img class= 'stimulus' src='images/baseline/04162v.jpg'></img></p>","null","","1551119622791","4","","","","","",""
"null","","html-keyboard-response","220","1984091","0.0-6.0-5.11","36","<p><img class= 'stimulus' src='images/baseline/house1.jpg'></img></p>","null","","1551119622891","","","","","","",""
"null","","html-keyboard-response","221","1984192","0.0-6.0-6.11","36","<p><img class= 'stimulus' src='images/target/dreifaltigkeitskirche_sandhausen_837699.jpg'></img></p>","null","","1551119622992","6","","","","","",""
"null","","html-keyboard-response","222","1984291","0.0-6.0-7.11","36","<p><img class= 'stimulus' src='images/baseline/house10.jpg'></img></p>","null","","1551119623093","","","","","","",""
"null","","html-keyboard-response","223","1984392","0.0-6.0-8.11","36","<p><img class= 'stimulus' src='images/baseline/landscape13.jpg'></img></p>","null","","1551119623192","8","","","","","",""
"null","","html-keyboard-response","224","1984491","0.0-6.0-9.11","36","<p><img class= 'stimulus' src='images/baseline/pexels-photo-1837621.jpeg'></img></p>","null","","1551119623291","","","","","","",""
"null","","html-keyboard-response","225","1984591","0.0-6.0-10.11","36","<p><img class= 'stimulus' src='images/baseline/pexels-photo-1287089.jpeg'></img></p>","null","","1551119623392","","","","","","",""
"null","","html-keyboard-response","226","1984692","0.0-6.0-11.11","36","<p><img class= 'stimulus' src='images/baseline/05203v.jpg'></img></p>","null","","1551119623493","","","","","","",""
"null","","html-keyboard-response","227","1984792","0.0-6.0-12.11","36","<p><img class= 'stimulus' src='images/baseline/autumn-in-red-rocks-park.jpg'></img></p>","null","","1551119623592","12","","","","","",""
"null","","html-keyboard-response","228","1984891","0.0-6.0-13.11","36","<p><img class= 'stimulus' src='images/baseline/05139v.jpg'></img></p>","null","","1551119623692","","","","","","",""
"null","","html-keyboard-response","229","1984991","0.0-6.0-14.11","36","<p><img class= 'stimulus' src='images/baseline/house8.jpg'></img></p>","null","","1551119623791","14","","","","","",""
"null","","html-keyboard-response","230","1985091","0.0-6.0-15.11","36","<p><img class= 'stimulus' src='images/baseline/cyrillic.jpg'></img></p>","null","","1551119623893","","","","","","",""
"null","","html-keyboard-response","231","1985191","0.0-6.0-16.11","36","<p><img class= 'stimulus' src='images/baseline/hills 4.jpg'></img></p>","null","","1551119623993","","","","","","",""
"null","","html-keyboard-response","232","1985308","0.0-6.0-17.11","36","<p><img class= 'stimulus' src='images/baseline/03045v.jpg'></img></p>","null","","1551119624091","","","","","","",""
"677.1000000005588","","html-button-response","233","1986989","0.0-6.0-18.11","36","<div class = ""response_question"">WAS THE IMAGE ROTATED...</div>","","3","","","4","2","bas","right","practice","true"
"2006.0999999986961","","html-button-response","234","1988996","0.0-6.0-0.12","36","","","0","","","","","","","",""
"null","","html-keyboard-response","235","1989076","0.0-6.0-1.12","36","<p><img class= 'stimulus' src='images/baseline/landscape14.jpg'></img></p>","null","","1551119627875","","","","","","",""
"null","","html-keyboard-response","236","1989176","0.0-6.0-2.12","36","<p><img class= 'stimulus' src='images/baseline/03041v.jpg'></img></p>","null","","1551119627976","","","","","","",""
"null","","html-keyboard-response","237","1989275","0.0-6.0-3.12","36","<p><img class= 'stimulus' src='images/baseline/04193v.jpg'></img></p>","null","","1551119628075","","","","","","",""
"null","","html-keyboard-response","238","1989376","0.0-6.0-4.12","36","<p><img class= 'stimulus' src='images/baseline/Freudenberg_sg_Switzerland.jpg'></img></p>","null","","1551119628175","4","","","","","",""
"null","","html-keyboard-response","239","1989476","0.0-6.0-5.12","36","<p><img class= 'stimulus' src='images/baseline/pexels-photo-440731.jpeg'></img></p>","null","","1551119628277","","","","","","",""
"null","","html-keyboard-response","240","1989575","0.0-6.0-6.12","36","<p><img class= 'stimulus' src='images/baseline/city-silhouette-at-sunset-871291580819Esw.jpg'></img></p>","null","","1551119628375","6","","","","","",""
"null","","html-keyboard-response","241","1989674","0.0-6.0-7.12","36","<p><img class= 'stimulus' src='images/baseline/landscape33.jpg'></img></p>","null","","1551119628474","","","","","","",""
"null","","html-keyboard-response","242","1989775","0.0-6.0-8.12","36","<p><img class= 'stimulus' src='images/target/lone-tree.png'></img></p>","null","","1551119628576","8","","","","","",""
"null","","html-keyboard-response","243","1989874","0.0-6.0-9.12","36","<p><img class= 'stimulus' src='images/baseline/04010v.jpg'></img></p>","null","","1551119628675","","","","","","",""
"null","","html-keyboard-response","244","1989976","0.0-6.0-10.12","36","<p><img class= 'stimulus' src='images/baseline/Paysage_enneige_02.jpg'></img></p>","null","","1551119628775","","","","","","",""
"null","","html-keyboard-response","245","1990076","0.0-6.0-11.12","36","<p><img class= 'stimulus' src='images/baseline/Niinsaare_jarv.jpg'></img></p>","null","","1551119628876","","","","","","",""
"null","","html-keyboard-response","246","1990175","0.0-6.0-12.12","36","<p><img class= 'stimulus' src='images/baseline/05179v.jpg'></img></p>","null","","1551119628975","12","","","","","",""
"null","","html-keyboard-response","247","1990276","0.0-6.0-13.12","36","<p><img class= 'stimulus' src='images/baseline/sun-through-winter-tree-branches1.jpg'></img></p>","null","","1551119629076","","","","","","",""
"null","","html-keyboard-response","248","1990375","0.0-6.0-14.12","36","<p><img class= 'stimulus' src='images/baseline/farmhouse9.jpg'></img></p>","null","","1551119629175","14","","","","","",""
"null","","html-keyboard-response","249","1990475","0.0-6.0-15.12","36","<p><img class= 'stimulus' src='images/baseline/Camping 10.jpg'></img></p>","null","","1551119629275","","","","","","",""
"null","","html-keyboard-response","250","1990576","0.0-6.0-16.12","36","<p><img class= 'stimulus' src='images/baseline/03204v.jpg'></img></p>","null","","1551119629376","","","","","","",""
"null","","html-keyboard-response","251","1990692","0.0-6.0-17.12","36","<p><img class= 'stimulus' src='images/baseline/farmhouse6.jpg'></img></p>","null","","1551119629476","","","","","","",""
"1085.3999999964144","","html-button-response","252","1992780","0.0-6.0-18.12","36","<div class = ""response_question"">WAS THE IMAGE ROTATED...</div>","","3","","","6","2","bas","right","practice","true"
"2141.900000002468","","html-button-response","253","1994924","0.0-6.0-0.13","36","","","0","","","","","","","",""
"null","","html-keyboard-response","254","1995009","0.0-6.0-1.13","36","<p><img class= 'stimulus' src='images/baseline/Kocherbaumwald-01.jpg'></img></p>","null","","1551119633808","","","","","","",""
"null","","html-keyboard-response","255","1995109","0.0-6.0-2.13","36","<p><img class= 'stimulus' src='images/baseline/landscape36.jpg'></img></p>","null","","1551119633908","","","","","","",""
"null","","html-keyboard-response","256","1995208","0.0-6.0-3.13","36","<p><img class= 'stimulus' src='images/baseline/landscape35.jpg'></img></p>","null","","1551119634008","","","","","","",""
"null","","html-keyboard-response","257","1995309","0.0-6.0-4.13","36","<p><img class= 'stimulus' src='images/baseline/sunny-landscape-with-dry-brush-and-mountain-background.jpg'></img></p>","null","","1551119634109","4","","","","","",""
"null","","html-keyboard-response","258","1995408","0.0-6.0-5.13","36","<p><img class= 'stimulus' src='images/baseline/landscape39.jpg'></img></p>","null","","1551119634209","","","","","","",""
"null","","html-keyboard-response","259","1995509","0.0-6.0-6.13","36","<p><img class= 'stimulus' src='images/baseline/Lake 3.jpg'></img></p>","null","","1551119634309","6","","","","","",""
"null","","html-keyboard-response","260","1995609","0.0-6.0-7.13","36","<p><img class= 'stimulus' src='images/baseline/05252v.jpg'></img></p>","null","","1551119634410","","","","","","",""
"null","","html-keyboard-response","261","1995708","0.0-6.0-8.13","36","<p><img class= 'stimulus' src='images/baseline/horse_statue.jpg'></img></p>","null","","1551119634510","8","","","","","",""
"null","","html-keyboard-response","262","1995808","0.0-6.0-9.13","36","<p><img class= 'stimulus' src='images/baseline/Lake 13.jpg'></img></p>","null","","1551119634609","","","","","","",""
"null","","html-keyboard-response","263","1995908","0.0-6.0-10.13","36","<p><img class= 'stimulus' src='images/baseline/seoul-410266_1920.jpg'></img></p>","null","","1551119634708","","","","","","",""
"null","","html-keyboard-response","264","1996009","0.0-6.0-11.13","36","<p><img class= 'stimulus' src='images/baseline/red rocks from afar.jpg'></img></p>","null","","1551119634810","","","","","","",""
"null","","html-keyboard-response","265","1996108","0.0-6.0-12.13","36","<p><img class= 'stimulus' src='images/baseline/Lake 7.jpg'></img></p>","null","","1551119634908","12","","","","","",""
"null","","html-keyboard-response","266","1996208","0.0-6.0-13.13","36","<p><img class= 'stimulus' src='images/baseline/landscape17.jpg'></img></p>","null","","1551119635010","","","","","","",""
"null","","html-keyboard-response","267","1996308","0.0-6.0-14.13","36","<p><img class= 'stimulus' src='images/target/lighthouse-843522_640.jpg'></img></p>","null","","1551119635110","14","","","","","",""
"null","","html-keyboard-response","268","1996408","0.0-6.0-15.13","36","<p><img class= 'stimulus' src='images/baseline/03148v.jpg'></img></p>","null","","1551119635209","","","","","","",""
"null","","html-keyboard-response","269","1996508","0.0-6.0-16.13","36","<p><img class= 'stimulus' src='images/baseline/pexels-photo-259280.jpeg'></img></p>","null","","1551119635309","","","","","","",""
"null","","html-keyboard-response","270","1996625","0.0-6.0-17.13","36","<p><img class= 'stimulus' src='images/baseline/pexels-photo-534164.jpeg'></img></p>","null","","1551119635409","","","","","","",""
"934.0000000083819","","html-button-response","271","1998565","0.0-6.0-18.13","36","<div class = ""response_question"">WAS THE IMAGE ROTATED...</div>","","4","","","6","8","bas","right","practice","true"
"1838.1999999983236","","html-button-response","272","2000404","0.0-6.0-0.14","36","","","0","","","","","","","",""
"null","","html-keyboard-response","273","2000492","0.0-6.0-1.14","36","<p><img class= 'stimulus' src='images/baseline/snowy tree.jpg'></img></p>","null","","1551119639293","","","","","","",""
"null","","html-keyboard-response","274","2000592","0.0-6.0-2.14","36","<p><img class= 'stimulus' src='images/baseline/03075v.jpg'></img></p>","null","","1551119639392","","","","","","",""
"null","","html-keyboard-response","275","2000692","0.0-6.0-3.14","36","<p><img class= 'stimulus' src='images/baseline/tennis-court-net-buried-in-snow.jpg'></img></p>","null","","1551119639494","","","","","","",""
"null","","html-keyboard-response","276","2000792","0.0-6.0-4.14","36","<p><img class= 'stimulus' src='images/baseline/farmhouse4.jpg'></img></p>","null","","1551119639593","4","","","","","",""
"null","","html-keyboard-response","277","2000891","0.0-6.0-5.14","36","<p><img class= 'stimulus' src='images/baseline/valley 1.jpg'></img></p>","null","","1551119639693","","","","","","",""
"null","","html-keyboard-response","278","2000992","0.0-6.0-6.14","36","<p><img class= 'stimulus' src='images/baseline/05279v.jpg'></img></p>","null","","1551119639793","6","","","","","",""
"null","","html-keyboard-response","279","2001092","0.0-6.0-7.14","36","<p><img class= 'stimulus' src='images/baseline/house3.jpg'></img></p>","null","","1551119639893","","","","","","",""
"null","","html-keyboard-response","280","2001192","0.0-6.0-8.14","36","<p><img class= 'stimulus left-rotate' src='images/target/landscape3.jpg'></img></p>","null","","1551119639992","8","","","","","",""
"null","","html-keyboard-response","281","2001293","0.0-6.0-9.14","36","<p><img class= 'stimulus' src='images/baseline/autumn-landscape-with-lake-fall-trees-mountains.jpg'></img></p>","null","","1551119640093","","","","","","",""
"null","","html-keyboard-response","282","2001392","0.0-6.0-10.14","36","<p><img class= 'stimulus' src='images/baseline/hills 3.jpg'></img></p>","null","","1551119640192","","","","","","",""
"null","","html-keyboard-response","283","2001491","0.0-6.0-11.14","36","<p><img class= 'stimulus' src='images/baseline/agriculture-countryside-crop-259280.jpg'></img></p>","null","","1551119640293","","","","","","",""
"null","","html-keyboard-response","284","2001592","0.0-6.0-12.14","36","<p><img class= 'stimulus' src='images/baseline/Lake 5.jpg'></img></p>","null","","1551119640392","12","","","","","",""
"null","","html-keyboard-response","285","2001693","0.0-6.0-13.14","36","<p><img class= 'stimulus' src='images/baseline/04229v.jpg'></img></p>","null","","1551119640492","","","","","","",""
"null","","html-keyboard-response","286","2001791","0.0-6.0-14.14","36","<p><img class= 'stimulus' src='images/baseline/Sidewalk 4.jpg'></img></p>","null","","1551119640592","14","","","","","",""
"null","","html-keyboard-response","287","2001892","0.0-6.0-15.14","36","<p><img class= 'stimulus' src='images/baseline/Lake 8.jpg'></img></p>","null","","1551119640692","","","","","","",""
"null","","html-keyboard-response","288","2001991","0.0-6.0-16.14","36","<p><img class= 'stimulus' src='images/baseline/landscape1.jpg'></img></p>","null","","1551119640793","","","","","","",""
"null","","html-keyboard-response","289","2002109","0.0-6.0-17.14","36","<p><img class= 'stimulus' src='images/baseline/landscape4.jpg'></img></p>","null","","1551119640892","","","","","","",""
"620.3999999999069","","html-button-response","290","2003732","0.0-6.0-18.14","36","<div class = ""response_question"">WAS THE IMAGE ROTATED...</div>","","0","","","6","2","bas","left","practice","true"
"1342.4000000085216","","html-button-response","291","2005076","0.0-6.0-0.15","36","","","0","","","","","","","",""
"null","","html-keyboard-response","292","2005159","0.0-6.0-1.15","36","<p><img class= 'stimulus' src='images/baseline/05198v.jpg'></img></p>","null","","1551119643959","","","","","","",""
"null","","html-keyboard-response","293","2005259","0.0-6.0-2.15","36","<p><img class= 'stimulus' src='images/baseline/pexels-photo-351264.jpeg'></img></p>","null","","1551119644058","","","","","","",""
"null","","html-keyboard-response","294","2005358","0.0-6.0-3.15","36","<p><img class= 'stimulus' src='images/baseline/05303v.jpg'></img></p>","null","","1551119644158","","","","","","",""
"null","","html-keyboard-response","295","2005458","0.0-6.0-4.15","36","<p><img class= 'stimulus' src='images/baseline/03056v.jpg'></img></p>","null","","1551119644259","4","","","","","",""
"null","","html-keyboard-response","296","2005559","0.0-6.0-5.15","36","<p><img class= 'stimulus' src='images/baseline/Lake 9.jpg'></img></p>","null","","1551119644358","","","","","","",""
"null","","html-keyboard-response","297","2005658","0.0-6.0-6.15","36","<p><img class= 'stimulus' src='images/baseline/Street 5.jpg'></img></p>","null","","1551119644459","6","","","","","",""
"null","","html-keyboard-response","298","2005759","0.0-6.0-7.15","36","<p><img class= 'stimulus' src='images/baseline/chicago-skyline-at-night-1476869511p8U.jpg'></img></p>","null","","1551119644559","","","","","","",""
"null","","html-keyboard-response","299","2005858","0.0-6.0-8.15","36","<p><img class= 'stimulus' src='images/baseline/04117v.jpg'></img></p>","null","","1551119644659","8","","","","","",""
"null","","html-keyboard-response","300","2005959","0.0-6.0-9.15","36","<p><img class= 'stimulus' src='images/baseline/landscape22.jpg'></img></p>","null","","1551119644759","","","","","","",""
"null","","html-keyboard-response","301","2006059","0.0-6.0-10.15","36","<p><img class= 'stimulus' src='images/baseline/04179v.jpg'></img></p>","null","","1551119644859","","","","","","",""
"null","","html-keyboard-response","302","2006158","0.0-6.0-11.15","36","<p><img class= 'stimulus' src='images/baseline/03180v.jpg'></img></p>","null","","1551119644959","","","","","","",""
"null","","html-keyboard-response","303","2006258","0.0-6.0-12.15","36","<p><img class= 'stimulus' src='images/target/chicago-673558_640.jpg'></img></p>","null","","1551119645059","12","","","","","",""
"null","","html-keyboard-response","304","2006358","0.0-6.0-13.15","36","<p><img class= 'stimulus' src='images/baseline/farmhouse2.jpg'></img></p>","null","","1551119645158","","","","","","",""
"null","","html-keyboard-response","305","2006458","0.0-6.0-14.15","36","<p><img class= 'stimulus' src='images/baseline/cyrillic.jpg'></img></p>","null","","1551119645260","14","","","","","",""
"null","","html-keyboard-response","306","2006558","0.0-6.0-15.15","36","<p><img class= 'stimulus' src='images/baseline/pexels-photo-894312.jpeg'></img></p>","null","","1551119645360","","","","","","",""
"null","","html-keyboard-response","307","2006659","0.0-6.0-16.15","36","<p><img class= 'stimulus' src='images/baseline/04130v.jpg'></img></p>","null","","1551119645459","","","","","","",""
"null","","html-keyboard-response","308","2006776","0.0-6.0-17.15","36","<p><img class= 'stimulus' src='images/baseline/03201v.jpg'></img></p>","null","","1551119645559","","","","","","",""
"481.1000000042841","","html-button-response","309","2008260","0.0-6.0-18.15","36","<div class = ""response_question"">WAS THE IMAGE ROTATED...</div>","","3","","","4","8","bas","right","practice","true"
"16822.299999999814","","html-button-response","310","2025084","0.0-7.0","36","<p>You have now completed the practice phase. We will now begin the real trials.         This is a reminder that you will be searching for a rotated image among the series of upright images.</p>         <p>Remember, please do not blink or move your eyes while the images are on the screen.</p>         <p>At the end of the experiment, the experimenter will be able to show you how accurate you were.</p>","","0","","","","","","","",""
"2630.6999999941327","","html-button-response","311","2027716","0.0-8.0-0.0-0.0","36","","","0","","","","","","","",""
"null","","html-keyboard-response","312","2027792","0.0-8.0-0.0-1.0","36","<p><img class= 'stimulus' src='images/baseline/03148v.jpg'></img></p>","null","","1551119666592","","","","","","",""
"null","","html-keyboard-response","313","2027892","0.0-8.0-0.0-2.0","36","<p><img class= 'stimulus' src='images/baseline/Sky 1.jpg'></img></p>","null","","1551119666692","","","","","","",""
"null","","html-keyboard-response","314","2027992","0.0-8.0-0.0-3.0","36","<p><img class= 'stimulus' src='images/baseline/pexels-photo-280222.jpeg'></img></p>","null","","1551119666793","","","","","","",""
"null","","html-keyboard-response","315","2028092","0.0-8.0-0.0-4.0","36","<p><img class= 'stimulus' src='images/baseline/farmhouse7.jpg'></img></p>","null","","1551119666893","4","","","","","",""
"null","","html-keyboard-response","316","2028193","0.0-8.0-0.0-5.0","36","<p><img class= 'stimulus' src='images/baseline/house8.jpg'></img></p>","null","","1551119666993","","","","","","",""
"null","","html-keyboard-response","317","2028291","0.0-8.0-0.0-6.0","36","<p><img class= 'stimulus' src='images/negative/Snake 2.jpg'></img></p>","null","","1551119667094","6","","","","","",""
"null","","html-keyboard-response","318","2028392","0.0-8.0-0.0-7.0","36","<p><img class= 'stimulus' src='images/baseline/Desert_View_Indian_Wells.jpg'></img></p>","null","","1551119667193","","","","","","",""
"null","","html-keyboard-response","319","2028492","0.0-8.0-0.0-8.0","36","<p><img class= 'stimulus' src='images/baseline/landscape37.jpg'></img></p>","null","","1551119667293","8","","","","","",""
"null","","html-keyboard-response","320","2028592","0.0-8.0-0.0-9.0","36","<p><img class= 'stimulus' src='images/baseline/landscape7.jpg'></img></p>","null","","1551119667393","","","","","","",""
"null","","html-keyboard-response","321","2028692","0.0-8.0-0.0-10.0","36","<p><img class= 'stimulus' src='images/baseline/field 1.jpg'></img></p>","null","","1551119667492","","","","","","",""
"null","","html-keyboard-response","322","2028792","0.0-8.0-0.0-11.0","36","<p><img class= 'stimulus' src='images/baseline/03063v.jpg'></img></p>","null","","1551119667593","","","","","","",""
"null","","html-keyboard-response","323","2028892","0.0-8.0-0.0-12.0","36","<p><img class= 'stimulus' src='images/baseline/landscape29.jpg'></img></p>","null","","1551119667694","12","","","","","",""
"null","","html-keyboard-response","324","2028992","0.0-8.0-0.0-13.0","36","<p><img class= 'stimulus' src='images/baseline/Street 5.jpg'></img></p>","null","","1551119667792","","","","","","",""
"null","","html-keyboard-response","325","2029093","0.0-8.0-0.0-14.0","36","<p><img class= 'stimulus left-rotate' src='images/target/building3.jpg'></img></p>","null","","1551119667893","14","","","","","",""
"null","","html-keyboard-response","326","2029192","0.0-8.0-0.0-15.0","36","<p><img class= 'stimulus' src='images/baseline/trees 23.jpg'></img></p>","null","","1551119667993","","","","","","",""
"null","","html-keyboard-response","327","2029293","0.0-8.0-0.0-16.0","36","<p><img class= 'stimulus' src='images/baseline/04229v.jpg'></img></p>","null","","1551119668094","","","","","","",""
"null","","html-keyboard-response","328","2029409","0.0-8.0-0.0-17.0","36","<p><img class= 'stimulus' src='images/baseline/landscape33.jpg'></img></p>","null","","1551119668193","","","","","","",""
"1376.6999999932013","","html-button-response","329","2031786","0.0-8.0-0.0-18.0","36","<div class = ""response_question"">WAS THE IMAGE ROTATED...</div>","","0","","","6","8","neg","left","test","true"
"2094.5000000065193","","html-button-response","330","2033882","0.0-8.0-0.0-0.1","36","","","0","","","","","","","",""
"null","","html-keyboard-response","331","2033956","0.0-8.0-0.0-1.1","36","<p><img class= 'stimulus' src='images/baseline/Lake 13.jpg'></img></p>","null","","1551119672757","","","","","","",""
"null","","html-keyboard-response","332","2034056","0.0-8.0-0.0-2.1","36","<p><img class= 'stimulus' src='images/baseline/kokkari-1523011968Xfr.jpg'></img></p>","null","","1551119672857","","","","","","",""
"null","","html-keyboard-response","333","2034157","0.0-8.0-0.0-3.1","36","<p><img class= 'stimulus' src='images/baseline/farmhouse6.jpg'></img></p>","null","","1551119672957","","","","","","",""
"null","","html-keyboard-response","334","2034256","0.0-8.0-0.0-4.1","36","<p><img class= 'stimulus' src='images/neutral/cattle.jpg'></img></p>","null","","1551119673057","4","","","","","",""
"null","","html-keyboard-response","335","2034356","0.0-8.0-0.0-5.1","36","<p><img class= 'stimulus' src='images/baseline/house11.jpg'></img></p>","null","","1551119673156","","","","","","",""
"null","","html-keyboard-response","336","2034457","0.0-8.0-0.0-6.1","36","<p><img class= 'stimulus' src='images/baseline/vintage-art-deco-storefront.jpg'></img></p>","null","","1551119673256","6","","","","","",""
"null","","html-keyboard-response","337","2034557","0.0-8.0-0.0-7.1","36","<p><img class= 'stimulus' src='images/baseline/05247v.jpg'></img></p>","null","","1551119673357","","","","","","",""
"null","","html-keyboard-response","338","2034658","0.0-8.0-0.0-8.1","36","<p><img class= 'stimulus' src='images/baseline/landscape39.jpg'></img></p>","null","","1551119673457","8","","","","","",""
"null","","html-keyboard-response","339","2034757","0.0-8.0-0.0-9.1","36","<p><img class= 'stimulus' src='images/baseline/Sidewalk 4.jpg'></img></p>","null","","1551119673557","","","","","","",""
"null","","html-keyboard-response","340","2034856","0.0-8.0-0.0-10.1","36","<p><img class= 'stimulus' src='images/baseline/03180v.jpg'></img></p>","null","","1551119673657","","","","","","",""
"null","","html-keyboard-response","341","2034957","0.0-8.0-0.0-11.1","36","<p><img class= 'stimulus' src='images/baseline/snowy tree.jpg'></img></p>","null","","1551119673757","","","","","","",""
"null","","html-keyboard-response","342","2035057","0.0-8.0-0.0-12.1","36","<p><img class= 'stimulus' src='images/target/tree-in-desert-landscape.jpg'></img></p>","null","","1551119673858","12","","","","","",""
"null","","html-keyboard-response","343","2035156","0.0-8.0-0.0-13.1","36","<p><img class= 'stimulus' src='images/baseline/04086v.jpg'></img></p>","null","","1551119673957","","","","","","",""
"null","","html-keyboard-response","344","2035257","0.0-8.0-0.0-14.1","36","<p><img class= 'stimulus' src='images/baseline/architecture-956332_1280.jpg'></img></p>","null","","1551119674057","14","","","","","",""
"null","","html-keyboard-response","345","2035357","0.0-8.0-0.0-15.1","36","<p><img class= 'stimulus' src='images/baseline/02947v.jpg'></img></p>","null","","1551119674157","","","","","","",""
"null","","html-keyboard-response","346","2035456","0.0-8.0-0.0-16.1","36","<p><img class= 'stimulus' src='images/baseline/04179v.jpg'></img></p>","null","","1551119674257","","","","","","",""
"null","","html-keyboard-response","347","2035573","0.0-8.0-0.0-17.1","36","<p><img class= 'stimulus' src='images/baseline/pexels-photo-459203.jpeg'></img></p>","null","","1551119674357","","","","","","",""
"3222.8000000030734","","html-button-response","348","2039802","0.0-8.0-0.0-18.1","36","<div class = ""response_question"">WAS THE IMAGE ROTATED...</div>","","1","","","4","8","neu","right","test","false"
"2430.2000000025146","","html-button-response","349","2042234","0.0-8.0-0.0-0.2","36","","","0","","","","","","","",""
"null","","html-keyboard-response","350","2042307","0.0-8.0-0.0-1.2","36","<p><img class= 'stimulus' src='images/baseline/Grass 6.jpg'></img></p>","null","","1551119681106","","","","","","",""
"null","","html-keyboard-response","351","2042407","0.0-8.0-0.0-2.2","36","<p><img class= 'stimulus' src='images/baseline/04201v.jpg'></img></p>","null","","1551119681208","","","","","","",""
"null","","html-keyboard-response","352","2042507","0.0-8.0-0.0-3.2","36","<p><img class= 'stimulus' src='images/baseline/Street 2.jpg'></img></p>","null","","1551119681308","","","","","","",""
"null","","html-keyboard-response","353","2042606","0.0-8.0-0.0-4.2","36","<p><img class= 'stimulus' src='images/negative/Dog attack 2.jpg'></img></p>","null","","1551119681409","4","","","","","",""
"null","","html-keyboard-response","354","2042706","0.0-8.0-0.0-5.2","36","<p><img class= 'stimulus' src='images/baseline/building_at_national_conservation.jpg'></img></p>","null","","1551119681506","","","","","","",""
"null","","html-keyboard-response","355","2042807","0.0-8.0-0.0-6.2","36","<p><img class= 'stimulus left-rotate' src='images/target/pexels-photo-932328.jpeg'></img></p>","null","","1551119681606","6","","","","","",""
"null","","html-keyboard-response","356","2042907","0.0-8.0-0.0-7.2","36","<p><img class= 'stimulus' src='images/baseline/landscape16.jpg'></img></p>","null","","1551119681708","","","","","","",""
"null","","html-keyboard-response","357","2043007","0.0-8.0-0.0-8.2","36","<p><img class= 'stimulus' src='images/baseline/landscape17.jpg'></img></p>","null","","1551119681806","8","","","","","",""
"null","","html-keyboard-response","358","2043106","0.0-8.0-0.0-9.2","36","<p><img class= 'stimulus' src='images/baseline/03204v.jpg'></img></p>","null","","1551119681907","","","","","","",""
"null","","html-keyboard-response","359","2043207","0.0-8.0-0.0-10.2","36","<p><img class= 'stimulus' src='images/baseline/empire-state-building.jpg'></img></p>","null","","1551119682008","","","","","","",""
"null","","html-keyboard-response","360","2043307","0.0-8.0-0.0-11.2","36","<p><img class= 'stimulus' src='images/baseline/04062v.jpg'></img></p>","null","","1551119682108","","","","","","",""
"null","","html-keyboard-response","361","2043407","0.0-8.0-0.0-12.2","36","<p><img class= 'stimulus' src='images/baseline/pexels-photo-1054289.jpeg'></img></p>","null","","1551119682207","12","","","","","",""
"null","","html-keyboard-response","362","2043506","0.0-8.0-0.0-13.2","36","<p><img class= 'stimulus' src='images/baseline/hills 4.jpg'></img></p>","null","","1551119682308","","","","","","",""
"null","","html-keyboard-response","363","2043608","0.0-8.0-0.0-14.2","36","<p><img class= 'stimulus' src='images/baseline/03045v.jpg'></img></p>","null","","1551119682407","14","","","","","",""
"null","","html-keyboard-response","364","2043707","0.0-8.0-0.0-15.2","36","<p><img class= 'stimulus' src='images/baseline/05240v.jpg'></img></p>","null","","1551119682507","","","","","","",""
"null","","html-keyboard-response","365","2043806","0.0-8.0-0.0-16.2","36","<p><img class= 'stimulus' src='images/baseline/05280v.jpg'></img></p>","null","","1551119682607","","","","","","",""
"null","","html-keyboard-response","366","2043923","0.0-8.0-0.0-17.2","36","<p><img class= 'stimulus' src='images/baseline/horse_statue.jpg'></img></p>","null","","1551119682707","","","","","","",""
"24183.900000003632","","html-button-response","367","2069115","0.0-8.0-0.0-18.2","36","<div class = ""response_question"">WAS THE IMAGE ROTATED...</div>","","1","","","4","2","neg","left","test","true"
"2446.200000005774","","html-button-response","368","2071562","0.0-8.0-0.0-0.3","36","","","0","","","","","","","",""
"null","","html-keyboard-response","369","2071640","0.0-8.0-0.0-1.3","36","<p><img class= 'stimulus' src='images/baseline/landscape2.jpg'></img></p>","null","","1551119710440","","","","","","",""
"null","","html-keyboard-response","370","2071740","0.0-8.0-0.0-2.3","36","<p><img class= 'stimulus' src='images/baseline/sun-through-winter-tree-branches1.jpg'></img></p>","null","","1551119710540","","","","","","",""
"null","","html-keyboard-response","371","2071841","0.0-8.0-0.0-3.3","36","<p><img class= 'stimulus' src='images/baseline/Lake 7.jpg'></img></p>","null","","1551119710641","","","","","","",""
"null","","html-keyboard-response","372","2071941","0.0-8.0-0.0-4.3","36","<p><img class= 'stimulus' src='images/baseline/pexels-photo-414491.jpeg'></img></p>","null","","1551119710741","4","","","","","",""
"null","","html-keyboard-response","373","2072041","0.0-8.0-0.0-5.3","36","<p><img class= 'stimulus' src='images/baseline/Road 1.jpg'></img></p>","null","","1551119710841","","","","","","",""
"null","","html-keyboard-response","374","2072140","0.0-8.0-0.0-6.3","36","<p><img class= 'stimulus' src='images/baseline/04064v.jpg'></img></p>","null","","1551119710942","6","","","","","",""
"null","","html-keyboard-response","375","2072241","0.0-8.0-0.0-7.3","36","<p><img class= 'stimulus' src='images/baseline/03056v.jpg'></img></p>","null","","1551119711041","","","","","","",""
"null","","html-keyboard-response","376","2072341","0.0-8.0-0.0-8.3","36","<p><img class= 'stimulus' src='images/baseline/seoul-410266_1920.jpg'></img></p>","null","","1551119711140","8","","","","","",""
"null","","html-keyboard-response","377","2072440","0.0-8.0-0.0-9.3","36","<p><img class= 'stimulus' src='images/baseline/02962v.jpg'></img></p>","null","","1551119711241","","","","","","",""
"null","","html-keyboard-response","378","2072541","0.0-8.0-0.0-10.3","36","<p><img class= 'stimulus' src='images/baseline/landscape22.jpg'></img></p>","null","","1551119711341","","","","","","",""
"null","","html-keyboard-response","379","2072640","0.0-8.0-0.0-11.3","36","<p><img class= 'stimulus' src='images/baseline/landscape34.jpg'></img></p>","null","","1551119711442","","","","","","",""
"null","","html-keyboard-response","380","2072740","0.0-8.0-0.0-12.3","36","<p><img class= 'stimulus' src='images/target/skyscraper-3855012_640.jpg'></img></p>","null","","1551119711542","12","","","","","",""
"null","","html-keyboard-response","381","2072840","0.0-8.0-0.0-13.3","36","<p><img class= 'stimulus' src='images/baseline/landscape3.jpg'></img></p>","null","","1551119711640","","","","","","",""
"null","","html-keyboard-response","382","2072940","0.0-8.0-0.0-14.3","36","<p><img class= 'stimulus' src='images/baseline/landscape13.jpg'></img></p>","null","","1551119711741","14","","","","","",""
"null","","html-keyboard-response","383","2073041","0.0-8.0-0.0-15.3","36","<p><img class= 'stimulus' src='images/baseline/landscape6.jpg'></img></p>","null","","1551119711840","","","","","","",""
"null","","html-keyboard-response","384","2073140","0.0-8.0-0.0-16.3","36","<p><img class= 'stimulus' src='images/baseline/02977v.jpg'></img></p>","null","","1551119711940","","","","","","",""
"null","","html-keyboard-response","385","2073258","0.0-8.0-0.0-17.3","36","<p><img class= 'stimulus' src='images/baseline/04060v.jpg'></img></p>","null","","1551119712040","","","","","","",""
"2947.199999995064","","html-button-response","386","2077218","0.0-8.0-0.0-18.3","36","<div class = ""response_question"">WAS THE IMAGE ROTATED...</div>","","4","","","4","8","bas","right","test","true"
"1446.1000000010245","","html-button-response","387","2078666","0.0-8.0-0.0-0.4","36","","","0","","","","","","","",""
"null","","html-keyboard-response","388","2078757","0.0-8.0-0.0-1.4","36","<p><img class= 'stimulus' src='images/baseline/Lake 14.jpg'></img></p>","null","","1551119717558","","","","","","",""
"null","","html-keyboard-response","389","2078857","0.0-8.0-0.0-2.4","36","<p><img class= 'stimulus' src='images/baseline/landscape38.jpg'></img></p>","null","","1551119717657","","","","","","",""
"null","","html-keyboard-response","390","2078957","0.0-8.0-0.0-3.4","36","<p><img class= 'stimulus' src='images/baseline/landscape31.jpg'></img></p>","null","","1551119717758","","","","","","",""
"null","","html-keyboard-response","391","2079057","0.0-8.0-0.0-4.4","36","<p><img class= 'stimulus' src='images/baseline/pexels-photo-1048039.jpeg'></img></p>","null","","1551119717857","4","","","","","",""
"null","","html-keyboard-response","392","2079157","0.0-8.0-0.0-5.4","36","<p><img class= 'stimulus' src='images/baseline/04222v.jpg'></img></p>","null","","1551119717958","","","","","","",""
"null","","html-keyboard-response","393","2079257","0.0-8.0-0.0-6.4","36","<p><img class= 'stimulus left-rotate' src='images/target/tree_2.jpg'></img></p>","null","","1551119718057","6","","","","","",""
"null","","html-keyboard-response","394","2079356","0.0-8.0-0.0-7.4","36","<p><img class= 'stimulus' src='images/baseline/04063v.jpg'></img></p>","null","","1551119718158","","","","","","",""
"null","","html-keyboard-response","395","2079458","0.0-8.0-0.0-8.4","36","<p><img class= 'stimulus' src='images/baseline/Dock 1.jpg'></img></p>","null","","1551119718257","8","","","","","",""
"null","","html-keyboard-response","396","2079556","0.0-8.0-0.0-9.4","36","<p><img class= 'stimulus' src='images/baseline/Sailing 3.jpg'></img></p>","null","","1551119718358","","","","","","",""
"null","","html-keyboard-response","397","2079657","0.0-8.0-0.0-10.4","36","<p><img class= 'stimulus' src='images/baseline/pexels-photo-750108.jpeg'></img></p>","null","","1551119718458","","","","","","",""
"null","","html-keyboard-response","398","2079758","0.0-8.0-0.0-11.4","36","<p><img class= 'stimulus' src='images/baseline/road 1(1).jpg'></img></p>","null","","1551119718557","","","","","","",""
"null","","html-keyboard-response","399","2079857","0.0-8.0-0.0-12.4","36","<p><img class= 'stimulus' src='images/baseline/landscape14.jpg'></img></p>","null","","1551119718657","12","","","","","",""
"null","","html-keyboard-response","400","2079957","0.0-8.0-0.0-13.4","36","<p><img class= 'stimulus' src='images/baseline/Peyto_Lake-Banff_NP-Canada.jpg'></img></p>","null","","1551119718758","","","","","","",""
"null","","html-keyboard-response","401","2080057","0.0-8.0-0.0-14.4","36","<p><img class= 'stimulus' src='images/baseline/landscape1.jpg'></img></p>","null","","1551119718858","14","","","","","",""
"null","","html-keyboard-response","402","2080157","0.0-8.0-0.0-15.4","36","<p><img class= 'stimulus' src='images/baseline/03098v.jpg'></img></p>","null","","1551119718957","","","","","","",""
"null","","html-keyboard-response","403","2080258","0.0-8.0-0.0-16.4","36","<p><img class= 'stimulus' src='images/baseline/Beach 8.jpg'></img></p>","null","","1551119719057","","","","","","",""
"null","","html-keyboard-response","404","2080374","0.0-8.0-0.0-17.4","36","<p><img class= 'stimulus' src='images/baseline/sunset-over-the-lake.jpg'></img></p>","null","","1551119719157","","","","","","",""
"655.9000000124797","","html-button-response","405","2082034","0.0-8.0-0.0-18.4","36","<div class = ""response_question"">WAS THE IMAGE ROTATED...</div>","","0","","","4","2","bas","left","test","true"
"2006.4999999883585","","html-button-response","406","2084042","0.0-8.0-0.0-0.5","36","","","0","","","","","","","",""
"null","","html-keyboard-response","407","2084125","0.0-8.0-0.0-1.5","36","<p><img class= 'stimulus' src='images/baseline/valley 1.jpg'></img></p>","null","","1551119722924","","","","","","",""
"null","","html-keyboard-response","408","2084224","0.0-8.0-0.0-2.5","36","<p><img class= 'stimulus' src='images/baseline/foreclosed_home.jpg'></img></p>","null","","1551119723024","","","","","","",""
"null","","html-keyboard-response","409","2084323","0.0-8.0-0.0-3.5","36","<p><img class= 'stimulus' src='images/baseline/03112v.jpg'></img></p>","null","","1551119723124","","","","","","",""
"null","","html-keyboard-response","410","2084424","0.0-8.0-0.0-4.5","36","<p><img class= 'stimulus' src='images/negative/Shark 11.jpg'></img></p>","null","","1551119723226","4","","","","","",""
"null","","html-keyboard-response","411","2084524","0.0-8.0-0.0-5.5","36","<p><img class= 'stimulus' src='images/baseline/05139v.jpg'></img></p>","null","","1551119723325","","","","","","",""
"null","","html-keyboard-response","412","2084624","0.0-8.0-0.0-6.5","36","<p><img class= 'stimulus' src='images/target/landscape_1.jpg'></img></p>","null","","1551119723425","6","","","","","",""
"null","","html-keyboard-response","413","2084723","0.0-8.0-0.0-7.5","36","<p><img class= 'stimulus' src='images/baseline/pexels-photo-210617.jpeg'></img></p>","null","","1551119723525","","","","","","",""
"null","","html-keyboard-response","414","2084825","0.0-8.0-0.0-8.5","36","<p><img class= 'stimulus' src='images/baseline/Lake 16.jpg'></img></p>","null","","1551119723624","8","","","","","",""
"null","","html-keyboard-response","415","2084924","0.0-8.0-0.0-9.5","36","<p><img class= 'stimulus' src='images/baseline/bird-flying-at-sunset.jpg'></img></p>","null","","1551119723725","","","","","","",""
"null","","html-keyboard-response","416","2085024","0.0-8.0-0.0-10.5","36","<p><img class= 'stimulus' src='images/baseline/flooded-bridge.jpg'></img></p>","null","","1551119723824","","","","","","",""
"null","","html-keyboard-response","417","2085124","0.0-8.0-0.0-11.5","36","<p><img class= 'stimulus' src='images/baseline/dirt-road-or-trail-through-park.jpg'></img></p>","null","","1551119723925","","","","","","",""
"null","","html-keyboard-response","418","2085224","0.0-8.0-0.0-12.5","36","<p><img class= 'stimulus' src='images/baseline/pexels-photo-1261728.jpeg'></img></p>","null","","1551119724024","12","","","","","",""
"null","","html-keyboard-response","419","2085324","0.0-8.0-0.0-13.5","36","<p><img class= 'stimulus' src='images/baseline/04300v.jpg'></img></p>","null","","1551119724124","","","","","","",""
"null","","html-keyboard-response","420","2085423","0.0-8.0-0.0-14.5","36","<p><img class= 'stimulus' src='images/baseline/Paysage_enneige_02.jpg'></img></p>","null","","1551119724225","14","","","","","",""
"null","","html-keyboard-response","421","2085523","0.0-8.0-0.0-15.5","36","<p><img class= 'stimulus' src='images/baseline/03162v.jpg'></img></p>","null","","1551119724324","","","","","","",""
"null","","html-keyboard-response","422","2085623","0.0-8.0-0.0-16.5","36","<p><img class= 'stimulus' src='images/baseline/05161v.jpg'></img></p>","null","","1551119724425","","","","","","",""
"null","","html-keyboard-response","423","2085740","0.0-8.0-0.0-17.5","36","<p><img class= 'stimulus' src='images/baseline/architecture-1314416_1920.jpg'></img></p>","null","","1551119724525","","","","","","",""
"2809.3000000081956","","html-button-response","424","2089554","0.0-8.0-0.0-18.5","36","<div class = ""response_question"">WAS THE IMAGE ROTATED...</div>","","5","","","4","2","neg","right","test","false"
"1302.1000000007916","","html-button-response","425","2090858","0.0-8.0-0.0-0.6","36","","","0","","","","","","","",""
"null","","html-keyboard-response","426","2090940","0.0-8.0-0.0-1.6","36","<p><img class= 'stimulus' src='images/baseline/Beach 3.jpg'></img></p>","null","","1551119729741","","","","","","",""
"null","","html-keyboard-response","427","2091040","0.0-8.0-0.0-2.6","36","<p><img class= 'stimulus' src='images/baseline/99_-_Machu_Picchu_-_Juin_2009.edit3.jpg'></img></p>","null","","1551119729841","","","","","","",""
"null","","html-keyboard-response","428","2091141","0.0-8.0-0.0-3.6","36","<p><img class= 'stimulus' src='images/baseline/red rocks from afar.jpg'></img></p>","null","","1551119729941","","","","","","",""
"null","","html-keyboard-response","429","2091240","0.0-8.0-0.0-4.6","36","<p><img class= 'stimulus' src='images/baseline/04196v.jpg'></img></p>","null","","1551119730041","4","","","","","",""
"null","","html-keyboard-response","430","2091340","0.0-8.0-0.0-5.6","36","<p><img class= 'stimulus' src='images/baseline/road.jpg'></img></p>","null","","1551119730142","","","","","","",""
"null","","html-keyboard-response","431","2091441","0.0-8.0-0.0-6.6","36","<p><img class= 'stimulus' src='images/baseline/04014v.jpg'></img></p>","null","","1551119730241","6","","","","","",""
"null","","html-keyboard-response","432","2091541","0.0-8.0-0.0-7.6","36","<p><img class= 'stimulus' src='images/baseline/house10.jpg'></img></p>","null","","1551119730342","","","","","","",""
"null","","html-keyboard-response","433","2091641","0.0-8.0-0.0-8.6","36","<p><img class= 'stimulus' src='images/baseline/03075v.jpg'></img></p>","null","","1551119730441","8","","","","","",""
"null","","html-keyboard-response","434","2091746","0.0-8.0-0.0-9.6","36","<p><img class= 'stimulus' src='images/baseline/4k-wallpaper-agriculture-clouds-842711.jpg'></img></p>","null","","1551119730542","","","","","","",""
"null","","html-keyboard-response","435","2091847","0.0-8.0-0.0-10.6","36","<p><img class= 'stimulus' src='images/baseline/05255v.jpg'></img></p>","null","","1551119730646","","","","","","",""
"null","","html-keyboard-response","436","2091946","0.0-8.0-0.0-11.6","36","<p><img class= 'stimulus' src='images/baseline/agriculture-cereal-clouds-175389.jpg'></img></p>","null","","1551119730746","","","","","","",""
"null","","html-keyboard-response","437","2092045","0.0-8.0-0.0-12.6","36","<p><img class= 'stimulus' src='images/baseline/04010v.jpg'></img></p>","null","","1551119730846","12","","","","","",""
"null","","html-keyboard-response","438","2092145","0.0-8.0-0.0-13.6","36","<p><img class= 'stimulus' src='images/baseline/lookout_tower.jpg'></img></p>","null","","1551119730946","","","","","","",""
"null","","html-keyboard-response","439","2092246","0.0-8.0-0.0-14.6","36","<p><img class= 'stimulus' src='images/baseline/building2.jpg'></img></p>","null","","1551119731047","14","","","","","",""
"null","","html-keyboard-response","440","2092346","0.0-8.0-0.0-15.6","36","<p><img class= 'stimulus' src='images/baseline/Street 3.jpg'></img></p>","null","","1551119731147","","","","","","",""
"null","","html-keyboard-response","441","2092445","0.0-8.0-0.0-16.6","36","<p><img class= 'stimulus' src='images/baseline/Kocherbaumwald-01.jpg'></img></p>","null","","1551119731247","","","","","","",""
"null","","html-keyboard-response","442","2092562","0.0-8.0-0.0-17.6","36","<p><img class= 'stimulus' src='images/baseline/tennis-court-net-buried-in-snow.jpg'></img></p>","null","","1551119731346","","","","","","",""
"1984.1999999918044","","html-button-response","443","2095551","0.0-8.0-0.0-18.6","36","<div class = ""response_question"">WAS THE IMAGE ROTATED...</div>","","2","","","null","null","null","null","test","null"
"1774.0000000048894","","html-button-response","444","2097327","0.0-8.0-0.0-0.7","36","","","0","","","","","","","",""
"null","","html-keyboard-response","445","2097412","0.0-8.0-0.0-1.7","36","<p><img class= 'stimulus' src='images/baseline/04040v.jpg'></img></p>","null","","1551119736213","","","","","","",""
"null","","html-keyboard-response","446","2097512","0.0-8.0-0.0-2.7","36","<p><img class= 'stimulus' src='images/baseline/town-square-in-wroclaw-1539098440MZy.jpg'></img></p>","null","","1551119736312","","","","","","",""
"null","","html-keyboard-response","447","2097612","0.0-8.0-0.0-3.7","36","<p><img class= 'stimulus' src='images/baseline/Street 4.jpg'></img></p>","null","","1551119736413","","","","","","",""
"null","","html-keyboard-response","448","2097712","0.0-8.0-0.0-4.7","36","<p><img class= 'stimulus' src='images/baseline/building9.jpg'></img></p>","null","","1551119736512","4","","","","","",""
"null","","html-keyboard-response","449","2097812","0.0-8.0-0.0-5.7","36","<p><img class= 'stimulus' src='images/baseline/farmhouse1.jpg'></img></p>","null","","1551119736612","","","","","","",""
"null","","html-keyboard-response","450","2097913","0.0-8.0-0.0-6.7","36","<p><img class= 'stimulus' src='images/baseline/landscape15.jpg'></img></p>","null","","1551119736713","6","","","","","",""
"null","","html-keyboard-response","451","2098013","0.0-8.0-0.0-7.7","36","<p><img class= 'stimulus' src='images/baseline/04158v.jpg'></img></p>","null","","1551119736814","","","","","","",""
"null","","html-keyboard-response","452","2098112","0.0-8.0-0.0-8.7","36","<p><img class= 'stimulus left-rotate' src='images/target/landscape1.jpg'></img></p>","null","","1551119736913","8","","","","","",""
"null","","html-keyboard-response","453","2098212","0.0-8.0-0.0-9.7","36","<p><img class= 'stimulus' src='images/baseline/pexels-photo-568236.jpeg'></img></p>","null","","1551119737014","","","","","","",""
"null","","html-keyboard-response","454","2098313","0.0-8.0-0.0-10.7","36","<p><img class= 'stimulus' src='images/baseline/Lake 4.jpg'></img></p>","null","","1551119737113","","","","","","",""
"null","","html-keyboard-response","455","2098413","0.0-8.0-0.0-11.7","36","<p><img class= 'stimulus' src='images/baseline/__08_-_ITALY_-_Forli_under_snow_-_winter_landscape_of_city_(christmas).jpg'></img></p>","null","","1551119737214","","","","","","",""
"null","","html-keyboard-response","456","2098513","0.0-8.0-0.0-12.7","36","<p><img class= 'stimulus' src='images/baseline/Skyscraper 2.jpg'></img></p>","null","","1551119737312","12","","","","","",""
"null","","html-keyboard-response","457","2098613","0.0-8.0-0.0-13.7","36","<p><img class= 'stimulus' src='images/baseline/agriculture-bright-clouds-440731.jpg'></img></p>","null","","1551119737413","","","","","","",""
"null","","html-keyboard-response","458","2098713","0.0-8.0-0.0-14.7","36","<p><img class= 'stimulus' src='images/baseline/Bridge 1.jpg'></img></p>","null","","1551119737512","14","","","","","",""
"null","","html-keyboard-response","459","2098812","0.0-8.0-0.0-15.7","36","<p><img class= 'stimulus' src='images/baseline/pexels-photo-808465.jpeg'></img></p>","null","","1551119737613","","","","","","",""
"null","","html-keyboard-response","460","2098913","0.0-8.0-0.0-16.7","36","<p><img class= 'stimulus' src='images/baseline/03114v.jpg'></img></p>","null","","1551119737713","","","","","","",""
"null","","html-keyboard-response","461","2099030","0.0-8.0-0.0-17.7","36","<p><img class= 'stimulus' src='images/baseline/05145v.jpg'></img></p>","null","","1551119737813","","","","","","",""
"638.7000000104308","","html-button-response","462","2100671","0.0-8.0-0.0-18.7","36","<div class = ""response_question"">WAS THE IMAGE ROTATED...</div>","","0","","","6","2","bas","left","test","true"
"1966.2999999998137","","html-button-response","463","2102639","0.0-8.0-0.0-0.8","36","","","0","","","","","","","",""
"null","","html-keyboard-response","464","2102712","0.0-8.0-0.0-1.8","36","<p><img class= 'stimulus' src='images/baseline/building12.jpg'></img></p>","null","","1551119741512","","","","","","",""
"null","","html-keyboard-response","465","2102812","0.0-8.0-0.0-2.8","36","<p><img class= 'stimulus' src='images/baseline/hiking-trail.jpg'></img></p>","null","","1551119741613","","","","","","",""
"null","","html-keyboard-response","466","2102912","0.0-8.0-0.0-3.8","36","<p><img class= 'stimulus' src='images/baseline/05189v.jpg'></img></p>","null","","1551119741713","","","","","","",""
"null","","html-keyboard-response","467","2103012","0.0-8.0-0.0-4.8","36","<p><img class= 'stimulus' src='images/baseline/pexels-photo-221125.jpeg'></img></p>","null","","1551119741813","4","","","","","",""
"null","","html-keyboard-response","468","2103113","0.0-8.0-0.0-5.8","36","<p><img class= 'stimulus' src='images/baseline/landscape4.jpg'></img></p>","null","","1551119741914","","","","","","",""
"null","","html-keyboard-response","469","2103213","0.0-8.0-0.0-6.8","36","<p><img class= 'stimulus' src='images/negative/Injury 2.jpg'></img></p>","null","","1551119742012","6","","","","","",""
"null","","html-keyboard-response","470","2103313","0.0-8.0-0.0-7.8","36","<p><img class= 'stimulus' src='images/baseline/meadow-with-mountain-in-background.jpg'></img></p>","null","","1551119742113","","","","","","",""
"null","","html-keyboard-response","471","2103412","0.0-8.0-0.0-8.8","36","<p><img class= 'stimulus' src='images/target/oak-1913194_640.jpg'></img></p>","null","","1551119742213","8","","","","","",""
"null","","html-keyboard-response","472","2103513","0.0-8.0-0.0-9.8","36","<p><img class= 'stimulus' src='images/baseline/Niinsaare_jarv.jpg'></img></p>","null","","1551119742314","","","","","","",""
"null","","html-keyboard-response","473","2103613","0.0-8.0-0.0-10.8","36","<p><img class= 'stimulus' src='images/baseline/Bahia_Onelli_Parque_Nacional_Los_Glaciares_Patagonia_Argentina_Luca_Galuzzi_2005.jpg'></img></p>","null","","1551119742413","","","","","","",""
"null","","html-keyboard-response","474","2103712","0.0-8.0-0.0-11.8","36","<p><img class= 'stimulus' src='images/baseline/landscape36.jpg'></img></p>","null","","1551119742513","","","","","","",""
"null","","html-keyboard-response","475","2103813","0.0-8.0-0.0-12.8","36","<p><img class= 'stimulus' src='images/baseline/hills 1.jpg'></img></p>","null","","1551119742614","12","","","","","",""
"null","","html-keyboard-response","476","2103912","0.0-8.0-0.0-13.8","36","<p><img class= 'stimulus' src='images/baseline/05252v.jpg'></img></p>","null","","1551119742713","","","","","","",""
"null","","html-keyboard-response","477","2104013","0.0-8.0-0.0-14.8","36","<p><img class= 'stimulus' src='images/baseline/landscape12.jpg'></img></p>","null","","1551119742814","14","","","","","",""
"null","","html-keyboard-response","478","2104112","0.0-8.0-0.0-15.8","36","<p><img class= 'stimulus' src='images/baseline/02971v.jpg'></img></p>","null","","1551119742913","","","","","","",""
"null","","html-keyboard-response","479","2104213","0.0-8.0-0.0-16.8","36","<p><img class= 'stimulus' src='images/baseline/05179v.jpg'></img></p>","null","","1551119743014","","","","","","",""
"null","","html-keyboard-response","480","2104329","0.0-8.0-0.0-17.8","36","<p><img class= 'stimulus' src='images/baseline/building4.jpg'></img></p>","null","","1551119743114","","","","","","",""
"2661.399999997113","","html-button-response","481","2108007","0.0-8.0-0.0-18.8","36","<div class = ""response_question"">WAS THE IMAGE ROTATED...</div>","","5","","","6","2","neg","right","test","false"
"1342.1000000089407","","html-button-response","482","2109352","0.0-8.0-0.0-0.9","36","","","0","","","","","","","",""
"null","","html-keyboard-response","483","2109430","0.0-8.0-0.0-1.9","36","<p><img class= 'stimulus' src='images/baseline/04085v.jpg'></img></p>","null","","1551119748231","","","","","","",""
"null","","html-keyboard-response","484","2109529","0.0-8.0-0.0-2.9","36","<p><img class= 'stimulus' src='images/baseline/05203v.jpg'></img></p>","null","","1551119748330","","","","","","",""
"null","","html-keyboard-response","485","2109629","0.0-8.0-0.0-3.9","36","<p><img class= 'stimulus' src='images/baseline/house6.jpg'></img></p>","null","","1551119748430","","","","","","",""
"null","","html-keyboard-response","486","2109730","0.0-8.0-0.0-4.9","36","<p><img class= 'stimulus' src='images/baseline/landscape19.jpg'></img></p>","null","","1551119748530","4","","","","","",""
"null","","html-keyboard-response","487","2109829","0.0-8.0-0.0-5.9","36","<p><img class= 'stimulus' src='images/baseline/Sunset 6.jpg'></img></p>","null","","1551119748629","","","","","","",""
"null","","html-keyboard-response","488","2109930","0.0-8.0-0.0-6.9","36","<p><img class= 'stimulus' src='images/baseline/landscape8.jpg'></img></p>","null","","1551119748730","6","","","","","",""
"null","","html-keyboard-response","489","2110030","0.0-8.0-0.0-7.9","36","<p><img class= 'stimulus' src='images/baseline/pexels-photo-351264.jpeg'></img></p>","null","","1551119748830","","","","","","",""
"null","","html-keyboard-response","490","2110129","0.0-8.0-0.0-8.9","36","<p><img class= 'stimulus left-rotate' src='images/target/italy-building-1206128_1280.jpg'></img></p>","null","","1551119748931","8","","","","","",""
"null","","html-keyboard-response","491","2110229","0.0-8.0-0.0-9.9","36","<p><img class= 'stimulus' src='images/baseline/pexels-photo-259280.jpeg'></img></p>","null","","1551119749030","","","","","","",""
"null","","html-keyboard-response","492","2110329","0.0-8.0-0.0-10.9","36","<p><img class= 'stimulus' src='images/baseline/farmhouse3.jpg'></img></p>","null","","1551119749130","","","","","","",""
"null","","html-keyboard-response","493","2110429","0.0-8.0-0.0-11.9","36","<p><img class= 'stimulus' src='images/baseline/02960v.jpg'></img></p>","null","","1551119749229","","","","","","",""
"null","","html-keyboard-response","494","2110529","0.0-8.0-0.0-12.9","36","<p><img class= 'stimulus' src='images/baseline/building16.jpg'></img></p>","null","","1551119749329","12","","","","","",""
"null","","html-keyboard-response","495","2110631","0.0-8.0-0.0-13.9","36","<p><img class= 'stimulus' src='images/baseline/autumn-in-red-rocks-park.jpg'></img></p>","null","","1551119749429","","","","","","",""
"null","","html-keyboard-response","496","2110729","0.0-8.0-0.0-14.9","36","<p><img class= 'stimulus' src='images/baseline/Sunset 4.jpg'></img></p>","null","","1551119749531","14","","","","","",""
"null","","html-keyboard-response","497","2110829","0.0-8.0-0.0-15.9","36","<p><img class= 'stimulus' src='images/baseline/05242v.jpg'></img></p>","null","","1551119749629","","","","","","",""
"null","","html-keyboard-response","498","2110929","0.0-8.0-0.0-16.9","36","<p><img class= 'stimulus' src='images/baseline/02982v.jpg'></img></p>","null","","1551119749729","","","","","","",""
"null","","html-keyboard-response","499","2111046","0.0-8.0-0.0-17.9","36","<p><img class= 'stimulus' src='images/baseline/05167v.jpg'></img></p>","null","","1551119749830","","","","","","",""
"469.8999999961816","","html-button-response","500","2112519","0.0-8.0-0.0-18.9","36","<div class = ""response_question"">WAS THE IMAGE ROTATED...</div>","","0","","","6","2","bas","left","test","true"
"1445.8000000016764","","html-button-response","501","2113968","0.0-8.0-0.0-0.10","36","","","0","","","","","","","",""
"null","","html-keyboard-response","502","2114047","0.0-8.0-0.0-1.10","36","<p><img class= 'stimulus' src='images/baseline/house7.jpg'></img></p>","null","","1551119752846","","","","","","",""
"null","","html-keyboard-response","503","2114146","0.0-8.0-0.0-2.10","36","<p><img class= 'stimulus' src='images/baseline/Nature 1.jpg'></img></p>","null","","1551119752947","","","","","","",""
"null","","html-keyboard-response","504","2114245","0.0-8.0-0.0-3.10","36","<p><img class= 'stimulus' src='images/baseline/05292v.jpg'></img></p>","null","","1551119753047","","","","","","",""
"null","","html-keyboard-response","505","2114347","0.0-8.0-0.0-4.10","36","<p><img class= 'stimulus' src='images/negative/Ferret 1.jpg'></img></p>","null","","1551119753146","4","","","","","",""
"null","","html-keyboard-response","506","2114447","0.0-8.0-0.0-5.10","36","<p><img class= 'stimulus' src='images/baseline/building8.jpg'></img></p>","null","","1551119753247","","","","","","",""
