"rt","responses","trial_type","trial_index","time_elapsed","internal_node_id","participant_id","stimulus","key_press","button_pressed","stim_onset","sequence_position","distractor_position","target_lag","distractor_type","target_orientation","phase","correct"
"22689.79999999283","{""Q0"":""COGS219_2019_10""}","survey-text","0","22695","0.0-0.0","COGS219_2019_10","","","","","","","","","","",""
"2627821.7","","html-keyboard-response","1","2650522","0.0-1.0","COGS219_2019_10","Welcome to the experiment.","67","","","","","","","","",""
"20808.40000000922","","html-button-response","2","2671337","0.0-2.0","COGS219_2019_10","<p>Several images will be presented sequentially.        Each image will only be on the screen for about 100 milliseconds.</p>        <p> One of the images may be rotated 90 degrees right or left.        Watch for this image and remember if it is rotated right or left.</p>               <p>Images of people and animals will appear, and sometimes they will be unpleasant.        These will never be the rotated target image.</p>","","0","","","","","","","",""
"2590.20000000624","","html-button-response","3","2673928","0.0-3.0","COGS219_2019_10","<p><img class=""stimulus left-rotate"" src=""images/target/mitre peak.jpg""></img></p><p>This is an example of an image rotated to the left.</p>","","0","","","","","","","",""
"6270.9000000031665","","html-button-response","4","2680200","0.0-4.0","COGS219_2019_10","<p><img class=""stimulus"" src=""images/target/skyscraper-3855012_640.jpg""></img></p><p>This is an example of an image rotated to the right.</p>","","0","","","","","","","",""
"7918.999999994412","","html-button-response","5","2688109","0.0-5.0","COGS219_2019_10","<p>We will now begin a short practice session.</p>         <p>A + symbol will appear in the middle of the screen. Please fix your gaze on the center of the +, and then click the mouse button to begin the image sequence.</p>         <p>Please avoid blinking or eye movements while the images are on the screen.</p>        <p>The image sequence will start relatively slow. After a few sequences, it will speed up.</p>","","0","","","","","","","",""
"8310.700000002049","","html-button-response","6","2696421","0.0-6.0-0.0","COGS219_2019_10","","","0","","","","","","","",""
"null","","html-keyboard-response","7","2696603","0.0-6.0-1.0","COGS219_2019_10","<p><img class= 'stimulus' src='images/baseline/house6.jpg'></img></p>","null","","1549917475333","","","","","","",""
"null","","html-keyboard-response","8","2696803","0.0-6.0-2.0","COGS219_2019_10","<p><img class= 'stimulus' src='images/baseline/05292v.jpg'></img></p>","null","","1549917475535","","","","","","",""
"null","","html-keyboard-response","9","2697005","0.0-6.0-3.0","COGS219_2019_10","<p><img class= 'stimulus' src='images/baseline/04193v.jpg'></img></p>","null","","1549917475734","","","","","","",""
"null","","html-keyboard-response","10","2697204","0.0-6.0-4.0","COGS219_2019_10","<p><img class= 'stimulus' src='images/baseline/building5.jpg'></img></p>","null","","1549917475936","4","","","","","",""
"null","","html-keyboard-response","11","2697404","0.0-6.0-5.0","COGS219_2019_10","<p><img class= 'stimulus' src='images/baseline/river 1.jpg'></img></p>","null","","1549917476136","","","","","","",""
"null","","html-keyboard-response","12","2697604","0.0-6.0-6.0","COGS219_2019_10","<p><img class= 'stimulus' src='images/baseline/pexels-photo-459203.jpeg'></img></p>","null","","1549917476334","6","","","","","",""
"null","","html-keyboard-response","13","2697805","0.0-6.0-7.0","COGS219_2019_10","<p><img class= 'stimulus' src='images/baseline/Road 1.jpg'></img></p>","null","","1549917476534","","","","","","",""
"null","","html-keyboard-response","14","2698004","0.0-6.0-8.0","COGS219_2019_10","<p><img class= 'stimulus' src='images/target/tree-3563269_640.jpg'></img></p>","null","","1549917476735","8","","","","","",""
"null","","html-keyboard-response","15","2698205","0.0-6.0-9.0","COGS219_2019_10","<p><img class= 'stimulus' src='images/baseline/lone-old-cottonwood-tree.jpg'></img></p>","null","","1549917476936","","","","","","",""
"null","","html-keyboard-response","16","2698405","0.0-6.0-10.0","COGS219_2019_10","<p><img class= 'stimulus' src='images/baseline/architecture_modern_architecture_852928.jpg'></img></p>","null","","1549917477136","","","","","","",""
"null","","html-keyboard-response","17","2698606","0.0-6.0-11.0","COGS219_2019_10","<p><img class= 'stimulus' src='images/baseline/farmhouse1.jpg'></img></p>","null","","1549917477336","","","","","","",""
"null","","html-keyboard-response","18","2698805","0.0-6.0-12.0","COGS219_2019_10","<p><img class= 'stimulus' src='images/baseline/house11.jpg'></img></p>","null","","1549917477536","12","","","","","",""
"null","","html-keyboard-response","19","2699005","0.0-6.0-13.0","COGS219_2019_10","<p><img class= 'stimulus' src='images/baseline/pexels-photo-1261728.jpeg'></img></p>","null","","1549917477735","","","","","","",""
"null","","html-keyboard-response","20","2699205","0.0-6.0-14.0","COGS219_2019_10","<p><img class= 'stimulus' src='images/baseline/04010v.jpg'></img></p>","null","","1549917477936","14","","","","","",""
"null","","html-keyboard-response","21","2699409","0.0-6.0-15.0","COGS219_2019_10","<p><img class= 'stimulus' src='images/baseline/lake3.jpg'></img></p>","null","","1549917478135","","","","","","",""
"null","","html-keyboard-response","22","2699606","0.0-6.0-16.0","COGS219_2019_10","<p><img class= 'stimulus' src='images/baseline/03066v.jpg'></img></p>","null","","1549917478339","","","","","","",""
"null","","html-keyboard-response","23","2699823","0.0-6.0-17.0","COGS219_2019_10","<p><img class= 'stimulus' src='images/baseline/Skyscraper 2.jpg'></img></p>","null","","1549917478536","","","","","","",""
"6151.70000001695","","html-button-response","24","2706981","0.0-6.0-18.0","COGS219_2019_10","<div class = ""response_question"">WAS THE IMAGE ROTATED...</div>","","3","","","6","2","bas","right","practice","true"
"4869.700000009965","","html-button-response","25","2711853","0.0-6.0-0.1","COGS219_2019_10","","","0","","","","","","","",""
"null","","html-keyboard-response","26","2712037","0.0-6.0-1.1","COGS219_2019_10","<p><img class= 'stimulus' src='images/baseline/farmhouse3.jpg'></img></p>","null","","1549917490769","","","","","","",""
"null","","html-keyboard-response","27","2712237","0.0-6.0-2.1","COGS219_2019_10","<p><img class= 'stimulus' src='images/baseline/04098v.jpg'></img></p>","null","","1549917490970","","","","","","",""
"null","","html-keyboard-response","28","2712438","0.0-6.0-3.1","COGS219_2019_10","<p><img class= 'stimulus' src='images/baseline/05303v.jpg'></img></p>","null","","1549917491169","","","","","","",""
"null","","html-keyboard-response","29","2712638","0.0-6.0-4.1","COGS219_2019_10","<p><img class= 'stimulus' src='images/baseline/landscape37.jpg'></img></p>","null","","1549917491370","4","","","","","",""
"null","","html-keyboard-response","30","2712839","0.0-6.0-5.1","COGS219_2019_10","<p><img class= 'stimulus' src='images/baseline/house7.jpg'></img></p>","null","","1549917491568","","","","","","",""
"null","","html-keyboard-response","31","2713037","0.0-6.0-6.1","COGS219_2019_10","<p><img class= 'stimulus' src='images/baseline/Cold 7.jpg'></img></p>","null","","1549917491768","6","","","","","",""
"null","","html-keyboard-response","32","2713239","0.0-6.0-7.1","COGS219_2019_10","<p><img class= 'stimulus' src='images/baseline/pexels-photo-440731.jpeg'></img></p>","null","","1549917491968","","","","","","",""
"null","","html-keyboard-response","33","2713439","0.0-6.0-8.1","COGS219_2019_10","<p><img class= 'stimulus left-rotate' src='images/target/building3.jpg'></img></p>","null","","1549917492168","8","","","","","",""
"null","","html-keyboard-response","34","2713638","0.0-6.0-9.1","COGS219_2019_10","<p><img class= 'stimulus' src='images/baseline/03063v.jpg'></img></p>","null","","1549917492368","","","","","","",""
"null","","html-keyboard-response","35","2713839","0.0-6.0-10.1","COGS219_2019_10","<p><img class= 'stimulus' src='images/baseline/Sky 1.jpg'></img></p>","null","","1549917492569","","","","","","",""
"null","","html-keyboard-response","36","2714039","0.0-6.0-11.1","COGS219_2019_10","<p><img class= 'stimulus' src='images/baseline/cranes 1.jpg'></img></p>","null","","1549917492770","","","","","","",""
"null","","html-keyboard-response","37","2714239","0.0-6.0-12.1","COGS219_2019_10","<p><img class= 'stimulus' src='images/baseline/03204v.jpg'></img></p>","null","","1549917492970","12","","","","","",""
"null","","html-keyboard-response","38","2714439","0.0-6.0-13.1","COGS219_2019_10","<p><img class= 'stimulus' src='images/baseline/city-silhouette-at-sunset-871291580819Esw.jpg'></img></p>","null","","1549917493169","","","","","","",""
"null","","html-keyboard-response","39","2714639","0.0-6.0-14.1","COGS219_2019_10","<p><img class= 'stimulus' src='images/baseline/04117v.jpg'></img></p>","null","","1549917493369","14","","","","","",""
"null","","html-keyboard-response","40","2714839","0.0-6.0-15.1","COGS219_2019_10","<p><img class= 'stimulus' src='images/baseline/Street 2.jpg'></img></p>","null","","1549917493569","","","","","","",""
"null","","html-keyboard-response","41","2715039","0.0-6.0-16.1","COGS219_2019_10","<p><img class= 'stimulus' src='images/baseline/02947v.jpg'></img></p>","null","","1549917493770","","","","","","",""
"null","","html-keyboard-response","42","2715255","0.0-6.0-17.1","COGS219_2019_10","<p><img class= 'stimulus' src='images/baseline/03112v.jpg'></img></p>","null","","1549917493970","","","","","","",""
"1544.5999999935739","","html-button-response","43","2717806","0.0-6.0-18.1","COGS219_2019_10","<div class = ""response_question"">WAS THE IMAGE ROTATED...</div>","","0","","","6","2","bas","left","practice","true"
"2118.099999992177","","html-button-response","44","2719925","0.0-6.0-0.2","COGS219_2019_10","","","0","","","","","","","",""
"null","","html-keyboard-response","45","2720105","0.0-6.0-1.2","COGS219_2019_10","<p><img class= 'stimulus' src='images/baseline/landscape36.jpg'></img></p>","null","","1549917498836","","","","","","",""
"null","","html-keyboard-response","46","2720306","0.0-6.0-2.2","COGS219_2019_10","<p><img class= 'stimulus' src='images/baseline/Bridge 1.jpg'></img></p>","null","","1549917499035","","","","","","",""
"null","","html-keyboard-response","47","2720505","0.0-6.0-3.2","COGS219_2019_10","<p><img class= 'stimulus' src='images/baseline/field 3.jpg'></img></p>","null","","1549917499236","","","","","","",""
"null","","html-keyboard-response","48","2720705","0.0-6.0-4.2","COGS219_2019_10","<p><img class= 'stimulus' src='images/baseline/03180v.jpg'></img></p>","null","","1549917499436","4","","","","","",""
"null","","html-keyboard-response","49","2720905","0.0-6.0-5.2","COGS219_2019_10","<p><img class= 'stimulus' src='images/baseline/landscape16.jpg'></img></p>","null","","1549917499636","","","","","","",""
"null","","html-keyboard-response","50","2721106","0.0-6.0-6.2","COGS219_2019_10","<p><img class= 'stimulus' src='images/baseline/Street 3.jpg'></img></p>","null","","1549917499837","6","","","","","",""
"null","","html-keyboard-response","51","2721306","0.0-6.0-7.2","COGS219_2019_10","<p><img class= 'stimulus' src='images/baseline/pexels-photo-541101.jpeg'></img></p>","null","","1549917500037","","","","","","",""
"null","","html-keyboard-response","52","2721506","0.0-6.0-8.2","COGS219_2019_10","<p><img class= 'stimulus' src='images/baseline/landscape17.jpg'></img></p>","null","","1549917500236","8","","","","","",""
"null","","html-keyboard-response","53","2721708","0.0-6.0-9.2","COGS219_2019_10","<p><img class= 'stimulus' src='images/baseline/04014v.jpg'></img></p>","null","","1549917500437","","","","","","",""
"null","","html-keyboard-response","54","2721907","0.0-6.0-10.2","COGS219_2019_10","<p><img class= 'stimulus' src='images/baseline/church-silhouette-8712964986014Kb.jpg'></img></p>","null","","1549917500636","","","","","","",""
"null","","html-keyboard-response","55","2722107","0.0-6.0-11.2","COGS219_2019_10","<p><img class= 'stimulus' src='images/baseline/05255v.jpg'></img></p>","null","","1549917500838","","","","","","",""
"null","","html-keyboard-response","56","2722307","0.0-6.0-12.2","COGS219_2019_10","<p><img class= 'stimulus' src='images/baseline/building12.jpg'></img></p>","null","","1549917501038","12","","","","","",""
"null","","html-keyboard-response","57","2722507","0.0-6.0-13.2","COGS219_2019_10","<p><img class= 'stimulus' src='images/baseline/pexels-photo-1287089.jpeg'></img></p>","null","","1549917501238","","","","","","",""
"null","","html-keyboard-response","58","2722707","0.0-6.0-14.2","COGS219_2019_10","<p><img class= 'stimulus left-rotate' src='images/target/lookout_tower.jpg'></img></p>","null","","1549917501440","14","","","","","",""
"null","","html-keyboard-response","59","2722908","0.0-6.0-15.2","COGS219_2019_10","<p><img class= 'stimulus' src='images/baseline/Sailing 3.jpg'></img></p>","null","","1549917501638","","","","","","",""
"null","","html-keyboard-response","60","2723107","0.0-6.0-16.2","COGS219_2019_10","<p><img class= 'stimulus' src='images/baseline/field 2.jpg'></img></p>","null","","1549917501838","","","","","","",""
"null","","html-keyboard-response","61","2723324","0.0-6.0-17.2","COGS219_2019_10","<p><img class= 'stimulus' src='images/baseline/building6.jpg'></img></p>","null","","1549917502038","","","","","","",""
"4066.6999999955297","","html-button-response","62","2728397","0.0-6.0-18.2","COGS219_2019_10","<div class = ""response_question"">WAS THE IMAGE ROTATED...</div>","","0","","","6","8","bas","left","practice","true"
"2166.400000016205","","html-button-response","63","2730565","0.0-6.0-0.3","COGS219_2019_10","","","0","","","","","","","",""
"null","","html-keyboard-response","64","2730738","0.0-6.0-1.3","COGS219_2019_10","<p><img class= 'stimulus' src='images/baseline/pexels-photo-534164.jpeg'></img></p>","null","","1549917509469","","","","","","",""
"null","","html-keyboard-response","65","2730938","0.0-6.0-2.3","COGS219_2019_10","<p><img class= 'stimulus' src='images/baseline/agriculture-cereal-clouds-175389.jpg'></img></p>","null","","1549917509668","","","","","","",""
"null","","html-keyboard-response","66","2731139","0.0-6.0-3.3","COGS219_2019_10","<p><img class= 'stimulus' src='images/baseline/road 1(1).jpg'></img></p>","null","","1549917509870","","","","","","",""
"null","","html-keyboard-response","67","2731339","0.0-6.0-4.3","COGS219_2019_10","<p><img class= 'stimulus' src='images/baseline/Lake 9.jpg'></img></p>","null","","1549917510069","4","","","","","",""
"null","","html-keyboard-response","68","2731539","0.0-6.0-5.3","COGS219_2019_10","<p><img class= 'stimulus' src='images/baseline/04040v.jpg'></img></p>","null","","1549917510269","","","","","","",""
"null","","html-keyboard-response","69","2731740","0.0-6.0-6.3","COGS219_2019_10","<p><img class= 'stimulus' src='images/baseline/grand-teton-mountains.jpg'></img></p>","null","","1549917510469","6","","","","","",""
"null","","html-keyboard-response","70","2731938","0.0-6.0-7.3","COGS219_2019_10","<p><img class= 'stimulus' src='images/baseline/pexels-photo-1840893.jpeg'></img></p>","null","","1549917510669","","","","","","",""
"null","","html-keyboard-response","71","2732138","0.0-6.0-8.3","COGS219_2019_10","<p><img class= 'stimulus' src='images/baseline/03045v.jpg'></img></p>","null","","1549917510869","8","","","","","",""
"null","","html-keyboard-response","72","2732339","0.0-6.0-9.3","COGS219_2019_10","<p><img class= 'stimulus' src='images/baseline/pexels-photo-750108.jpeg'></img></p>","null","","1549917511070","","","","","","",""
"null","","html-keyboard-response","73","2732538","0.0-6.0-10.3","COGS219_2019_10","<p><img class= 'stimulus' src='images/baseline/04062v.jpg'></img></p>","null","","1549917511269","","","","","","",""
"null","","html-keyboard-response","74","2732739","0.0-6.0-11.3","COGS219_2019_10","<p><img class= 'stimulus' src='images/baseline/05189v.jpg'></img></p>","null","","1549917511470","","","","","","",""
"null","","html-keyboard-response","75","2732939","0.0-6.0-12.3","COGS219_2019_10","<p><img class= 'stimulus' src='images/baseline/Lake 7.jpg'></img></p>","null","","1549917511669","12","","","","","",""
"null","","html-keyboard-response","76","2733139","0.0-6.0-13.3","COGS219_2019_10","<p><img class= 'stimulus' src='images/baseline/hills 3.jpg'></img></p>","null","","1549917511871","","","","","","",""
"null","","html-keyboard-response","77","2733340","0.0-6.0-14.3","COGS219_2019_10","<p><img class= 'stimulus' src='images/target/lighthouse-843522_640.jpg'></img></p>","null","","1549917512071","14","","","","","",""
"null","","html-keyboard-response","78","2733541","0.0-6.0-15.3","COGS219_2019_10","<p><img class= 'stimulus' src='images/baseline/Desert_View_Indian_Wells.jpg'></img></p>","null","","1549917512270","","","","","","",""
"null","","html-keyboard-response","79","2733740","0.0-6.0-16.3","COGS219_2019_10","<p><img class= 'stimulus' src='images/baseline/horse_statue.jpg'></img></p>","null","","1549917512470","","","","","","",""
"null","","html-keyboard-response","80","2733955","0.0-6.0-17.3","COGS219_2019_10","<p><img class= 'stimulus' src='images/baseline/04064v.jpg'></img></p>","null","","1549917512669","","","","","","",""
"1182.100000005681","","html-button-response","81","2736142","0.0-6.0-18.3","COGS219_2019_10","<div class = ""response_question"">WAS THE IMAGE ROTATED...</div>","","3","","","6","8","bas","right","practice","true"
"1590.1000000010245","","html-button-response","82","2737733","0.0-6.0-0.4","COGS219_2019_10","","","0","","","","","","","",""
"null","","html-keyboard-response","83","2737870","0.0-6.0-1.4","COGS219_2019_10","<p><img class= 'stimulus' src='images/baseline/03056v.jpg'></img></p>","null","","1549917516651","","","","","","",""
"null","","html-keyboard-response","84","2738021","0.0-6.0-2.4","COGS219_2019_10","<p><img class= 'stimulus' src='images/baseline/Paysage_enneige_02.jpg'></img></p>","null","","1549917516802","","","","","","",""
"null","","html-keyboard-response","85","2738170","0.0-6.0-3.4","COGS219_2019_10","<p><img class= 'stimulus' src='images/baseline/building_at_national_conservation.jpg'></img></p>","null","","1549917516950","","","","","","",""
"null","","html-keyboard-response","86","2738320","0.0-6.0-4.4","COGS219_2019_10","<p><img class= 'stimulus' src='images/baseline/snowy tree.jpg'></img></p>","null","","1549917517102","4","","","","","",""
"null","","html-keyboard-response","87","2738471","0.0-6.0-5.4","COGS219_2019_10","<p><img class= 'stimulus' src='images/baseline/meadow-with-mountain-in-background.jpg'></img></p>","null","","1549917517251","","","","","","",""
"null","","html-keyboard-response","88","2738620","0.0-6.0-6.4","COGS219_2019_10","<p><img class= 'stimulus' src='images/target/lone-tree.png'></img></p>","null","","1549917517401","6","","","","","",""
"null","","html-keyboard-response","89","2738770","0.0-6.0-7.4","COGS219_2019_10","<p><img class= 'stimulus' src='images/baseline/04085v.jpg'></img></p>","null","","1549917517551","","","","","","",""
"null","","html-keyboard-response","90","2738921","0.0-6.0-8.4","COGS219_2019_10","<p><img class= 'stimulus' src='images/baseline/04060v.jpg'></img></p>","null","","1549917517701","8","","","","","",""
"null","","html-keyboard-response","91","2739071","0.0-6.0-9.4","COGS219_2019_10","<p><img class= 'stimulus' src='images/baseline/chicago-skyline-at-night-1476869511p8U.jpg'></img></p>","null","","1549917517850","","","","","","",""
"null","","html-keyboard-response","92","2739220","0.0-6.0-10.4","COGS219_2019_10","<p><img class= 'stimulus' src='images/baseline/landscape14.jpg'></img></p>","null","","1549917518001","","","","","","",""
"null","","html-keyboard-response","93","2739369","0.0-6.0-11.4","COGS219_2019_10","<p><img class= 'stimulus' src='images/baseline/farmhouse4.jpg'></img></p>","null","","1549917518151","","","","","","",""
"null","","html-keyboard-response","94","2739521","0.0-6.0-12.4","COGS219_2019_10","<p><img class= 'stimulus' src='images/baseline/landscape2.jpg'></img></p>","null","","1549917518302","12","","","","","",""
"null","","html-keyboard-response","95","2739670","0.0-6.0-13.4","COGS219_2019_10","<p><img class= 'stimulus' src='images/baseline/99_-_Machu_Picchu_-_Juin_2009.edit3.jpg'></img></p>","null","","1549917518451","","","","","","",""
"null","","html-keyboard-response","96","2739820","0.0-6.0-14.4","COGS219_2019_10","<p><img class= 'stimulus' src='images/baseline/03098v.jpg'></img></p>","null","","1549917518600","14","","","","","",""
"null","","html-keyboard-response","97","2739970","0.0-6.0-15.4","COGS219_2019_10","<p><img class= 'stimulus' src='images/baseline/flooded-bridge.jpg'></img></p>","null","","1549917518751","","","","","","",""
"null","","html-keyboard-response","98","2740121","0.0-6.0-16.4","COGS219_2019_10","<p><img class= 'stimulus' src='images/baseline/farmhouse8.jpg'></img></p>","null","","1549917518900","","","","","","",""
"null","","html-keyboard-response","99","2740287","0.0-6.0-17.4","COGS219_2019_10","<p><img class= 'stimulus' src='images/baseline/Niinsaare_jarv.jpg'></img></p>","null","","1549917519050","","","","","","",""
"1745.1999999759719","","html-button-response","100","2743037","0.0-6.0-18.4","COGS219_2019_10","<div class = ""response_question"">WAS THE IMAGE ROTATED...</div>","","3","","","4","2","bas","right","practice","true"
"1878.1999999773689","","html-button-response","101","2744917","0.0-6.0-0.5","COGS219_2019_10","","","0","","","","","","","",""
"null","","html-keyboard-response","102","2745054","0.0-6.0-1.5","COGS219_2019_10","<p><img class= 'stimulus' src='images/baseline/05264v.jpg'></img></p>","null","","1549917523833","","","","","","",""
"null","","html-keyboard-response","103","2745204","0.0-6.0-2.5","COGS219_2019_10","<p><img class= 'stimulus' src='images/baseline/04196v.jpg'></img></p>","null","","1549917523983","","","","","","",""
"null","","html-keyboard-response","104","2745353","0.0-6.0-3.5","COGS219_2019_10","<p><img class= 'stimulus' src='images/baseline/landscape1.jpg'></img></p>","null","","1549917524134","","","","","","",""
"null","","html-keyboard-response","105","2745503","0.0-6.0-4.5","COGS219_2019_10","<p><img class= 'stimulus' src='images/baseline/05252v.jpg'></img></p>","null","","1549917524284","4","","","","","",""
"null","","html-keyboard-response","106","2745652","0.0-6.0-5.5","COGS219_2019_10","<p><img class= 'stimulus' src='images/baseline/hiking-trail.jpg'></img></p>","null","","1549917524433","","","","","","",""
"null","","html-keyboard-response","107","2745803","0.0-6.0-6.5","COGS219_2019_10","<p><img class= 'stimulus' src='images/baseline/cyrillic.jpg'></img></p>","null","","1549917524584","6","","","","","",""
"null","","html-keyboard-response","108","2745953","0.0-6.0-7.5","COGS219_2019_10","<p><img class= 'stimulus' src='images/baseline/05139v.jpg'></img></p>","null","","1549917524734","","","","","","",""
"null","","html-keyboard-response","109","2746103","0.0-6.0-8.5","COGS219_2019_10","<p><img class= 'stimulus' src='images/baseline/05279v.jpg'></img></p>","null","","1549917524884","8","","","","","",""
"null","","html-keyboard-response","110","2746253","0.0-6.0-9.5","COGS219_2019_10","<p><img class= 'stimulus' src='images/baseline/pexels-photo-259280.jpeg'></img></p>","null","","1549917525033","","","","","","",""
"null","","html-keyboard-response","111","2746403","0.0-6.0-10.5","COGS219_2019_10","<p><img class= 'stimulus' src='images/baseline/Bahia_Onelli_Parque_Nacional_Los_Glaciares_Patagonia_Argentina_Luca_Galuzzi_2005.jpg'></img></p>","null","","1549917525183","","","","","","",""
"null","","html-keyboard-response","112","2746553","0.0-6.0-11.5","COGS219_2019_10","<p><img class= 'stimulus' src='images/baseline/Street 1.jpg'></img></p>","null","","1549917525335","","","","","","",""
"null","","html-keyboard-response","113","2746702","0.0-6.0-12.5","COGS219_2019_10","<p><img class= 'stimulus left-rotate' src='images/target/pexels-photo-1102846.jpeg'></img></p>","null","","1549917525484","12","","","","","",""
"null","","html-keyboard-response","114","2746853","0.0-6.0-13.5","COGS219_2019_10","<p><img class= 'stimulus' src='images/baseline/02960v.jpg'></img></p>","null","","1549917525634","","","","","","",""
"null","","html-keyboard-response","115","2747003","0.0-6.0-14.5","COGS219_2019_10","<p><img class= 'stimulus' src='images/baseline/04086v.jpg'></img></p>","null","","1549917525784","14","","","","","",""
"null","","html-keyboard-response","116","2747153","0.0-6.0-15.5","COGS219_2019_10","<p><img class= 'stimulus' src='images/baseline/Sidewalk 4.jpg'></img></p>","null","","1549917525933","","","","","","",""
"null","","html-keyboard-response","117","2747303","0.0-6.0-16.5","COGS219_2019_10","<p><img class= 'stimulus' src='images/baseline/landscape12.jpg'></img></p>","null","","1549917526083","","","","","","",""
"null","","html-keyboard-response","118","2747469","0.0-6.0-17.5","COGS219_2019_10","<p><img class= 'stimulus' src='images/baseline/field 1.jpg'></img></p>","null","","1549917526234","","","","","","",""
"2188.49999998929","","html-button-response","119","2750676","0.0-6.0-18.5","COGS219_2019_10","<div class = ""response_question"">WAS THE IMAGE ROTATED...</div>","","0","","","4","8","bas","left","practice","true"
"1798.2999999951571","","html-button-response","120","2752475","0.0-6.0-0.6","COGS219_2019_10","","","0","","","","","","","",""
"null","","html-keyboard-response","121","2752601","0.0-6.0-1.6","COGS219_2019_10","<p><img class= 'stimulus' src='images/baseline/sun-through-winter-tree-branches1.jpg'></img></p>","null","","1549917531382","","","","","","",""
"null","","html-keyboard-response","122","2752751","0.0-6.0-2.6","COGS219_2019_10","<p><img class= 'stimulus' src='images/baseline/pexels-photo-280222.jpeg'></img></p>","null","","1549917531532","","","","","","",""
"null","","html-keyboard-response","123","2752901","0.0-6.0-3.6","COGS219_2019_10","<p><img class= 'stimulus' src='images/baseline/landscape34.jpg'></img></p>","null","","1549917531682","","","","","","",""
"null","","html-keyboard-response","124","2753052","0.0-6.0-4.6","COGS219_2019_10","<p><img class= 'stimulus' src='images/baseline/4k-wallpaper-agriculture-clouds-842711.jpg'></img></p>","null","","1549917531831","4","","","","","",""
"null","","html-keyboard-response","125","2753201","0.0-6.0-5.6","COGS219_2019_10","<p><img class= 'stimulus' src='images/baseline/empire-state-building.jpg'></img></p>","null","","1549917531981","","","","","","",""
"null","","html-keyboard-response","126","2753351","0.0-6.0-6.6","COGS219_2019_10","<p><img class= 'stimulus' src='images/baseline/house10.jpg'></img></p>","null","","1549917532132","6","","","","","",""
"null","","html-keyboard-response","127","2753501","0.0-6.0-7.6","COGS219_2019_10","<p><img class= 'stimulus' src='images/baseline/vintage-art-deco-storefront.jpg'></img></p>","null","","1549917532282","","","","","","",""
"null","","html-keyboard-response","128","2753651","0.0-6.0-8.6","COGS219_2019_10","<p><img class= 'stimulus' src='images/baseline/scenic-mountain-landscape.jpg'></img></p>","null","","1549917532431","8","","","","","",""
"null","","html-keyboard-response","129","2753801","0.0-6.0-9.6","COGS219_2019_10","<p><img class= 'stimulus' src='images/baseline/03212v.jpg'></img></p>","null","","1549917532581","","","","","","",""
"null","","html-keyboard-response","130","2753951","0.0-6.0-10.6","COGS219_2019_10","<p><img class= 'stimulus' src='images/baseline/landscape15.jpg'></img></p>","null","","1549917532731","","","","","","",""
"null","","html-keyboard-response","131","2754101","0.0-6.0-11.6","COGS219_2019_10","<p><img class= 'stimulus' src='images/baseline/building16.jpg'></img></p>","null","","1549917532881","","","","","","",""
"null","","html-keyboard-response","132","2754250","0.0-6.0-12.6","COGS219_2019_10","<p><img class= 'stimulus' src='images/target/pexels-photo-932328.jpeg'></img></p>","null","","1549917533031","12","","","","","",""
"null","","html-keyboard-response","133","2754401","0.0-6.0-13.6","COGS219_2019_10","<p><img class= 'stimulus' src='images/baseline/pexels-photo-808465.jpeg'></img></p>","null","","1549917533182","","","","","","",""
"null","","html-keyboard-response","134","2754551","0.0-6.0-14.6","COGS219_2019_10","<p><img class= 'stimulus' src='images/baseline/hills 1.jpg'></img></p>","null","","1549917533332","14","","","","","",""
"null","","html-keyboard-response","135","2754701","0.0-6.0-15.6","COGS219_2019_10","<p><img class= 'stimulus' src='images/baseline/Lake 16.jpg'></img></p>","null","","1549917533483","","","","","","",""
"null","","html-keyboard-response","136","2754851","0.0-6.0-16.6","COGS219_2019_10","<p><img class= 'stimulus' src='images/baseline/bird-flying-at-sunset.jpg'></img></p>","null","","1549917533631","","","","","","",""
"null","","html-keyboard-response","137","2755018","0.0-6.0-17.6","COGS219_2019_10","<p><img class= 'stimulus' src='images/baseline/trees 23.jpg'></img></p>","null","","1549917533782","","","","","","",""
"2713.6000000173226","","html-button-response","138","2758740","0.0-6.0-18.6","COGS219_2019_10","<div class = ""response_question"">WAS THE IMAGE ROTATED...</div>","","3","","","4","8","bas","right","practice","true"
"1846.40000000922","","html-button-response","139","2760587","0.0-6.0-0.7","COGS219_2019_10","","","0","","","","","","","",""
"null","","html-keyboard-response","140","2760718","0.0-6.0-1.7","COGS219_2019_10","<p><img class= 'stimulus' src='images/baseline/Sunset 4.jpg'></img></p>","null","","1549917539499","","","","","","",""
"null","","html-keyboard-response","141","2760868","0.0-6.0-2.7","COGS219_2019_10","<p><img class= 'stimulus' src='images/baseline/05179v.jpg'></img></p>","null","","1549917539649","","","","","","",""
"null","","html-keyboard-response","142","2761017","0.0-6.0-3.7","COGS219_2019_10","<p><img class= 'stimulus' src='images/baseline/Beach 2.jpg'></img></p>","null","","1549917539798","","","","","","",""
"null","","html-keyboard-response","143","2761169","0.0-6.0-4.7","COGS219_2019_10","<p><img class= 'stimulus' src='images/baseline/Street 5.jpg'></img></p>","null","","1549917539950","4","","","","","",""
"null","","html-keyboard-response","144","2761318","0.0-6.0-5.7","COGS219_2019_10","<p><img class= 'stimulus' src='images/baseline/05161v.jpg'></img></p>","null","","1549917540098","","","","","","",""
"null","","html-keyboard-response","145","2761467","0.0-6.0-6.7","COGS219_2019_10","<p><img class= 'stimulus left-rotate' src='images/target/coconut-3396945_640.jpg'></img></p>","null","","1549917540248","6","","","","","",""
"null","","html-keyboard-response","146","2761618","0.0-6.0-7.7","COGS219_2019_10","<p><img class= 'stimulus' src='images/baseline/Street 4.jpg'></img></p>","null","","1549917540398","","","","","","",""
"null","","html-keyboard-response","147","2761768","0.0-6.0-8.7","COGS219_2019_10","<p><img class= 'stimulus' src='images/baseline/pexels-photo-1837621.jpeg'></img></p>","null","","1549917540548","8","","","","","",""
"null","","html-keyboard-response","148","2761918","0.0-6.0-9.7","COGS219_2019_10","<p><img class= 'stimulus' src='images/baseline/Sunset 5.jpg'></img></p>","null","","1549917540698","","","","","","",""
"null","","html-keyboard-response","149","2762067","0.0-6.0-10.7","COGS219_2019_10","<p><img class= 'stimulus' src='images/baseline/05145v.jpg'></img></p>","null","","1549917540848","","","","","","",""
"null","","html-keyboard-response","150","2762218","0.0-6.0-11.7","COGS219_2019_10","<p><img class= 'stimulus' src='images/baseline/farmhouse9.jpg'></img></p>","null","","1549917540998","","","","","","",""
"null","","html-keyboard-response","151","2762368","0.0-6.0-12.7","COGS219_2019_10","<p><img class= 'stimulus' src='images/baseline/05242v.jpg'></img></p>","null","","1549917541148","12","","","","","",""
"null","","html-keyboard-response","152","2762518","0.0-6.0-13.7","COGS219_2019_10","<p><img class= 'stimulus' src='images/baseline/Camping 10.jpg'></img></p>","null","","1549917541299","","","","","","",""
"null","","html-keyboard-response","153","2762668","0.0-6.0-14.7","COGS219_2019_10","<p><img class= 'stimulus' src='images/baseline/landscape40.jpg'></img></p>","null","","1549917541448","14","","","","","",""
"null","","html-keyboard-response","154","2762818","0.0-6.0-15.7","COGS219_2019_10","<p><img class= 'stimulus' src='images/baseline/Paysage_karabagh_02.jpg'></img></p>","null","","1549917541598","","","","","","",""
"null","","html-keyboard-response","155","2762968","0.0-6.0-16.7","COGS219_2019_10","<p><img class= 'stimulus' src='images/baseline/05167v.jpg'></img></p>","null","","1549917541748","","","","","","",""
"null","","html-keyboard-response","156","2763134","0.0-6.0-17.7","COGS219_2019_10","<p><img class= 'stimulus' src='images/baseline/03075v.jpg'></img></p>","null","","1549917541898","","","","","","",""
"5832.49999998929","","html-button-response","157","2769972","0.0-6.0-18.7","COGS219_2019_10","<div class = ""response_question"">WAS THE IMAGE ROTATED...</div>","","0","","","4","2","bas","left","practice","true"
"1854.399999981746","","html-button-response","158","2771828","0.0-6.0-0.8","COGS219_2019_10","","","0","","","","","","","",""
"null","","html-keyboard-response","159","2771902","0.0-6.0-1.8","COGS219_2019_10","<p><img class= 'stimulus' src='images/baseline/Lake 4.jpg'></img></p>","null","","1549917550731","","","","","","",""
"null","","html-keyboard-response","160","2772001","0.0-6.0-2.8","COGS219_2019_10","<p><img class= 'stimulus' src='images/baseline/sunny-landscape-with-dry-brush-and-mountain-background.jpg'></img></p>","null","","1549917550832","","","","","","",""
"null","","html-keyboard-response","161","2772101","0.0-6.0-3.8","COGS219_2019_10","<p><img class= 'stimulus' src='images/baseline/autumn-landscape-with-lake-fall-trees-mountains.jpg'></img></p>","null","","1549917550932","","","","","","",""
"null","","html-keyboard-response","162","2772201","0.0-6.0-4.8","COGS219_2019_10","<p><img class= 'stimulus' src='images/baseline/04201v.jpg'></img></p>","null","","1549917551032","4","","","","","",""
"null","","html-keyboard-response","163","2772301","0.0-6.0-5.8","COGS219_2019_10","<p><img class= 'stimulus' src='images/baseline/Skyscraper 1.jpg'></img></p>","null","","1549917551132","","","","","","",""
"null","","html-keyboard-response","164","2772401","0.0-6.0-6.8","COGS219_2019_10","<p><img class= 'stimulus' src='images/baseline/agriculture-countryside-crop-259280.jpg'></img></p>","null","","1549917551233","6","","","","","",""
"null","","html-keyboard-response","165","2772502","0.0-6.0-7.8","COGS219_2019_10","<p><img class= 'stimulus' src='images/baseline/landscape22.jpg'></img></p>","null","","1549917551333","","","","","","",""
"null","","html-keyboard-response","166","2772602","0.0-6.0-8.8","COGS219_2019_10","<p><img class= 'stimulus' src='images/baseline/05240v.jpg'></img></p>","null","","1549917551432","8","","","","","",""
"null","","html-keyboard-response","167","2772702","0.0-6.0-9.8","COGS219_2019_10","<p><img class= 'stimulus' src='images/baseline/Lake 14.jpg'></img></p>","null","","1549917551531","","","","","","",""
"null","","html-keyboard-response","168","2772801","0.0-6.0-10.8","COGS219_2019_10","<p><img class= 'stimulus' src='images/baseline/Kocherbaumwald-01.jpg'></img></p>","null","","1549917551631","","","","","","",""
"null","","html-keyboard-response","169","2772901","0.0-6.0-11.8","COGS219_2019_10","<p><img class= 'stimulus' src='images/baseline/05158v.jpg'></img></p>","null","","1549917551731","","","","","","",""
"null","","html-keyboard-response","170","2773002","0.0-6.0-12.8","COGS219_2019_10","<p><img class= 'stimulus' src='images/baseline/farmhouse2.jpg'></img></p>","null","","1549917551832","12","","","","","",""
"null","","html-keyboard-response","171","2773101","0.0-6.0-13.8","COGS219_2019_10","<p><img class= 'stimulus' src='images/baseline/03041v.jpg'></img></p>","null","","1549917551932","","","","","","",""
"null","","html-keyboard-response","172","2773202","0.0-6.0-14.8","COGS219_2019_10","<p><img class= 'stimulus' src='images/target/mitre peak.jpg'></img></p>","null","","1549917552032","14","","","","","",""
"null","","html-keyboard-response","173","2773301","0.0-6.0-15.8","COGS219_2019_10","<p><img class= 'stimulus' src='images/baseline/red-rocks-park.jpg'></img></p>","null","","1549917552133","","","","","","",""
"null","","html-keyboard-response","174","2773401","0.0-6.0-16.8","COGS219_2019_10","<p><img class= 'stimulus' src='images/baseline/house8.jpg'></img></p>","null","","1549917552233","","","","","","",""
"null","","html-keyboard-response","175","2773517","0.0-6.0-17.8","COGS219_2019_10","<p><img class= 'stimulus' src='images/baseline/seoul-410266_1920.jpg'></img></p>","null","","1549917552332","","","","","","",""
"6536.899999977555","","html-button-response","176","2781060","0.0-6.0-18.8","COGS219_2019_10","<div class = ""response_question"">WAS THE IMAGE ROTATED...</div>","","4","","","6","8","bas","right","practice","true"
"1734.299999981653","","html-button-response","177","2782796","0.0-6.0-0.9","COGS219_2019_10","","","0","","","","","","","",""
"null","","html-keyboard-response","178","2782868","0.0-6.0-1.9","COGS219_2019_10","<p><img class= 'stimulus' src='images/baseline/Grass 6.jpg'></img></p>","null","","1549917561698","","","","","","",""
"null","","html-keyboard-response","179","2782968","0.0-6.0-2.9","COGS219_2019_10","<p><img class= 'stimulus' src='images/baseline/pexels-photo-221125.jpeg'></img></p>","null","","1549917561799","","","","","","",""
"null","","html-keyboard-response","180","2783068","0.0-6.0-3.9","COGS219_2019_10","<p><img class= 'stimulus' src='images/baseline/foreclosed_home.jpg'></img></p>","null","","1549917561898","","","","","","",""
"null","","html-keyboard-response","181","2783168","0.0-6.0-4.9","COGS219_2019_10","<p><img class= 'stimulus' src='images/baseline/__08_-_ITALY_-_Forli_under_snow_-_winter_landscape_of_city_(christmas).jpg'></img></p>","null","","1549917561998","4","","","","","",""
"null","","html-keyboard-response","182","2783268","0.0-6.0-5.9","COGS219_2019_10","<p><img class= 'stimulus' src='images/baseline/04222v.jpg'></img></p>","null","","1549917562098","","","","","","",""
"null","","html-keyboard-response","183","2783369","0.0-6.0-6.9","COGS219_2019_10","<p><img class= 'stimulus left-rotate' src='images/target/building19.jpg'></img></p>","null","","1549917562198","6","","","","","",""
"null","","html-keyboard-response","184","2783468","0.0-6.0-7.9","COGS219_2019_10","<p><img class= 'stimulus' src='images/baseline/house2.jpg'></img></p>","null","","1549917562299","","","","","","",""
"null","","html-keyboard-response","185","2783568","0.0-6.0-8.9","COGS219_2019_10","<p><img class= 'stimulus' src='images/baseline/02977v.jpg'></img></p>","null","","1549917562399","8","","","","","",""
"null","","html-keyboard-response","186","2783668","0.0-6.0-9.9","COGS219_2019_10","<p><img class= 'stimulus' src='images/baseline/05247v.jpg'></img></p>","null","","1549917562498","","","","","","",""
"null","","html-keyboard-response","187","2783768","0.0-6.0-10.9","COGS219_2019_10","<p><img class= 'stimulus' src='images/baseline/pexels-photo-351264.jpeg'></img></p>","null","","1549917562598","","","","","","",""
"null","","html-keyboard-response","188","2783868","0.0-6.0-11.9","COGS219_2019_10","<p><img class= 'stimulus' src='images/baseline/sunset-over-the-lake.jpg'></img></p>","null","","1549917562699","","","","","","",""
"null","","html-keyboard-response","189","2783968","0.0-6.0-12.9","COGS219_2019_10","<p><img class= 'stimulus' src='images/baseline/Waterfall 1.jpg'></img></p>","null","","1549917562798","12","","","","","",""
"null","","html-keyboard-response","190","2784068","0.0-6.0-13.9","COGS219_2019_10","<p><img class= 'stimulus' src='images/baseline/lake 1.jpg'></img></p>","null","","1549917562899","","","","","","",""
"null","","html-keyboard-response","191","2784168","0.0-6.0-14.9","COGS219_2019_10","<p><img class= 'stimulus' src='images/baseline/landscape39.jpg'></img></p>","null","","1549917562998","14","","","","","",""
"null","","html-keyboard-response","192","2784268","0.0-6.0-15.9","COGS219_2019_10","<p><img class= 'stimulus' src='images/baseline/farmhouse6.jpg'></img></p>","null","","1549917563098","","","","","","",""
"null","","html-keyboard-response","193","2784369","0.0-6.0-16.9","COGS219_2019_10","<p><img class= 'stimulus' src='images/baseline/landscape23.jpg'></img></p>","null","","1549917563199","","","","","","",""
"null","","html-keyboard-response","194","2784485","0.0-6.0-17.9","COGS219_2019_10","<p><img class= 'stimulus' src='images/baseline/02945v.jpg'></img></p>","null","","1549917563298","","","","","","",""
"2354.399999981746","","html-button-response","195","2787852","0.0-6.0-18.9","COGS219_2019_10","<div class = ""response_question"">WAS THE IMAGE ROTATED...</div>","","0","","","4","2","bas","left","practice","true"
"1470.6000000005588","","html-button-response","196","2789324","0.0-6.0-0.10","COGS219_2019_10","","","0","","","","","","","",""
"null","","html-keyboard-response","197","2789401","0.0-6.0-1.10","COGS219_2019_10","<p><img class= 'stimulus' src='images/baseline/landscape3.jpg'></img></p>","null","","1549917568231","","","","","","",""
"null","","html-keyboard-response","198","2789502","0.0-6.0-2.10","COGS219_2019_10","<p><img class= 'stimulus' src='images/baseline/Dock 1.jpg'></img></p>","null","","1549917568332","","","","","","",""
"null","","html-keyboard-response","199","2789602","0.0-6.0-3.10","COGS219_2019_10","<p><img class= 'stimulus' src='images/baseline/05186v.jpg'></img></p>","null","","1549917568434","","","","","","",""
"null","","html-keyboard-response","200","2789702","0.0-6.0-4.10","COGS219_2019_10","<p><img class= 'stimulus' src='images/baseline/farmhouse7.jpg'></img></p>","null","","1549917568532","4","","","","","",""
"null","","html-keyboard-response","201","2789802","0.0-6.0-5.10","COGS219_2019_10","<p><img class= 'stimulus' src='images/baseline/landscape33.jpg'></img></p>","null","","1549917568631","","","","","","",""
"null","","html-keyboard-response","202","2789902","0.0-6.0-6.10","COGS219_2019_10","<p><img class= 'stimulus' src='images/baseline/dirt-road-or-trail-through-park.jpg'></img></p>","null","","1549917568731","6","","","","","",""
"null","","html-keyboard-response","203","2790001","0.0-6.0-7.10","COGS219_2019_10","<p><img class= 'stimulus' src='images/baseline/04063v.jpg'></img></p>","null","","1549917568831","","","","","","",""
"null","","html-keyboard-response","204","2790101","0.0-6.0-8.10","COGS219_2019_10","<p><img class= 'stimulus left-rotate' src='images/target/fishhouse.jpg'></img></p>","null","","1549917568932","8","","","","","",""
"null","","html-keyboard-response","205","2790202","0.0-6.0-9.10","COGS219_2019_10","<p><img class= 'stimulus' src='images/baseline/autumn-in-red-rocks-park.jpg'></img></p>","null","","1549917569032","","","","","","",""
"null","","html-keyboard-response","206","2790303","0.0-6.0-10.10","COGS219_2019_10","<p><img class= 'stimulus' src='images/baseline/Lake 15.jpg'></img></p>","null","","1549917569133","","","","","","",""
"null","","html-keyboard-response","207","2790402","0.0-6.0-11.10","COGS219_2019_10","<p><img class= 'stimulus' src='images/baseline/02982v.jpg'></img></p>","null","","1549917569232","","","","","","",""
"null","","html-keyboard-response","208","2790501","0.0-6.0-12.10","COGS219_2019_10","<p><img class= 'stimulus' src='images/baseline/geese-flying-over-lake-at-dusk.jpg'></img></p>","null","","1549917569332","12","","","","","",""
"null","","html-keyboard-response","209","2790602","0.0-6.0-13.10","COGS219_2019_10","<p><img class= 'stimulus' src='images/baseline/landscape35.jpg'></img></p>","null","","1549917569433","","","","","","",""
"null","","html-keyboard-response","210","2790702","0.0-6.0-14.10","COGS219_2019_10","<p><img class= 'stimulus' src='images/baseline/05203v.jpg'></img></p>","null","","1549917569532","14","","","","","",""
"null","","html-keyboard-response","211","2790802","0.0-6.0-15.10","COGS219_2019_10","<p><img class= 'stimulus' src='images/baseline/architecture-1314416_1920.jpg'></img></p>","null","","1549917569633","","","","","","",""
"null","","html-keyboard-response","212","2790901","0.0-6.0-16.10","COGS219_2019_10","<p><img class= 'stimulus' src='images/baseline/farmhouse11.jpg'></img></p>","null","","1549917569731","","","","","","",""
"null","","html-keyboard-response","213","2791018","0.0-6.0-17.10","COGS219_2019_10","<p><img class= 'stimulus' src='images/baseline/pexels-photo-568236.jpeg'></img></p>","null","","1549917569831","","","","","","",""
"4677.200000005774","","html-button-response","214","2796700","0.0-6.0-18.10","COGS219_2019_10","<div class = ""response_question"">WAS THE IMAGE ROTATED...</div>","","1","","","6","2","bas","left","practice","true"
"1486.2999999895692","","html-button-response","215","2798188","0.0-6.0-0.11","COGS219_2019_10","","","0","","","","","","","",""
"null","","html-keyboard-response","216","2798267","0.0-6.0-1.11","COGS219_2019_10","<p><img class= 'stimulus' src='images/baseline/04162v.jpg'></img></p>","null","","1549917577099","","","","","","",""
"null","","html-keyboard-response","217","2798369","0.0-6.0-2.11","COGS219_2019_10","<p><img class= 'stimulus' src='images/baseline/04158v.jpg'></img></p>","null","","1549917577198","","","","","","",""
"null","","html-keyboard-response","218","2798468","0.0-6.0-3.11","COGS219_2019_10","<p><img class= 'stimulus' src='images/baseline/03217v.jpg'></img></p>","null","","1549917577298","","","","","","",""
"null","","html-keyboard-response","219","2798568","0.0-6.0-4.11","COGS219_2019_10","<p><img class= 'stimulus' src='images/baseline/kokkari-1523011968Xfr.jpg'></img></p>","null","","1549917577398","4","","","","","",""
"null","","html-keyboard-response","220","2798668","0.0-6.0-5.11","COGS219_2019_10","<p><img class= 'stimulus' src='images/baseline/Beach 8.jpg'></img></p>","null","","1549917577498","","","","","","",""
"null","","html-keyboard-response","221","2798769","0.0-6.0-6.11","COGS219_2019_10","<p><img class= 'stimulus' src='images/target/palm-trees-1209125_640.jpg'></img></p>","null","","1549917577599","6","","","","","",""
"null","","html-keyboard-response","222","2798870","0.0-6.0-7.11","COGS219_2019_10","<p><img class= 'stimulus' src='images/baseline/pexels-photo-1054289.jpeg'></img></p>","null","","1549917577699","","","","","","",""
"null","","html-keyboard-response","223","2798969","0.0-6.0-8.11","COGS219_2019_10","<p><img class= 'stimulus' src='images/baseline/landscape7.jpg'></img></p>","null","","1549917577798","8","","","","","",""
"null","","html-keyboard-response","224","2799067","0.0-6.0-9.11","COGS219_2019_10","<p><img class= 'stimulus' src='images/baseline/Sunset 6.jpg'></img></p>","null","","1549917577900","","","","","","",""
"null","","html-keyboard-response","225","2799168","0.0-6.0-10.11","COGS219_2019_10","<p><img class= 'stimulus' src='images/baseline/red rocks from afar.jpg'></img></p>","null","","1549917577998","","","","","","",""
"null","","html-keyboard-response","226","2799269","0.0-6.0-11.11","COGS219_2019_10","<p><img class= 'stimulus' src='images/baseline/landscape31.jpg'></img></p>","null","","1549917578099","","","","","","",""
"null","","html-keyboard-response","227","2799368","0.0-6.0-12.11","COGS219_2019_10","<p><img class= 'stimulus' src='images/baseline/04130v.jpg'></img></p>","null","","1549917578199","12","","","","","",""
"null","","html-keyboard-response","228","2799468","0.0-6.0-13.11","COGS219_2019_10","<p><img class= 'stimulus' src='images/baseline/valley 1.jpg'></img></p>","null","","1549917578299","","","","","","",""
"null","","html-keyboard-response","229","2799568","0.0-6.0-14.11","COGS219_2019_10","<p><img class= 'stimulus' src='images/baseline/Linden,_paysage.jpg'></img></p>","null","","1549917578398","14","","","","","",""
"null","","html-keyboard-response","230","2799668","0.0-6.0-15.11","COGS219_2019_10","<p><img class= 'stimulus' src='images/baseline/04284v.jpg'></img></p>","null","","1549917578498","","","","","","",""
"null","","html-keyboard-response","231","2799769","0.0-6.0-16.11","COGS219_2019_10","<p><img class= 'stimulus' src='images/baseline/pexels-photo-894312.jpeg'></img></p>","null","","1549917578599","","","","","","",""
"null","","html-keyboard-response","232","2799884","0.0-6.0-17.11","COGS219_2019_10","<p><img class= 'stimulus' src='images/baseline/Lake 5.jpg'></img></p>","null","","1549917578698","","","","","","",""
"1204.700000002049","","html-button-response","233","2802092","0.0-6.0-18.11","COGS219_2019_10","<div class = ""response_question"">WAS THE IMAGE ROTATED...</div>","","3","","","4","2","bas","right","practice","true"
"1902.0000000018626","","html-button-response","234","2803995","0.0-6.0-0.12","COGS219_2019_10","","","0","","","","","","","",""
"null","","html-keyboard-response","235","2804068","0.0-6.0-1.12","COGS219_2019_10","<p><img class= 'stimulus' src='images/baseline/pexels-photo-414491.jpeg'></img></p>","null","","1549917582899","","","","","","",""
"null","","html-keyboard-response","236","2804169","0.0-6.0-2.12","COGS219_2019_10","<p><img class= 'stimulus' src='images/baseline/landscape4.jpg'></img></p>","null","","1549917582999","","","","","","",""
"null","","html-keyboard-response","237","2804267","0.0-6.0-3.12","COGS219_2019_10","<p><img class= 'stimulus' src='images/baseline/lake 2.jpg'></img></p>","null","","1549917583099","","","","","","",""
"null","","html-keyboard-response","238","2804368","0.0-6.0-4.12","COGS219_2019_10","<p><img class= 'stimulus' src='images/baseline/building9.jpg'></img></p>","null","","1549917583199","4","","","","","",""
"null","","html-keyboard-response","239","2804469","0.0-6.0-5.12","COGS219_2019_10","<p><img class= 'stimulus' src='images/baseline/landscape11.jpg'></img></p>","null","","1549917583298","","","","","","",""
"null","","html-keyboard-response","240","2804568","0.0-6.0-6.12","COGS219_2019_10","<p><img class= 'stimulus' src='images/baseline/pexels-photo-59321.jpeg'></img></p>","null","","1549917583398","6","","","","","",""
"null","","html-keyboard-response","241","2804668","0.0-6.0-7.12","COGS219_2019_10","<p><img class= 'stimulus' src='images/baseline/Sunset 3.jpg'></img></p>","null","","1549917583498","","","","","","",""
"null","","html-keyboard-response","242","2804769","0.0-6.0-8.12","COGS219_2019_10","<p><img class= 'stimulus' src='images/baseline/05131v.jpg'></img></p>","null","","1549917583598","8","","","","","",""
"null","","html-keyboard-response","243","2804868","0.0-6.0-9.12","COGS219_2019_10","<p><img class= 'stimulus' src='images/baseline/pexels-photo-210617.jpeg'></img></p>","null","","1549917583699","","","","","","",""
"null","","html-keyboard-response","244","2804968","0.0-6.0-10.12","COGS219_2019_10","<p><img class= 'stimulus' src='images/baseline/05198v.jpg'></img></p>","null","","1549917583798","","","","","","",""
"null","","html-keyboard-response","245","2805068","0.0-6.0-11.12","COGS219_2019_10","<p><img class= 'stimulus' src='images/baseline/04031v.jpg'></img></p>","null","","1549917583900","","","","","","",""
"null","","html-keyboard-response","246","2805168","0.0-6.0-12.12","COGS219_2019_10","<p><img class= 'stimulus' src='images/baseline/tennis-court-net-buried-in-snow.jpg'></img></p>","null","","1549917583999","12","","","","","",""
"null","","html-keyboard-response","247","2805268","0.0-6.0-13.12","COGS219_2019_10","<p><img class= 'stimulus' src='images/baseline/pexels-photo-427676.jpeg'></img></p>","null","","1549917584100","","","","","","",""
"null","","html-keyboard-response","248","2805368","0.0-6.0-14.12","COGS219_2019_10","<p><img class= 'stimulus left-rotate' src='images/target/oak-456524_640.jpg'></img></p>","null","","1549917584199","14","","","","","",""
"null","","html-keyboard-response","249","2805468","0.0-6.0-15.12","COGS219_2019_10","<p><img class= 'stimulus' src='images/baseline/02971v.jpg'></img></p>","null","","1549917584299","","","","","","",""
"null","","html-keyboard-response","250","2805568","0.0-6.0-16.12","COGS219_2019_10","<p><img class= 'stimulus' src='images/baseline/architecture-956332_1280.jpg'></img></p>","null","","1549917584398","","","","","","",""
"null","","html-keyboard-response","251","2805686","0.0-6.0-17.12","COGS219_2019_10","<p><img class= 'stimulus' src='images/baseline/04300v.jpg'></img></p>","null","","1549917584498","","","","","","",""
"1159.7999999942258","","html-button-response","252","2807860","0.0-6.0-18.12","COGS219_2019_10","<div class = ""response_question"">WAS THE IMAGE ROTATED...</div>","","0","","","6","8","bas","left","practice","true"
"1590.3000000109896","","html-button-response","253","2809447","0.0-6.0-0.13","COGS219_2019_10","","","0","","","","","","","",""
"null","","html-keyboard-response","254","2809532","0.0-6.0-1.13","COGS219_2019_10","<p><img class= 'stimulus' src='images/baseline/04179v.jpg'></img></p>","null","","1549917588361","","","","","","",""
"null","","html-keyboard-response","255","2809633","0.0-6.0-2.13","COGS219_2019_10","<p><img class= 'stimulus' src='images/baseline/lookout_tower.jpg'></img></p>","null","","1549917588462","","","","","","",""
"null","","html-keyboard-response","256","2809732","0.0-6.0-3.13","COGS219_2019_10","<p><img class= 'stimulus' src='images/baseline/Lake 3.jpg'></img></p>","null","","1549917588562","","","","","","",""
"null","","html-keyboard-response","257","2809831","0.0-6.0-4.13","COGS219_2019_10","<p><img class= 'stimulus' src='images/baseline/Beach 3.jpg'></img></p>","null","","1549917588662","4","","","","","",""
"null","","html-keyboard-response","258","2809931","0.0-6.0-5.13","COGS219_2019_10","<p><img class= 'stimulus' src='images/baseline/02988v.jpg'></img></p>","null","","1549917588762","","","","","","",""
"null","","html-keyboard-response","259","2810031","0.0-6.0-6.13","COGS219_2019_10","<p><img class= 'stimulus' src='images/baseline/landscape8.jpg'></img></p>","null","","1549917588860","6","","","","","",""
"null","","html-keyboard-response","260","2810131","0.0-6.0-7.13","COGS219_2019_10","<p><img class= 'stimulus' src='images/baseline/Dirt 2.jpg'></img></p>","null","","1549917588961","","","","","","",""
"null","","html-keyboard-response","261","2810231","0.0-6.0-8.13","COGS219_2019_10","<p><img class= 'stimulus' src='images/target/buildin2.png'></img></p>","null","","1549917589062","8","","","","","",""
"null","","html-keyboard-response","262","2810331","0.0-6.0-9.13","COGS219_2019_10","<p><img class= 'stimulus' src='images/baseline/03148v.jpg'></img></p>","null","","1549917589163","","","","","","",""
"null","","html-keyboard-response","263","2810431","0.0-6.0-10.13","COGS219_2019_10","<p><img class= 'stimulus' src='images/baseline/pexels-photo-1048039.jpeg'></img></p>","null","","1549917589261","","","","","","",""
"null","","html-keyboard-response","264","2810531","0.0-6.0-11.13","COGS219_2019_10","<p><img class= 'stimulus' src='images/baseline/05280v.jpg'></img></p>","null","","1549917589363","","","","","","",""
"null","","html-keyboard-response","265","2810630","0.0-6.0-12.13","COGS219_2019_10","<p><img class= 'stimulus' src='images/baseline/road.jpg'></img></p>","null","","1549917589462","12","","","","","",""
"null","","html-keyboard-response","266","2810731","0.0-6.0-13.13","COGS219_2019_10","<p><img class= 'stimulus' src='images/baseline/Peyto_Lake-Banff_NP-Canada.jpg'></img></p>","null","","1549917589562","","","","","","",""
"null","","html-keyboard-response","267","2810830","0.0-6.0-14.13","COGS219_2019_10","<p><img class= 'stimulus' src='images/baseline/Lake 13.jpg'></img></p>","null","","1549917589662","14","","","","","",""
"null","","html-keyboard-response","268","2810930","0.0-6.0-15.13","COGS219_2019_10","<p><img class= 'stimulus' src='images/baseline/building8.jpg'></img></p>","null","","1549917589762","","","","","","",""
"null","","html-keyboard-response","269","2811031","0.0-6.0-16.13","COGS219_2019_10","<p><img class= 'stimulus' src='images/baseline/house3.jpg'></img></p>","null","","1549917589861","","","","","","",""
"null","","html-keyboard-response","270","2811148","0.0-6.0-17.13","COGS219_2019_10","<p><img class= 'stimulus' src='images/baseline/Aletschgletscher-Eggishorn.jpg'></img></p>","null","","1549917589962","","","","","","",""
"1894.0000000004657","","html-button-response","271","2814048","0.0-6.0-18.13","COGS219_2019_10","<div class = ""response_question"">WAS THE IMAGE ROTATED...</div>","","4","","","6","2","bas","right","practice","true"
"966.1999999955297","","html-button-response","272","2815016","0.0-6.0-0.14","COGS219_2019_10","","","0","","","","","","","",""
"null","","html-keyboard-response","273","2815098","0.0-6.0-1.14","COGS219_2019_10","<p><img class= 'stimulus' src='images/baseline/02962v.jpg'></img></p>","null","","1549917593928","","","","","","",""
"null","","html-keyboard-response","274","2815197","0.0-6.0-2.14","COGS219_2019_10","<p><img class= 'stimulus' src='images/baseline/03114v.jpg'></img></p>","null","","1549917594028","","","","","","",""
"null","","html-keyboard-response","275","2815299","0.0-6.0-3.14","COGS219_2019_10","<p><img class= 'stimulus' src='images/baseline/building4.jpg'></img></p>","null","","1549917594128","","","","","","",""
"null","","html-keyboard-response","276","2815398","0.0-6.0-4.14","COGS219_2019_10","<p><img class= 'stimulus' src='images/baseline/landscape19.jpg'></img></p>","null","","1549917594228","4","","","","","",""
"null","","html-keyboard-response","277","2815498","0.0-6.0-5.14","COGS219_2019_10","<p><img class= 'stimulus' src='images/baseline/03220v.jpg'></img></p>","null","","1549917594328","","","","","","",""
"null","","html-keyboard-response","278","2815597","0.0-6.0-6.14","COGS219_2019_10","<p><img class= 'stimulus' src='images/baseline/landscape29.jpg'></img></p>","null","","1549917594428","6","","","","","",""
"null","","html-keyboard-response","279","2815697","0.0-6.0-7.14","COGS219_2019_10","<p><img class= 'stimulus' src='images/baseline/03162v.jpg'></img></p>","null","","1549917594529","","","","","","",""
"null","","html-keyboard-response","280","2815799","0.0-6.0-8.14","COGS219_2019_10","<p><img class= 'stimulus' src='images/baseline/03201v.jpg'></img></p>","null","","1549917594628","8","","","","","",""
"null","","html-keyboard-response","281","2815897","0.0-6.0-9.14","COGS219_2019_10","<p><img class= 'stimulus' src='images/baseline/building3.jpg'></img></p>","null","","1549917594729","","","","","","",""
"null","","html-keyboard-response","282","2815998","0.0-6.0-10.14","COGS219_2019_10","<p><img class= 'stimulus' src='images/baseline/field 4.jpg'></img></p>","null","","1549917594828","","","","","","",""
"null","","html-keyboard-response","283","2816098","0.0-6.0-11.14","COGS219_2019_10","<p><img class= 'stimulus' src='images/baseline/Freudenberg_sg_Switzerland.jpg'></img></p>","null","","1549917594928","","","","","","",""
"null","","html-keyboard-response","284","2816198","0.0-6.0-12.14","COGS219_2019_10","<p><img class= 'stimulus' src='images/target/building2.jpg'></img></p>","null","","1549917595027","12","","","","","",""
"null","","html-keyboard-response","285","2816297","0.0-6.0-13.14","COGS219_2019_10","<p><img class= 'stimulus' src='images/baseline/Nature 2.jpg'></img></p>","null","","1549917595128","","","","","","",""
"null","","html-keyboard-response","286","2816397","0.0-6.0-14.14","COGS219_2019_10","<p><img class= 'stimulus' src='images/baseline/landscape13.jpg'></img></p>","null","","1549917595228","14","","","","","",""
"null","","html-keyboard-response","287","2816497","0.0-6.0-15.14","COGS219_2019_10","<p><img class= 'stimulus' src='images/baseline/Nature 1.jpg'></img></p>","null","","1549917595329","","","","","","",""
"null","","html-keyboard-response","288","2816598","0.0-6.0-16.14","COGS219_2019_10","<p><img class= 'stimulus' src='images/baseline/Path 1.jpg'></img></p>","null","","1549917595428","","","","","","",""
"null","","html-keyboard-response","289","2816714","0.0-6.0-17.14","COGS219_2019_10","<p><img class= 'stimulus' src='images/baseline/town-square-in-wroclaw-1539098440MZy.jpg'></img></p>","null","","1549917595529","","","","","","",""
"1018.8999999957159","","html-button-response","290","2818736","0.0-6.0-18.14","COGS219_2019_10","<div class = ""response_question"">WAS THE IMAGE ROTATED...</div>","","3","","","4","8","bas","right","practice","true"
"1382.1999999927357","","html-button-response","291","2820120","0.0-6.0-0.15","COGS219_2019_10","","","0","","","","","","","",""
"null","","html-keyboard-response","292","2820198","0.0-6.0-1.15","COGS219_2019_10","<p><img class= 'stimulus' src='images/baseline/Happy pose 3.jpg'></img></p>","null","","1549917599027","","","","","","",""
"null","","html-keyboard-response","293","2820298","0.0-6.0-2.15","COGS219_2019_10","<p><img class= 'stimulus' src='images/baseline/agriculture-bright-clouds-440731.jpg'></img></p>","null","","1549917599127","","","","","","",""
"null","","html-keyboard-response","294","2820398","0.0-6.0-3.15","COGS219_2019_10","<p><img class= 'stimulus' src='images/baseline/landscape38.jpg'></img></p>","null","","1549917599228","","","","","","",""
"null","","html-keyboard-response","295","2820498","0.0-6.0-4.15","COGS219_2019_10","<p><img class= 'stimulus' src='images/baseline/hills 4.jpg'></img></p>","null","","1549917599328","4","","","","","",""
"null","","html-keyboard-response","296","2820598","0.0-6.0-5.15","COGS219_2019_10","<p><img class= 'stimulus' src='images/baseline/house1.jpg'></img></p>","null","","1549917599428","","","","","","",""
"null","","html-keyboard-response","297","2820697","0.0-6.0-6.15","COGS219_2019_10","<p><img class= 'stimulus' src='images/baseline/Lake 8.jpg'></img></p>","null","","1549917599528","6","","","","","",""
"null","","html-keyboard-response","298","2820797","0.0-6.0-7.15","COGS219_2019_10","<p><img class= 'stimulus' src='images/baseline/04021v.jpg'></img></p>","null","","1549917599628","","","","","","",""
"null","","html-keyboard-response","299","2820897","0.0-6.0-8.15","COGS219_2019_10","<p><img class= 'stimulus' src='images/baseline/valley 2.jpg'></img></p>","null","","1549917599728","8","","","","","",""
"null","","html-keyboard-response","300","2820997","0.0-6.0-9.15","COGS219_2019_10","<p><img class= 'stimulus' src='images/baseline/landscape6.jpg'></img></p>","null","","1549917599827","","","","","","",""
"null","","html-keyboard-response","301","2821097","0.0-6.0-10.15","COGS219_2019_10","<p><img class= 'stimulus' src='images/baseline/building2.jpg'></img></p>","null","","1549917599928","","","","","","",""
"null","","html-keyboard-response","302","2821197","0.0-6.0-11.15","COGS219_2019_10","<p><img class= 'stimulus' src='images/baseline/04229v.jpg'></img></p>","null","","1549917600028","","","","","","",""
"null","","html-keyboard-response","303","2821297","0.0-6.0-12.15","COGS219_2019_10","<p><img class= 'stimulus left-rotate' src='images/target/cactus2.jpg'></img></p>","null","","1549917600128","12","","","","","",""
"null","","html-keyboard-response","304","2821397","0.0-6.0-13.15","COGS219_2019_10","<p><img class= 'stimulus' src='images/baseline/Skijump 1.jpg'></img></p>","null","","1549917600228","","","","","","",""
"null","","html-keyboard-response","305","2821498","0.0-6.0-14.15","COGS219_2019_10","<p><img class= 'stimulus' src='images/baseline/04064v.jpg'></img></p>","null","","1549917600329","14","","","","","",""
"null","","html-keyboard-response","306","2821597","0.0-6.0-15.15","COGS219_2019_10","<p><img class= 'stimulus' src='images/baseline/04284v.jpg'></img></p>","null","","1549917600428","","","","","","",""
"null","","html-keyboard-response","307","2821697","0.0-6.0-16.15","COGS219_2019_10","<p><img class= 'stimulus' src='images/baseline/landscape35.jpg'></img></p>","null","","1549917600528","","","","","","",""
"null","","html-keyboard-response","308","2821815","0.0-6.0-17.15","COGS219_2019_10","<p><img class= 'stimulus' src='images/baseline/foreclosed_home.jpg'></img></p>","null","","1549917600628","","","","","","",""
"2165.2000000174157","","html-button-response","309","2824984","0.0-6.0-18.15","COGS219_2019_10","<div class = ""response_question"">WAS THE IMAGE ROTATED...</div>","","0","","","4","8","bas","left","practice","true"
"87414.19999999925","","html-button-response","310","2912404","0.0-7.0","COGS219_2019_10","<p>You have now completed the practice phase. We will now begin the real trials.         This is a reminder that you will be searching for a rotated image among the series of upright images.</p>         <p>Remember, please do not blink or move your eyes while the images are on the screen.</p>         <p>At the end of the experiment, the experimenter will be able to show you how accurate you were.</p>","","0","","","","","","","",""
"2078.6000000080094","","html-button-response","311","2914483","0.0-8.0-0.0-0.0","COGS219_2019_10","","","0","","","","","","","",""
"null","","html-keyboard-response","312","2914570","0.0-8.0-0.0-1.0","COGS219_2019_10","<p><img class= 'stimulus' src='images/baseline/landscape34.jpg'></img></p>","null","","1549917693400","","","","","","",""
"null","","html-keyboard-response","313","2914670","0.0-8.0-0.0-2.0","COGS219_2019_10","<p><img class= 'stimulus' src='images/baseline/04130v.jpg'></img></p>","null","","1549917693500","","","","","","",""
"null","","html-keyboard-response","314","2914770","0.0-8.0-0.0-3.0","COGS219_2019_10","<p><img class= 'stimulus' src='images/baseline/04158v.jpg'></img></p>","null","","1549917693600","","","","","","",""
"null","","html-keyboard-response","315","2914870","0.0-8.0-0.0-4.0","COGS219_2019_10","<p><img class= 'stimulus' src='images/baseline/pexels-photo-440731.jpeg'></img></p>","null","","1549917693700","4","","","","","",""
"null","","html-keyboard-response","316","2914970","0.0-8.0-0.0-5.0","COGS219_2019_10","<p><img class= 'stimulus' src='images/baseline/pexels-photo-750108.jpeg'></img></p>","null","","1549917693800","","","","","","",""
"null","","html-keyboard-response","317","2915070","0.0-8.0-0.0-6.0","COGS219_2019_10","<p><img class= 'stimulus' src='images/baseline/lake3.jpg'></img></p>","null","","1549917693900","6","","","","","",""
"null","","html-keyboard-response","318","2915170","0.0-8.0-0.0-7.0","COGS219_2019_10","<p><img class= 'stimulus' src='images/baseline/building12.jpg'></img></p>","null","","1549917694000","","","","","","",""
"null","","html-keyboard-response","319","2915269","0.0-8.0-0.0-8.0","COGS219_2019_10","<p><img class= 'stimulus' src='images/baseline/Niinsaare_jarv.jpg'></img></p>","null","","1549917694100","8","","","","","",""
"null","","html-keyboard-response","320","2915369","0.0-8.0-0.0-9.0","COGS219_2019_10","<p><img class= 'stimulus' src='images/baseline/red-rocks-park.jpg'></img></p>","null","","1549917694200","","","","","","",""
"null","","html-keyboard-response","321","2915471","0.0-8.0-0.0-10.0","COGS219_2019_10","<p><img class= 'stimulus' src='images/baseline/pexels-photo-1048039.jpeg'></img></p>","null","","1549917694300","","","","","","",""
"null","","html-keyboard-response","322","2915569","0.0-8.0-0.0-11.0","COGS219_2019_10","<p><img class= 'stimulus' src='images/baseline/landscape1.jpg'></img></p>","null","","1549917694399","","","","","","",""
"null","","html-keyboard-response","323","2915669","0.0-8.0-0.0-12.0","COGS219_2019_10","<p><img class= 'stimulus' src='images/baseline/pexels-photo-541101.jpeg'></img></p>","null","","1549917694499","12","","","","","",""
"null","","html-keyboard-response","324","2915769","0.0-8.0-0.0-13.0","COGS219_2019_10","<p><img class= 'stimulus' src='images/baseline/Nature 1.jpg'></img></p>","null","","1549917694599","","","","","","",""
"null","","html-keyboard-response","325","2915870","0.0-8.0-0.0-14.0","COGS219_2019_10","<p><img class= 'stimulus' src='images/baseline/landscape36.jpg'></img></p>","null","","1549917694700","14","","","","","",""
"null","","html-keyboard-response","326","2915969","0.0-8.0-0.0-15.0","COGS219_2019_10","<p><img class= 'stimulus' src='images/baseline/architecture-956332_1280.jpg'></img></p>","null","","1549917694800","","","","","","",""
"null","","html-keyboard-response","327","2916069","0.0-8.0-0.0-16.0","COGS219_2019_10","<p><img class= 'stimulus' src='images/baseline/farmhouse1.jpg'></img></p>","null","","1549917694900","","","","","","",""
"null","","html-keyboard-response","328","2916186","0.0-8.0-0.0-17.0","COGS219_2019_10","<p><img class= 'stimulus' src='images/baseline/05131v.jpg'></img></p>","null","","1549917695000","","","","","","",""
"3045.1999999932013","","html-button-response","329","2920236","0.0-8.0-0.0-18.0","COGS219_2019_10","<div class = ""response_question"">WAS THE IMAGE ROTATED...</div>","","5","","","null","null","null","null","test","null"
"1782.1000000117347","","html-button-response","330","2922019","0.0-8.0-0.0-0.1","COGS219_2019_10","","","0","","","","","","","",""
"null","","html-keyboard-response","331","2922102","0.0-8.0-0.0-1.1","COGS219_2019_10","<p><img class= 'stimulus' src='images/baseline/pexels-photo-568236.jpeg'></img></p>","null","","1549917700934","","","","","","",""
"null","","html-keyboard-response","332","2922203","0.0-8.0-0.0-2.1","COGS219_2019_10","<p><img class= 'stimulus' src='images/baseline/pexels-photo-894312.jpeg'></img></p>","null","","1549917701033","","","","","","",""
"null","","html-keyboard-response","333","2922303","0.0-8.0-0.0-3.1","COGS219_2019_10","<p><img class= 'stimulus' src='images/baseline/building8.jpg'></img></p>","null","","1549917701132","","","","","","",""
"null","","html-keyboard-response","334","2922403","0.0-8.0-0.0-4.1","COGS219_2019_10","<p><img class= 'stimulus' src='images/baseline/road.jpg'></img></p>","null","","1549917701234","4","","","","","",""
"null","","html-keyboard-response","335","2922503","0.0-8.0-0.0-5.1","COGS219_2019_10","<p><img class= 'stimulus' src='images/baseline/Paysage_enneige_02.jpg'></img></p>","null","","1549917701334","","","","","","",""
"null","","html-keyboard-response","336","2922603","0.0-8.0-0.0-6.1","COGS219_2019_10","<p><img class= 'stimulus' src='images/neutral/cottontail-rabbit.jpg'></img></p>","null","","1549917701433","6","","","","","",""
"null","","html-keyboard-response","337","2922703","0.0-8.0-0.0-7.1","COGS219_2019_10","<p><img class= 'stimulus' src='images/baseline/architecture-1314416_1920.jpg'></img></p>","null","","1549917701533","","","","","","",""
"null","","html-keyboard-response","338","2922803","0.0-8.0-0.0-8.1","COGS219_2019_10","<p><img class= 'stimulus' src='images/baseline/03041v.jpg'></img></p>","null","","1549917701634","8","","","","","",""
"null","","html-keyboard-response","339","2922903","0.0-8.0-0.0-9.1","COGS219_2019_10","<p><img class= 'stimulus' src='images/baseline/field 4.jpg'></img></p>","null","","1549917701734","","","","","","",""
"null","","html-keyboard-response","340","2923002","0.0-8.0-0.0-10.1","COGS219_2019_10","<p><img class= 'stimulus' src='images/baseline/04086v.jpg'></img></p>","null","","1549917701833","","","","","","",""
"null","","html-keyboard-response","341","2923103","0.0-8.0-0.0-11.1","COGS219_2019_10","<p><img class= 'stimulus' src='images/baseline/02960v.jpg'></img></p>","null","","1549917701932","","","","","","",""
"null","","html-keyboard-response","342","2923203","0.0-8.0-0.0-12.1","COGS219_2019_10","<p><img class= 'stimulus' src='images/baseline/Street 4.jpg'></img></p>","null","","1549917702032","12","","","","","",""
"null","","html-keyboard-response","343","2923302","0.0-8.0-0.0-13.1","COGS219_2019_10","<p><img class= 'stimulus' src='images/baseline/landscape16.jpg'></img></p>","null","","1549917702132","","","","","","",""
"null","","html-keyboard-response","344","2923403","0.0-8.0-0.0-14.1","COGS219_2019_10","<p><img class= 'stimulus left-rotate' src='images/target/building17.jpg'></img></p>","null","","1549917702232","14","","","","","",""
"null","","html-keyboard-response","345","2923503","0.0-8.0-0.0-15.1","COGS219_2019_10","<p><img class= 'stimulus' src='images/baseline/hills 1.jpg'></img></p>","null","","1549917702334","","","","","","",""
"null","","html-keyboard-response","346","2923603","0.0-8.0-0.0-16.1","COGS219_2019_10","<p><img class= 'stimulus' src='images/baseline/Kocherbaumwald-01.jpg'></img></p>","null","","1549917702434","","","","","","",""
"null","","html-keyboard-response","347","2923719","0.0-8.0-0.0-17.1","COGS219_2019_10","<p><img class= 'stimulus' src='images/baseline/Sidewalk 4.jpg'></img></p>","null","","1549917702534","","","","","","",""
"2160.0000000037253","","html-button-response","348","2926884","0.0-8.0-0.0-18.1","COGS219_2019_10","<div class = ""response_question"">WAS THE IMAGE ROTATED...</div>","","0","","","6","8","neu","left","test","true"
"1238.2999999970198","","html-button-response","349","2928123","0.0-8.0-0.0-0.2","COGS219_2019_10","","","0","","","","","","","",""
"null","","html-keyboard-response","350","2928203","0.0-8.0-0.0-1.2","COGS219_2019_10","<p><img class= 'stimulus' src='images/baseline/Freudenberg_sg_Switzerland.jpg'></img></p>","null","","1549917707032","","","","","","",""
"null","","html-keyboard-response","351","2928303","0.0-8.0-0.0-2.2","COGS219_2019_10","<p><img class= 'stimulus' src='images/baseline/03075v.jpg'></img></p>","null","","1549917707134","","","","","","",""
"null","","html-keyboard-response","352","2928403","0.0-8.0-0.0-3.2","COGS219_2019_10","<p><img class= 'stimulus' src='images/baseline/landscape8.jpg'></img></p>","null","","1549917707234","","","","","","",""
"null","","html-keyboard-response","353","2928503","0.0-8.0-0.0-4.2","COGS219_2019_10","<p><img class= 'stimulus' src='images/baseline/pexels-photo-1287089.jpeg'></img></p>","null","","1549917707334","4","","","","","",""
"null","","html-keyboard-response","354","2928603","0.0-8.0-0.0-5.2","COGS219_2019_10","<p><img class= 'stimulus' src='images/baseline/03212v.jpg'></img></p>","null","","1549917707433","","","","","","",""
"null","","html-keyboard-response","355","2928702","0.0-8.0-0.0-6.2","COGS219_2019_10","<p><img class= 'stimulus' src='images/neutral/zebras.jpg'></img></p>","null","","1549917707533","6","","","","","",""
"null","","html-keyboard-response","356","2928804","0.0-8.0-0.0-7.2","COGS219_2019_10","<p><img class= 'stimulus' src='images/baseline/landscape40.jpg'></img></p>","null","","1549917707634","","","","","","",""
"null","","html-keyboard-response","357","2928904","0.0-8.0-0.0-8.2","COGS219_2019_10","<p><img class= 'stimulus left-rotate' src='images/target/1937-single-tree-at-the-top-of-stone-mountain-pv.jpg'></img></p>","null","","1549917707734","8","","","","","",""
"null","","html-keyboard-response","358","2929002","0.0-8.0-0.0-9.2","COGS219_2019_10","<p><img class= 'stimulus' src='images/baseline/landscape19.jpg'></img></p>","null","","1549917707835","","","","","","",""
"null","","html-keyboard-response","359","2929103","0.0-8.0-0.0-10.2","COGS219_2019_10","<p><img class= 'stimulus' src='images/baseline/Sunset 4.jpg'></img></p>","null","","1549917707933","","","","","","",""
"null","","html-keyboard-response","360","2929203","0.0-8.0-0.0-11.2","COGS219_2019_10","<p><img class= 'stimulus' src='images/baseline/05186v.jpg'></img></p>","null","","1549917708033","","","","","","",""
"null","","html-keyboard-response","361","2929303","0.0-8.0-0.0-12.2","COGS219_2019_10","<p><img class= 'stimulus' src='images/baseline/sunny-landscape-with-dry-brush-and-mountain-background.jpg'></img></p>","null","","1549917708133","12","","","","","",""
"null","","html-keyboard-response","362","2929403","0.0-8.0-0.0-13.2","COGS219_2019_10","<p><img class= 'stimulus' src='images/baseline/church-silhouette-8712964986014Kb.jpg'></img></p>","null","","1549917708233","","","","","","",""
"null","","html-keyboard-response","363","2929503","0.0-8.0-0.0-14.2","COGS219_2019_10","<p><img class= 'stimulus' src='images/baseline/lone-old-cottonwood-tree.jpg'></img></p>","null","","1549917708334","14","","","","","",""
"null","","html-keyboard-response","364","2929603","0.0-8.0-0.0-15.2","COGS219_2019_10","<p><img class= 'stimulus' src='images/baseline/05292v.jpg'></img></p>","null","","1549917708434","","","","","","",""
"null","","html-keyboard-response","365","2929703","0.0-8.0-0.0-16.2","COGS219_2019_10","<p><img class= 'stimulus' src='images/baseline/agriculture-cereal-clouds-175389.jpg'></img></p>","null","","1549917708533","","","","","","",""
"null","","html-keyboard-response","366","2929820","0.0-8.0-0.0-17.2","COGS219_2019_10","<p><img class= 'stimulus' src='images/baseline/Happy pose 3.jpg'></img></p>","null","","1549917708634","","","","","","",""
"2228.1000000080094","","html-button-response","367","2933052","0.0-8.0-0.0-18.2","COGS219_2019_10","<div class = ""response_question"">WAS THE IMAGE ROTATED...</div>","","2","","","6","2","neu","left","test","false"
"1350.1999999862164","","html-button-response","368","2934391","0.0-8.0-0.0-0.3","COGS219_2019_10","","","0","","","","","","","",""
"null","","html-keyboard-response","369","2934475","0.0-8.0-0.0-1.3","COGS219_2019_10","<p><img class= 'stimulus' src='images/baseline/landscape6.jpg'></img></p>","null","","1549917713305","","","","","","",""
"null","","html-keyboard-response","370","2934574","0.0-8.0-0.0-2.3","COGS219_2019_10","<p><img class= 'stimulus' src='images/baseline/05203v.jpg'></img></p>","null","","1549917713404","","","","","","",""
"null","","html-keyboard-response","371","2934675","0.0-8.0-0.0-3.3","COGS219_2019_10","<p><img class= 'stimulus' src='images/baseline/landscape7.jpg'></img></p>","null","","1549917713505","","","","","","",""
"null","","html-keyboard-response","372","2934774","0.0-8.0-0.0-4.3","COGS219_2019_10","<p><img class= 'stimulus' src='images/negative/Shark 5.jpg'></img></p>","null","","1549917713604","4","","","","","",""
"null","","html-keyboard-response","373","2934874","0.0-8.0-0.0-5.3","COGS219_2019_10","<p><img class= 'stimulus' src='images/baseline/house1.jpg'></img></p>","null","","1549917713704","","","","","","",""
"null","","html-keyboard-response","374","2934974","0.0-8.0-0.0-6.3","COGS219_2019_10","<p><img class= 'stimulus' src='images/baseline/pexels-photo-210617.jpeg'></img></p>","null","","1549917713805","6","","","","","",""
"null","","html-keyboard-response","375","2935075","0.0-8.0-0.0-7.3","COGS219_2019_10","<p><img class= 'stimulus' src='images/baseline/landscape15.jpg'></img></p>","null","","1549917713904","","","","","","",""
"null","","html-keyboard-response","376","2935174","0.0-8.0-0.0-8.3","COGS219_2019_10","<p><img class= 'stimulus' src='images/baseline/landscape13.jpg'></img></p>","null","","1549917714004","8","","","","","",""
"null","","html-keyboard-response","377","2935275","0.0-8.0-0.0-9.3","COGS219_2019_10","<p><img class= 'stimulus' src='images/baseline/trees 23.jpg'></img></p>","null","","1549917714104","","","","","","",""
"null","","html-keyboard-response","378","2935374","0.0-8.0-0.0-10.3","COGS219_2019_10","<p><img class= 'stimulus' src='images/baseline/Dirt 2.jpg'></img></p>","null","","1549917714205","","","","","","",""
"null","","html-keyboard-response","379","2935474","0.0-8.0-0.0-11.3","COGS219_2019_10","<p><img class= 'stimulus' src='images/baseline/04098v.jpg'></img></p>","null","","1549917714305","","","","","","",""
"null","","html-keyboard-response","380","2935574","0.0-8.0-0.0-12.3","COGS219_2019_10","<p><img class= 'stimulus' src='images/target/torrotito-375925_640.jpg'></img></p>","null","","1549917714406","12","","","","","",""
"null","","html-keyboard-response","381","2935675","0.0-8.0-0.0-13.3","COGS219_2019_10","<p><img class= 'stimulus' src='images/baseline/pexels-photo-534164.jpeg'></img></p>","null","","1549917714505","","","","","","",""
"null","","html-keyboard-response","382","2935773","0.0-8.0-0.0-14.3","COGS219_2019_10","<p><img class= 'stimulus' src='images/baseline/Desert_View_Indian_Wells.jpg'></img></p>","null","","1549917714604","14","","","","","",""
"null","","html-keyboard-response","383","2935873","0.0-8.0-0.0-15.3","COGS219_2019_10","<p><img class= 'stimulus' src='images/baseline/kokkari-1523011968Xfr.jpg'></img></p>","null","","1549917714704","","","","","","",""
"null","","html-keyboard-response","384","2935973","0.0-8.0-0.0-16.3","COGS219_2019_10","<p><img class= 'stimulus' src='images/baseline/landscape2.jpg'></img></p>","null","","1549917714804","","","","","","",""
"null","","html-keyboard-response","385","2936091","0.0-8.0-0.0-17.3","COGS219_2019_10","<p><img class= 'stimulus' src='images/baseline/05255v.jpg'></img></p>","null","","1549917714904","","","","","","",""
"1822.8999999989755","","html-button-response","386","2938919","0.0-8.0-0.0-18.3","COGS219_2019_10","<div class = ""response_question"">WAS THE IMAGE ROTATED...</div>","","3","","","4","8","neg","right","test","true"
"1758.2000000108965","","html-button-response","387","2940679","0.0-8.0-0.0-0.4","COGS219_2019_10","","","0","","","","","","","",""
"null","","html-keyboard-response","388","2940758","0.0-8.0-0.0-1.4","COGS219_2019_10","<p><img class= 'stimulus' src='images/baseline/05247v.jpg'></img></p>","null","","1549917719587","","","","","","",""
"null","","html-keyboard-response","389","2940857","0.0-8.0-0.0-2.4","COGS219_2019_10","<p><img class= 'stimulus' src='images/baseline/pexels-photo-351264.jpeg'></img></p>","null","","1549917719688","","","","","","",""
"null","","html-keyboard-response","390","2940958","0.0-8.0-0.0-3.4","COGS219_2019_10","<p><img class= 'stimulus' src='images/baseline/lookout_tower.jpg'></img></p>","null","","1549917719788","","","","","","",""
"null","","html-keyboard-response","391","2941057","0.0-8.0-0.0-4.4","COGS219_2019_10","<p><img class= 'stimulus' src='images/baseline/Lake 15.jpg'></img></p>","null","","1549917719888","4","","","","","",""
"null","","html-keyboard-response","392","2941158","0.0-8.0-0.0-5.4","COGS219_2019_10","<p><img class= 'stimulus' src='images/baseline/03066v.jpg'></img></p>","null","","1549917719987","","","","","","",""
"null","","html-keyboard-response","393","2941257","0.0-8.0-0.0-6.4","COGS219_2019_10","<p><img class= 'stimulus' src='images/baseline/Lake 14.jpg'></img></p>","null","","1549917720089","6","","","","","",""
"null","","html-keyboard-response","394","2941357","0.0-8.0-0.0-7.4","COGS219_2019_10","<p><img class= 'stimulus' src='images/baseline/05279v.jpg'></img></p>","null","","1549917720188","","","","","","",""
"null","","html-keyboard-response","395","2941458","0.0-8.0-0.0-8.4","COGS219_2019_10","<p><img class= 'stimulus' src='images/baseline/02977v.jpg'></img></p>","null","","1549917720287","8","","","","","",""
"null","","html-keyboard-response","396","2941557","0.0-8.0-0.0-9.4","COGS219_2019_10","<p><img class= 'stimulus' src='images/baseline/04063v.jpg'></img></p>","null","","1549917720389","","","","","","",""
"null","","html-keyboard-response","397","2941658","0.0-8.0-0.0-10.4","COGS219_2019_10","<p><img class= 'stimulus' src='images/baseline/cyrillic.jpg'></img></p>","null","","1549917720487","","","","","","",""
"null","","html-keyboard-response","398","2941758","0.0-8.0-0.0-11.4","COGS219_2019_10","<p><img class= 'stimulus' src='images/baseline/Street 2.jpg'></img></p>","null","","1549917720587","","","","","","",""
"null","","html-keyboard-response","399","2941858","0.0-8.0-0.0-12.4","COGS219_2019_10","<p><img class= 'stimulus' src='images/baseline/pexels-photo-808465.jpeg'></img></p>","null","","1549917720689","12","","","","","",""
"null","","html-keyboard-response","400","2941958","0.0-8.0-0.0-13.4","COGS219_2019_10","<p><img class= 'stimulus' src='images/baseline/valley 2.jpg'></img></p>","null","","1549917720787","","","","","","",""
"null","","html-keyboard-response","401","2942058","0.0-8.0-0.0-14.4","COGS219_2019_10","<p><img class= 'stimulus' src='images/target/landscape3.jpg'></img></p>","null","","1549917720888","14","","","","","",""
"null","","html-keyboard-response","402","2942156","0.0-8.0-0.0-15.4","COGS219_2019_10","<p><img class= 'stimulus' src='images/baseline/04062v.jpg'></img></p>","null","","1549917720988","","","","","","",""
"null","","html-keyboard-response","403","2942258","0.0-8.0-0.0-16.4","COGS219_2019_10","<p><img class= 'stimulus' src='images/baseline/pexels-photo-1840893.jpeg'></img></p>","null","","1549917721088","","","","","","",""
"null","","html-keyboard-response","404","2942374","0.0-8.0-0.0-17.4","COGS219_2019_10","<p><img class= 'stimulus' src='images/baseline/02971v.jpg'></img></p>","null","","1549917721188","","","","","","",""
"870.299999980256","","html-button-response","405","2944255","0.0-8.0-0.0-18.4","COGS219_2019_10","<div class = ""response_question"">WAS THE IMAGE ROTATED...</div>","","3","","","6","8","bas","right","test","true"
"1581.799999985844","","html-button-response","406","2945839","0.0-8.0-0.0-0.5","COGS219_2019_10","","","0","","","","","","","",""
"null","","html-keyboard-response","407","2945924","0.0-8.0-0.0-1.5","COGS219_2019_10","<p><img class= 'stimulus' src='images/baseline/Street 1.jpg'></img></p>","null","","1549917724754","","","","","","",""
"null","","html-keyboard-response","408","2946024","0.0-8.0-0.0-2.5","COGS219_2019_10","<p><img class= 'stimulus' src='images/baseline/02947v.jpg'></img></p>","null","","1549917724854","","","","","","",""
"null","","html-keyboard-response","409","2946125","0.0-8.0-0.0-3.5","COGS219_2019_10","<p><img class= 'stimulus' src='images/baseline/hiking-trail.jpg'></img></p>","null","","1549917724955","","","","","","",""
"null","","html-keyboard-response","410","2946224","0.0-8.0-0.0-4.5","COGS219_2019_10","<p><img class= 'stimulus' src='images/baseline/farmhouse11.jpg'></img></p>","null","","1549917725055","4","","","","","",""
"null","","html-keyboard-response","411","2946324","0.0-8.0-0.0-5.5","COGS219_2019_10","<p><img class= 'stimulus' src='images/baseline/pexels-photo-221125.jpeg'></img></p>","null","","1549917725154","","","","","","",""
"null","","html-keyboard-response","412","2946424","0.0-8.0-0.0-6.5","COGS219_2019_10","<p><img class= 'stimulus' src='images/baseline/Skyscraper 1.jpg'></img></p>","null","","1549917725254","6","","","","","",""
"null","","html-keyboard-response","413","2946524","0.0-8.0-0.0-7.5","COGS219_2019_10","<p><img class= 'stimulus' src='images/baseline/building9.jpg'></img></p>","null","","1549917725355","","","","","","",""
"null","","html-keyboard-response","414","2946624","0.0-8.0-0.0-8.5","COGS219_2019_10","<p><img class= 'stimulus' src='images/baseline/05139v.jpg'></img></p>","null","","1549917725454","8","","","","","",""
"null","","html-keyboard-response","415","2946724","0.0-8.0-0.0-9.5","COGS219_2019_10","<p><img class= 'stimulus' src='images/baseline/05240v.jpg'></img></p>","null","","1549917725554","","","","","","",""
"null","","html-keyboard-response","416","2946824","0.0-8.0-0.0-10.5","COGS219_2019_10","<p><img class= 'stimulus' src='images/baseline/pexels-photo-1261728.jpeg'></img></p>","null","","1549917725655","","","","","","",""
"null","","html-keyboard-response","417","2946924","0.0-8.0-0.0-11.5","COGS219_2019_10","<p><img class= 'stimulus' src='images/baseline/04179v.jpg'></img></p>","null","","1549917725755","","","","","","",""
"null","","html-keyboard-response","418","2947025","0.0-8.0-0.0-12.5","COGS219_2019_10","<p><img class= 'stimulus' src='images/baseline/farmhouse6.jpg'></img></p>","null","","1549917725855","12","","","","","",""
"null","","html-keyboard-response","419","2947124","0.0-8.0-0.0-13.5","COGS219_2019_10","<p><img class= 'stimulus' src='images/baseline/hills 4.jpg'></img></p>","null","","1549917725954","","","","","","",""
"null","","html-keyboard-response","420","2947225","0.0-8.0-0.0-14.5","COGS219_2019_10","<p><img class= 'stimulus left-rotate' src='images/target/landscape32.jpg'></img></p>","null","","1549917726056","14","","","","","",""
"null","","html-keyboard-response","421","2947324","0.0-8.0-0.0-15.5","COGS219_2019_10","<p><img class= 'stimulus' src='images/baseline/Street 3.jpg'></img></p>","null","","1549917726156","","","","","","",""
"null","","html-keyboard-response","422","2947424","0.0-8.0-0.0-16.5","COGS219_2019_10","<p><img class= 'stimulus' src='images/baseline/architecture_modern_architecture_852928.jpg'></img></p>","null","","1549917726255","","","","","","",""
"null","","html-keyboard-response","423","2947541","0.0-8.0-0.0-17.5","COGS219_2019_10","<p><img class= 'stimulus' src='images/baseline/Nature 2.jpg'></img></p>","null","","1549917726355","","","","","","",""
"1724.099999992177","","html-button-response","424","2950272","0.0-8.0-0.0-18.5","COGS219_2019_10","<div class = ""response_question"">WAS THE IMAGE ROTATED...</div>","","0","","","6","8","bas","left","test","true"
"1646.4000000264496","","html-button-response","425","2951919","0.0-8.0-0.0-0.6","COGS219_2019_10","","","0","","","","","","","",""
"null","","html-keyboard-response","426","2951991","0.0-8.0-0.0-1.6","COGS219_2019_10","<p><img class= 'stimulus' src='images/baseline/03180v.jpg'></img></p>","null","","1549917730821","","","","","","",""
"null","","html-keyboard-response","427","2952090","0.0-8.0-0.0-2.6","COGS219_2019_10","<p><img class= 'stimulus' src='images/baseline/Beach 8.jpg'></img></p>","null","","1549917730921","","","","","","",""
"null","","html-keyboard-response","428","2952191","0.0-8.0-0.0-3.6","COGS219_2019_10","<p><img class= 'stimulus' src='images/baseline/geese-flying-over-lake-at-dusk.jpg'></img></p>","null","","1549917731022","","","","","","",""
"null","","html-keyboard-response","429","2952290","0.0-8.0-0.0-4.6","COGS219_2019_10","<p><img class= 'stimulus' src='images/baseline/03162v.jpg'></img></p>","null","","1549917731121","4","","","","","",""
"null","","html-keyboard-response","430","2952390","0.0-8.0-0.0-5.6","COGS219_2019_10","<p><img class= 'stimulus' src='images/baseline/bird-flying-at-sunset.jpg'></img></p>","null","","1549917731221","","","","","","",""
"null","","html-keyboard-response","431","2952491","0.0-8.0-0.0-6.6","COGS219_2019_10","<p><img class= 'stimulus' src='images/negative/Car crash 2.jpg'></img></p>","null","","1549917731322","6","","","","","",""
"null","","html-keyboard-response","432","2952591","0.0-8.0-0.0-7.6","COGS219_2019_10","<p><img class= 'stimulus' src='images/baseline/02988v.jpg'></img></p>","null","","1549917731422","","","","","","",""
"null","","html-keyboard-response","433","2952691","0.0-8.0-0.0-8.6","COGS219_2019_10","<p><img class= 'stimulus' src='images/baseline/landscape37.jpg'></img></p>","null","","1549917731522","8","","","","","",""
"null","","html-keyboard-response","434","2952791","0.0-8.0-0.0-9.6","COGS219_2019_10","<p><img class= 'stimulus' src='images/baseline/05145v.jpg'></img></p>","null","","1549917731622","","","","","","",""
"null","","html-keyboard-response","435","2952891","0.0-8.0-0.0-10.6","COGS219_2019_10","<p><img class= 'stimulus' src='images/baseline/Grass 6.jpg'></img></p>","null","","1549917731723","","","","","","",""
"null","","html-keyboard-response","436","2952992","0.0-8.0-0.0-11.6","COGS219_2019_10","<p><img class= 'stimulus' src='images/baseline/valley 1.jpg'></img></p>","null","","1549917731821","","","","","","",""
"null","","html-keyboard-response","437","2953090","0.0-8.0-0.0-12.6","COGS219_2019_10","<p><img class= 'stimulus' src='images/baseline/Skijump 1.jpg'></img></p>","null","","1549917731922","12","","","","","",""
"null","","html-keyboard-response","438","2953190","0.0-8.0-0.0-13.6","COGS219_2019_10","<p><img class= 'stimulus' src='images/baseline/building3.jpg'></img></p>","null","","1549917732021","","","","","","",""
"null","","html-keyboard-response","439","2953291","0.0-8.0-0.0-14.6","COGS219_2019_10","<p><img class= 'stimulus' src='images/target/tree spring.jpeg'></img></p>","null","","1549917732121","14","","","","","",""
"null","","html-keyboard-response","440","2953391","0.0-8.0-0.0-15.6","COGS219_2019_10","<p><img class= 'stimulus' src='images/baseline/05158v.jpg'></img></p>","null","","1549917732221","","","","","","",""
"null","","html-keyboard-response","441","2953490","0.0-8.0-0.0-16.6","COGS219_2019_10","<p><img class= 'stimulus' src='images/baseline/03063v.jpg'></img></p>","null","","1549917732321","","","","","","",""
"null","","html-keyboard-response","442","2953607","0.0-8.0-0.0-17.6","COGS219_2019_10","<p><img class= 'stimulus' src='images/baseline/landscape38.jpg'></img></p>","null","","1549917732421","","","","","","",""
"1570.8000000161119","","html-button-response","443","2956183","0.0-8.0-0.0-18.6","COGS219_2019_10","<div class = ""response_question"">WAS THE IMAGE ROTATED...</div>","","4","","","6","8","neg","right","test","true"
"1246.1999999945983","","html-button-response","444","2957432","0.0-8.0-0.0-0.7","COGS219_2019_10","","","0","","","","","","","",""
"null","","html-keyboard-response","445","2957508","0.0-8.0-0.0-1.7","COGS219_2019_10","<p><img class= 'stimulus' src='images/baseline/landscape29.jpg'></img></p>","null","","1549917736338","","","","","","",""
"null","","html-keyboard-response","446","2957608","0.0-8.0-0.0-2.7","COGS219_2019_10","<p><img class= 'stimulus' src='images/baseline/hills 3.jpg'></img></p>","null","","1549917736438","","","","","","",""
"null","","html-keyboard-response","447","2957707","0.0-8.0-0.0-3.7","COGS219_2019_10","<p><img class= 'stimulus' src='images/baseline/Path 1.jpg'></img></p>","null","","1549917736538","","","","","","",""
"null","","html-keyboard-response","448","2957809","0.0-8.0-0.0-4.7","COGS219_2019_10","<p><img class= 'stimulus' src='images/baseline/building6.jpg'></img></p>","null","","1549917736639","4","","","","","",""
"null","","html-keyboard-response","449","2957907","0.0-8.0-0.0-5.7","COGS219_2019_10","<p><img class= 'stimulus' src='images/baseline/landscape23.jpg'></img></p>","null","","1549917736738","","","","","","",""
"null","","html-keyboard-response","450","2958007","0.0-8.0-0.0-6.7","COGS219_2019_10","<p><img class= 'stimulus' src='images/target/italy-building-1206128_1280.jpg'></img></p>","null","","1549917736839","6","","","","","",""
"null","","html-keyboard-response","451","2958108","0.0-8.0-0.0-7.7","COGS219_2019_10","<p><img class= 'stimulus' src='images/baseline/Bahia_Onelli_Parque_Nacional_Los_Glaciares_Patagonia_Argentina_Luca_Galuzzi_2005.jpg'></img></p>","null","","1549917736940","","","","","","",""
"null","","html-keyboard-response","452","2958208","0.0-8.0-0.0-8.7","COGS219_2019_10","<p><img class= 'stimulus' src='images/baseline/Sunset 3.jpg'></img></p>","null","","1549917737039","8","","","","","",""
"null","","html-keyboard-response","453","2958308","0.0-8.0-0.0-9.7","COGS219_2019_10","<p><img class= 'stimulus' src='images/baseline/03148v.jpg'></img></p>","null","","1549917737139","","","","","","",""
"null","","html-keyboard-response","454","2958407","0.0-8.0-0.0-10.7","COGS219_2019_10","<p><img class= 'stimulus' src='images/baseline/pexels-photo-414491.jpeg'></img></p>","null","","1549917737238","","","","","","",""
"null","","html-keyboard-response","455","2958507","0.0-8.0-0.0-11.7","COGS219_2019_10","<p><img class= 'stimulus' src='images/baseline/03201v.jpg'></img></p>","null","","1549917737337","","","","","","",""
"null","","html-keyboard-response","456","2958607","0.0-8.0-0.0-12.7","COGS219_2019_10","<p><img class= 'stimulus' src='images/baseline/pexels-photo-427676.jpeg'></img></p>","null","","1549917737437","12","","","","","",""
"null","","html-keyboard-response","457","2958708","0.0-8.0-0.0-13.7","COGS219_2019_10","<p><img class= 'stimulus' src='images/baseline/Cold 7.jpg'></img></p>","null","","1549917737539","","","","","","",""
"null","","html-keyboard-response","458","2958807","0.0-8.0-0.0-14.7","COGS219_2019_10","<p><img class= 'stimulus' src='images/baseline/building16.jpg'></img></p>","null","","1549917737639","14","","","","","",""
"null","","html-keyboard-response","459","2958907","0.0-8.0-0.0-15.7","COGS219_2019_10","<p><img class= 'stimulus' src='images/baseline/02982v.jpg'></img></p>","null","","1549917737738","","","","","","",""
"null","","html-keyboard-response","460","2959008","0.0-8.0-0.0-16.7","COGS219_2019_10","<p><img class= 'stimulus' src='images/baseline/04014v.jpg'></img></p>","null","","1549917737838","","","","","","",""
"null","","html-keyboard-response","461","2959124","0.0-8.0-0.0-17.7","COGS219_2019_10","<p><img class= 'stimulus' src='images/baseline/pexels-photo-459203.jpeg'></img></p>","null","","1549917737938","","","","","","",""
"926.0000000065193","","html-button-response","462","2961064","0.0-8.0-0.0-18.7","COGS219_2019_10","<div class = ""response_question"">WAS THE IMAGE ROTATED...</div>","","3","","","4","2","bas","right","test","true"
"1334.1999999824911","","html-button-response","463","2962400","0.0-8.0-0.0-0.8","COGS219_2019_10","","","0","","","","","","","",""
"null","","html-keyboard-response","464","2962476","0.0-8.0-0.0-1.8","COGS219_2019_10","<p><img class= 'stimulus' src='images/baseline/05161v.jpg'></img></p>","null","","1549917741305","","","","","","",""
"null","","html-keyboard-response","465","2962574","0.0-8.0-0.0-2.8","COGS219_2019_10","<p><img class= 'stimulus' src='images/baseline/landscape39.jpg'></img></p>","null","","1549917741407","","","","","","",""
"null","","html-keyboard-response","466","2962675","0.0-8.0-0.0-3.8","COGS219_2019_10","<p><img class= 'stimulus' src='images/baseline/Sky 1.jpg'></img></p>","null","","1549917741505","","","","","","",""
"null","","html-keyboard-response","467","2962775","0.0-8.0-0.0-4.8","COGS219_2019_10","<p><img class= 'stimulus' src='images/negative/Cockroach 3.jpg'></img></p>","null","","1549917741606","4","","","","","",""
"null","","html-keyboard-response","468","2962874","0.0-8.0-0.0-5.8","COGS219_2019_10","<p><img class= 'stimulus' src='images/baseline/02962v.jpg'></img></p>","null","","1549917741706","","","","","","",""
"null","","html-keyboard-response","469","2962975","0.0-8.0-0.0-6.8","COGS219_2019_10","<p><img class= 'stimulus' src='images/baseline/05189v.jpg'></img></p>","null","","1549917741805","6","","","","","",""
"null","","html-keyboard-response","470","2963075","0.0-8.0-0.0-7.8","COGS219_2019_10","<p><img class= 'stimulus' src='images/baseline/house8.jpg'></img></p>","null","","1549917741905","","","","","","",""
"null","","html-keyboard-response","471","2963175","0.0-8.0-0.0-8.8","COGS219_2019_10","<p><img class= 'stimulus' src='images/baseline/05303v.jpg'></img></p>","null","","1549917742005","8","","","","","",""
"null","","html-keyboard-response","472","2963274","0.0-8.0-0.0-9.8","COGS219_2019_10","<p><img class= 'stimulus' src='images/baseline/Camping 10.jpg'></img></p>","null","","1549917742105","","","","","","",""
"null","","html-keyboard-response","473","2963376","0.0-8.0-0.0-10.8","COGS219_2019_10","<p><img class= 'stimulus' src='images/baseline/03217v.jpg'></img></p>","null","","1549917742205","","","","","","",""
"null","","html-keyboard-response","474","2963475","0.0-8.0-0.0-11.8","COGS219_2019_10","<p><img class= 'stimulus' src='images/baseline/04196v.jpg'></img></p>","null","","1549917742305","","","","","","",""
"null","","html-keyboard-response","475","2963574","0.0-8.0-0.0-12.8","COGS219_2019_10","<p><img class= 'stimulus left-rotate' src='images/target/building4.jpg'></img></p>","null","","1549917742405","12","","","","","",""
"null","","html-keyboard-response","476","2963674","0.0-8.0-0.0-13.8","COGS219_2019_10","<p><img class= 'stimulus' src='images/baseline/Lake 4.jpg'></img></p>","null","","1549917742504","","","","","","",""
