"rt","responses","trial_type","trial_index","time_elapsed","internal_node_id","participant_id","stimulus","key_press","button_pressed","stim_onset","sequence_position","distractor_position","target_lag","distractor_type","target_orientation","phase","correct"
"20391.3","{""Q0"":""11""}","survey-text","0","20396","0.0-0.0","11","","","","","","","","","","",""
"460829.9000000001","","html-keyboard-response","1","481234","0.0-1.0","11","Welcome to the experiment.","67","","","","","","","","",""
"15417.100000000035","","html-button-response","2","496656","0.0-2.0","11","<p>Several images will be presented sequentially.        Each image will only be on the screen for about 100 milliseconds.</p>        <p> One of the images may be rotated 90 degrees right or left.        Watch for this image and remember if it is rotated right or left.</p>               <p>Images of people and animals will appear, and sometimes they will be unpleasant.        These will never be the rotated target image.</p>","","0","","","","","","","",""
"2454.300000000105","","html-button-response","3","499111","0.0-3.0","11","<p><img class=""stimulus left-rotate"" src=""images/target/tree spring.jpeg""></img></p><p>This is an example of an image rotated to the left.</p>","","0","","","","","","","",""
"2478.600000000035","","html-button-response","4","501591","0.0-4.0","11","<p><img class=""stimulus"" src=""images/target/lighthouse-843522_640.jpg""></img></p><p>This is an example of an image rotated to the right.</p>","","0","","","","","","","",""
"10287.200000000012","","html-button-response","5","511870","0.0-5.0","11","<p>We will now begin a short practice session.</p>         <p>A + symbol will appear in the middle of the screen. Please fix your gaze on the center of the +, and then click the mouse button to begin the image sequence.</p>         <p>Please avoid blinking or eye movements while the images are on the screen.</p>        <p>The image sequence will start relatively slow. After a few sequences, it will speed up.</p>","","0","","","","","","","",""
"22214.40000000014","","html-button-response","6","534086","0.0-6.0-0.0","11","","","0","","","","","","","",""
"null","","html-keyboard-response","7","534268","0.0-6.0-1.0","11","<p><img class= 'stimulus' src='images/baseline/pexels-photo-1287089.jpeg'></img></p>","null","","1549924622242","","","","","","",""
"null","","html-keyboard-response","8","534469","0.0-6.0-2.0","11","<p><img class= 'stimulus' src='images/baseline/house3.jpg'></img></p>","null","","1549924622442","","","","","","",""
"null","","html-keyboard-response","9","534667","0.0-6.0-3.0","11","<p><img class= 'stimulus' src='images/baseline/landscape11.jpg'></img></p>","null","","1549924622641","","","","","","",""
"null","","html-keyboard-response","10","534868","0.0-6.0-4.0","11","<p><img class= 'stimulus' src='images/baseline/Bahia_Onelli_Parque_Nacional_Los_Glaciares_Patagonia_Argentina_Luca_Galuzzi_2005.jpg'></img></p>","null","","1549924622842","4","","","","","",""
"null","","html-keyboard-response","11","535068","0.0-6.0-5.0","11","<p><img class= 'stimulus' src='images/baseline/field 2.jpg'></img></p>","null","","1549924623041","","","","","","",""
"null","","html-keyboard-response","12","535268","0.0-6.0-6.0","11","<p><img class= 'stimulus' src='images/baseline/cranes 1.jpg'></img></p>","null","","1549924623241","6","","","","","",""
"null","","html-keyboard-response","13","535468","0.0-6.0-7.0","11","<p><img class= 'stimulus' src='images/baseline/flooded-bridge.jpg'></img></p>","null","","1549924623443","","","","","","",""
"null","","html-keyboard-response","14","535668","0.0-6.0-8.0","11","<p><img class= 'stimulus' src='images/baseline/03220v.jpg'></img></p>","null","","1549924623643","8","","","","","",""
"null","","html-keyboard-response","15","535869","0.0-6.0-9.0","11","<p><img class= 'stimulus' src='images/baseline/cyrillic.jpg'></img></p>","null","","1549924623841","","","","","","",""
"null","","html-keyboard-response","16","536070","0.0-6.0-10.0","11","<p><img class= 'stimulus' src='images/baseline/4k-wallpaper-agriculture-clouds-842711.jpg'></img></p>","null","","1549924624042","","","","","","",""
"null","","html-keyboard-response","17","536268","0.0-6.0-11.0","11","<p><img class= 'stimulus' src='images/baseline/kokkari-1523011968Xfr.jpg'></img></p>","null","","1549924624241","","","","","","",""
"null","","html-keyboard-response","18","536468","0.0-6.0-12.0","11","<p><img class= 'stimulus' src='images/target/buildin.png'></img></p>","null","","1549924624442","12","","","","","",""
"null","","html-keyboard-response","19","536668","0.0-6.0-13.0","11","<p><img class= 'stimulus' src='images/baseline/pexels-photo-210617.jpeg'></img></p>","null","","1549924624642","","","","","","",""
"null","","html-keyboard-response","20","536869","0.0-6.0-14.0","11","<p><img class= 'stimulus' src='images/baseline/Lake 9.jpg'></img></p>","null","","1549924624841","14","","","","","",""
"null","","html-keyboard-response","21","537070","0.0-6.0-15.0","11","<p><img class= 'stimulus' src='images/baseline/house6.jpg'></img></p>","null","","1549924625042","","","","","","",""
"null","","html-keyboard-response","22","537269","0.0-6.0-16.0","11","<p><img class= 'stimulus' src='images/baseline/Sidewalk 4.jpg'></img></p>","null","","1549924625242","","","","","","",""
"null","","html-keyboard-response","23","537485","0.0-6.0-17.0","11","<p><img class= 'stimulus' src='images/baseline/05189v.jpg'></img></p>","null","","1549924625442","","","","","","",""
"8335.099999999977","","html-button-response","24","546838","0.0-6.0-18.0","11","<div class = ""response_question"">WAS THE IMAGE ROTATED...</div>","","0","","","4","8","bas","right","practice","false"
"2565.9000000000233","","html-button-response","25","549406","0.0-6.0-0.1","11","","","0","","","","","","","",""
"null","","html-keyboard-response","26","549585","0.0-6.0-1.1","11","<p><img class= 'stimulus' src='images/baseline/lone-old-cottonwood-tree.jpg'></img></p>","null","","1549924637559","","","","","","",""
"null","","html-keyboard-response","27","549785","0.0-6.0-2.1","11","<p><img class= 'stimulus' src='images/baseline/pexels-photo-427676.jpeg'></img></p>","null","","1549924637759","","","","","","",""
"null","","html-keyboard-response","28","549986","0.0-6.0-3.1","11","<p><img class= 'stimulus' src='images/baseline/03063v.jpg'></img></p>","null","","1549924637960","","","","","","",""
"null","","html-keyboard-response","29","550185","0.0-6.0-4.1","11","<p><img class= 'stimulus' src='images/baseline/horse_statue.jpg'></img></p>","null","","1549924638160","4","","","","","",""
"null","","html-keyboard-response","30","550386","0.0-6.0-5.1","11","<p><img class= 'stimulus' src='images/baseline/bird-flying-at-sunset.jpg'></img></p>","null","","1549924638359","","","","","","",""
"null","","html-keyboard-response","31","550586","0.0-6.0-6.1","11","<p><img class= 'stimulus' src='images/baseline/03075v.jpg'></img></p>","null","","1549924638559","6","","","","","",""
"null","","html-keyboard-response","32","550785","0.0-6.0-7.1","11","<p><img class= 'stimulus' src='images/baseline/vintage-art-deco-storefront.jpg'></img></p>","null","","1549924638761","","","","","","",""
"null","","html-keyboard-response","33","550985","0.0-6.0-8.1","11","<p><img class= 'stimulus' src='images/baseline/05280v.jpg'></img></p>","null","","1549924638959","8","","","","","",""
"null","","html-keyboard-response","34","551186","0.0-6.0-9.1","11","<p><img class= 'stimulus' src='images/baseline/Sailing 3.jpg'></img></p>","null","","1549924639158","","","","","","",""
"null","","html-keyboard-response","35","551385","0.0-6.0-10.1","11","<p><img class= 'stimulus' src='images/baseline/05158v.jpg'></img></p>","null","","1549924639359","","","","","","",""
"null","","html-keyboard-response","36","551586","0.0-6.0-11.1","11","<p><img class= 'stimulus' src='images/baseline/pexels-photo-440731.jpeg'></img></p>","null","","1549924639559","","","","","","",""
"null","","html-keyboard-response","37","551786","0.0-6.0-12.1","11","<p><img class= 'stimulus' src='images/baseline/02962v.jpg'></img></p>","null","","1549924639759","12","","","","","",""
"null","","html-keyboard-response","38","551987","0.0-6.0-13.1","11","<p><img class= 'stimulus' src='images/baseline/Skyscraper 1.jpg'></img></p>","null","","1549924639960","","","","","","",""
"null","","html-keyboard-response","39","552186","0.0-6.0-14.1","11","<p><img class= 'stimulus' src='images/target/mexico_tower_latin_american.jpg'></img></p>","null","","1549924640160","14","","","","","",""
"null","","html-keyboard-response","40","552387","0.0-6.0-15.1","11","<p><img class= 'stimulus' src='images/baseline/scenic-mountain-landscape.jpg'></img></p>","null","","1549924640361","","","","","","",""
"null","","html-keyboard-response","41","552587","0.0-6.0-16.1","11","<p><img class= 'stimulus' src='images/baseline/Kocherbaumwald-01.jpg'></img></p>","null","","1549924640560","","","","","","",""
"null","","html-keyboard-response","42","552803","0.0-6.0-17.1","11","<p><img class= 'stimulus' src='images/baseline/foreclosed_home.jpg'></img></p>","null","","1549924640760","","","","","","",""
"3950.8000000000466","","html-button-response","43","557758","0.0-6.0-18.1","11","<div class = ""response_question"">WAS THE IMAGE ROTATED...</div>","","1","","","6","8","bas","right","practice","false"
"1174.2999999999302","","html-button-response","44","558934","0.0-6.0-0.2","11","","","0","","","","","","","",""
"null","","html-keyboard-response","45","559119","0.0-6.0-1.2","11","<p><img class= 'stimulus' src='images/baseline/pexels-photo-1048039.jpeg'></img></p>","null","","1549924647093","","","","","","",""
"null","","html-keyboard-response","46","559320","0.0-6.0-2.2","11","<p><img class= 'stimulus' src='images/baseline/04196v.jpg'></img></p>","null","","1549924647293","","","","","","",""
"null","","html-keyboard-response","47","559519","0.0-6.0-3.2","11","<p><img class= 'stimulus' src='images/baseline/05303v.jpg'></img></p>","null","","1549924647493","","","","","","",""
"null","","html-keyboard-response","48","559720","0.0-6.0-4.2","11","<p><img class= 'stimulus' src='images/baseline/Lake 15.jpg'></img></p>","null","","1549924647693","4","","","","","",""
"null","","html-keyboard-response","49","559919","0.0-6.0-5.2","11","<p><img class= 'stimulus' src='images/baseline/05198v.jpg'></img></p>","null","","1549924647893","","","","","","",""
"null","","html-keyboard-response","50","560119","0.0-6.0-6.2","11","<p><img class= 'stimulus' src='images/baseline/chicago-skyline-at-night-1476869511p8U.jpg'></img></p>","null","","1549924648093","6","","","","","",""
"null","","html-keyboard-response","51","560319","0.0-6.0-7.2","11","<p><img class= 'stimulus' src='images/baseline/03204v.jpg'></img></p>","null","","1549924648292","","","","","","",""
"null","","html-keyboard-response","52","560520","0.0-6.0-8.2","11","<p><img class= 'stimulus' src='images/baseline/church-silhouette-8712964986014Kb.jpg'></img></p>","null","","1549924648493","8","","","","","",""
"null","","html-keyboard-response","53","560721","0.0-6.0-9.2","11","<p><img class= 'stimulus' src='images/baseline/landscape7.jpg'></img></p>","null","","1549924648694","","","","","","",""
"null","","html-keyboard-response","54","560920","0.0-6.0-10.2","11","<p><img class= 'stimulus' src='images/baseline/04193v.jpg'></img></p>","null","","1549924648894","","","","","","",""
"null","","html-keyboard-response","55","561119","0.0-6.0-11.2","11","<p><img class= 'stimulus' src='images/baseline/red-rocks-park.jpg'></img></p>","null","","1549924649093","","","","","","",""
"null","","html-keyboard-response","56","561319","0.0-6.0-12.2","11","<p><img class= 'stimulus' src='images/baseline/02977v.jpg'></img></p>","null","","1549924649293","12","","","","","",""
"null","","html-keyboard-response","57","561519","0.0-6.0-13.2","11","<p><img class= 'stimulus' src='images/baseline/landscape1.jpg'></img></p>","null","","1549924649492","","","","","","",""
"null","","html-keyboard-response","58","561720","0.0-6.0-14.2","11","<p><img class= 'stimulus left-rotate' src='images/target/chicago-673558_640.jpg'></img></p>","null","","1549924649694","14","","","","","",""
"null","","html-keyboard-response","59","561920","0.0-6.0-15.2","11","<p><img class= 'stimulus' src='images/baseline/valley 2.jpg'></img></p>","null","","1549924649894","","","","","","",""
"null","","html-keyboard-response","60","562122","0.0-6.0-16.2","11","<p><img class= 'stimulus' src='images/baseline/Street 4.jpg'></img></p>","null","","1549924650094","","","","","","",""
"null","","html-keyboard-response","61","562337","0.0-6.0-17.2","11","<p><img class= 'stimulus' src='images/baseline/Sunset 3.jpg'></img></p>","null","","1549924650294","","","","","","",""
"1643.5000000001164","","html-button-response","62","564990","0.0-6.0-18.2","11","<div class = ""response_question"">WAS THE IMAGE ROTATED...</div>","","3","","","6","8","bas","left","practice","false"
"830.199999999837","","html-button-response","63","565822","0.0-6.0-0.3","11","","","0","","","","","","","",""
"null","","html-keyboard-response","64","566003","0.0-6.0-1.3","11","<p><img class= 'stimulus' src='images/baseline/Camping 10.jpg'></img></p>","null","","1549924653976","","","","","","",""
"null","","html-keyboard-response","65","566203","0.0-6.0-2.3","11","<p><img class= 'stimulus' src='images/baseline/05255v.jpg'></img></p>","null","","1549924654176","","","","","","",""
"null","","html-keyboard-response","66","566404","0.0-6.0-3.3","11","<p><img class= 'stimulus' src='images/baseline/04098v.jpg'></img></p>","null","","1549924654376","","","","","","",""
"null","","html-keyboard-response","67","566604","0.0-6.0-4.3","11","<p><img class= 'stimulus' src='images/baseline/Paysage_enneige_02.jpg'></img></p>","null","","1549924654578","4","","","","","",""
"null","","html-keyboard-response","68","566802","0.0-6.0-5.3","11","<p><img class= 'stimulus' src='images/baseline/03217v.jpg'></img></p>","null","","1549924654778","","","","","","",""
"null","","html-keyboard-response","69","567002","0.0-6.0-6.3","11","<p><img class= 'stimulus' src='images/baseline/05167v.jpg'></img></p>","null","","1549924654977","6","","","","","",""
"null","","html-keyboard-response","70","567204","0.0-6.0-7.3","11","<p><img class= 'stimulus' src='images/baseline/02945v.jpg'></img></p>","null","","1549924655177","","","","","","",""
"null","","html-keyboard-response","71","567403","0.0-6.0-8.3","11","<p><img class= 'stimulus' src='images/baseline/sunny-landscape-with-dry-brush-and-mountain-background.jpg'></img></p>","null","","1549924655376","8","","","","","",""
"null","","html-keyboard-response","72","567605","0.0-6.0-9.3","11","<p><img class= 'stimulus' src='images/baseline/Lake 4.jpg'></img></p>","null","","1549924655577","","","","","","",""
"null","","html-keyboard-response","73","567804","0.0-6.0-10.3","11","<p><img class= 'stimulus' src='images/baseline/pexels-photo-59321.jpeg'></img></p>","null","","1549924655778","","","","","","",""
"null","","html-keyboard-response","74","568006","0.0-6.0-11.3","11","<p><img class= 'stimulus' src='images/baseline/04130v.jpg'></img></p>","null","","1549924655977","","","","","","",""
"null","","html-keyboard-response","75","568204","0.0-6.0-12.3","11","<p><img class= 'stimulus left-rotate' src='images/target/landscape3.jpg'></img></p>","null","","1549924656178","12","","","","","",""
"null","","html-keyboard-response","76","568405","0.0-6.0-13.3","11","<p><img class= 'stimulus' src='images/baseline/building8.jpg'></img></p>","null","","1549924656378","","","","","","",""
"null","","html-keyboard-response","77","568605","0.0-6.0-14.3","11","<p><img class= 'stimulus' src='images/baseline/Lake 13.jpg'></img></p>","null","","1549924656578","14","","","","","",""
"null","","html-keyboard-response","78","568804","0.0-6.0-15.3","11","<p><img class= 'stimulus' src='images/baseline/04179v.jpg'></img></p>","null","","1549924656778","","","","","","",""
"null","","html-keyboard-response","79","569004","0.0-6.0-16.3","11","<p><img class= 'stimulus' src='images/baseline/farmhouse6.jpg'></img></p>","null","","1549924656978","","","","","","",""
"null","","html-keyboard-response","80","569221","0.0-6.0-17.3","11","<p><img class= 'stimulus' src='images/baseline/04201v.jpg'></img></p>","null","","1549924657178","","","","","","",""
"5853.900000000023","","html-button-response","81","576076","0.0-6.0-18.3","11","<div class = ""response_question"">WAS THE IMAGE ROTATED...</div>","","4","","","4","8","bas","left","practice","false"
"9862.399999999907","","html-button-response","82","585939","0.0-6.0-0.4","11","","","0","","","","","","","",""
"null","","html-keyboard-response","83","586067","0.0-6.0-1.4","11","<p><img class= 'stimulus' src='images/baseline/05186v.jpg'></img></p>","null","","1549924674090","","","","","","",""
"null","","html-keyboard-response","84","586216","0.0-6.0-2.4","11","<p><img class= 'stimulus' src='images/baseline/pexels-photo-221125.jpeg'></img></p>","null","","1549924674240","","","","","","",""
"null","","html-keyboard-response","85","586366","0.0-6.0-3.4","11","<p><img class= 'stimulus' src='images/baseline/lookout_tower.jpg'></img></p>","null","","1549924674391","","","","","","",""
"null","","html-keyboard-response","86","586517","0.0-6.0-4.4","11","<p><img class= 'stimulus' src='images/baseline/landscape37.jpg'></img></p>","null","","1549924674539","4","","","","","",""
"null","","html-keyboard-response","87","586667","0.0-6.0-5.4","11","<p><img class= 'stimulus' src='images/baseline/Niinsaare_jarv.jpg'></img></p>","null","","1549924674690","","","","","","",""
"null","","html-keyboard-response","88","586818","0.0-6.0-6.4","11","<p><img class= 'stimulus left-rotate' src='images/target/1937-single-tree-at-the-top-of-stone-mountain-pv.jpg'></img></p>","null","","1549924674840","6","","","","","",""
"null","","html-keyboard-response","89","586966","0.0-6.0-7.4","11","<p><img class= 'stimulus' src='images/baseline/Street 5.jpg'></img></p>","null","","1549924674991","","","","","","",""
"null","","html-keyboard-response","90","587117","0.0-6.0-8.4","11","<p><img class= 'stimulus' src='images/baseline/Skijump 1.jpg'></img></p>","null","","1549924675140","8","","","","","",""
"null","","html-keyboard-response","91","587266","0.0-6.0-9.4","11","<p><img class= 'stimulus' src='images/baseline/03212v.jpg'></img></p>","null","","1549924675290","","","","","","",""
"null","","html-keyboard-response","92","587417","0.0-6.0-10.4","11","<p><img class= 'stimulus' src='images/baseline/pexels-photo-414491.jpeg'></img></p>","null","","1549924675440","","","","","","",""
"null","","html-keyboard-response","93","587567","0.0-6.0-11.4","11","<p><img class= 'stimulus' src='images/baseline/02988v.jpg'></img></p>","null","","1549924675590","","","","","","",""
"null","","html-keyboard-response","94","587715","0.0-6.0-12.4","11","<p><img class= 'stimulus' src='images/baseline/Lake 16.jpg'></img></p>","null","","1549924675740","12","","","","","",""
"null","","html-keyboard-response","95","587865","0.0-6.0-13.4","11","<p><img class= 'stimulus' src='images/baseline/building2.jpg'></img></p>","null","","1549924675890","","","","","","",""
"null","","html-keyboard-response","96","588015","0.0-6.0-14.4","11","<p><img class= 'stimulus' src='images/baseline/house1.jpg'></img></p>","null","","1549924676040","14","","","","","",""
"null","","html-keyboard-response","97","588166","0.0-6.0-15.4","11","<p><img class= 'stimulus' src='images/baseline/lake 2.jpg'></img></p>","null","","1549924676189","","","","","","",""
"null","","html-keyboard-response","98","588316","0.0-6.0-16.4","11","<p><img class= 'stimulus' src='images/baseline/dirt-road-or-trail-through-park.jpg'></img></p>","null","","1549924676339","","","","","","",""
"null","","html-keyboard-response","99","588482","0.0-6.0-17.4","11","<p><img class= 'stimulus' src='images/baseline/pexels-photo-568236.jpeg'></img></p>","null","","1549924676489","","","","","","",""
"2607.899999999907","","html-button-response","100","592099","0.0-6.0-18.4","11","<div class = ""response_question"">WAS THE IMAGE ROTATED...</div>","","0","","","4","2","bas","left","practice","true"
"1070.5999999999767","","html-button-response","101","593171","0.0-6.0-0.5","11","","","0","","","","","","","",""
"null","","html-keyboard-response","102","593299","0.0-6.0-1.5","11","<p><img class= 'stimulus' src='images/baseline/house8.jpg'></img></p>","null","","1549924681322","","","","","","",""
"null","","html-keyboard-response","103","593449","0.0-6.0-2.5","11","<p><img class= 'stimulus' src='images/baseline/05240v.jpg'></img></p>","null","","1549924681472","","","","","","",""
"null","","html-keyboard-response","104","593600","0.0-6.0-3.5","11","<p><img class= 'stimulus' src='images/baseline/02982v.jpg'></img></p>","null","","1549924681623","","","","","","",""
"null","","html-keyboard-response","105","593749","0.0-6.0-4.5","11","<p><img class= 'stimulus' src='images/baseline/Street 2.jpg'></img></p>","null","","1549924681773","4","","","","","",""
"null","","html-keyboard-response","106","593898","0.0-6.0-5.5","11","<p><img class= 'stimulus' src='images/baseline/landscape3.jpg'></img></p>","null","","1549924681922","","","","","","",""
"null","","html-keyboard-response","107","594049","0.0-6.0-6.5","11","<p><img class= 'stimulus' src='images/baseline/architecture-1314416_1920.jpg'></img></p>","null","","1549924682072","6","","","","","",""
"null","","html-keyboard-response","108","594199","0.0-6.0-7.5","11","<p><img class= 'stimulus' src='images/baseline/pexels-photo-534164.jpeg'></img></p>","null","","1549924682223","","","","","","",""
"null","","html-keyboard-response","109","594349","0.0-6.0-8.5","11","<p><img class= 'stimulus' src='images/target/fishhouse.jpg'></img></p>","null","","1549924682372","8","","","","","",""
"null","","html-keyboard-response","110","594500","0.0-6.0-9.5","11","<p><img class= 'stimulus' src='images/baseline/Cold 7.jpg'></img></p>","null","","1549924682522","","","","","","",""
"null","","html-keyboard-response","111","594650","0.0-6.0-10.5","11","<p><img class= 'stimulus' src='images/baseline/field 3.jpg'></img></p>","null","","1549924682673","","","","","","",""
"null","","html-keyboard-response","112","594799","0.0-6.0-11.5","11","<p><img class= 'stimulus' src='images/baseline/Lake 7.jpg'></img></p>","null","","1549924682822","","","","","","",""
"null","","html-keyboard-response","113","594949","0.0-6.0-12.5","11","<p><img class= 'stimulus' src='images/baseline/agriculture-bright-clouds-440731.jpg'></img></p>","null","","1549924682973","12","","","","","",""
"null","","html-keyboard-response","114","595098","0.0-6.0-13.5","11","<p><img class= 'stimulus' src='images/baseline/05145v.jpg'></img></p>","null","","1549924683123","","","","","","",""
"null","","html-keyboard-response","115","595249","0.0-6.0-14.5","11","<p><img class= 'stimulus' src='images/baseline/pexels-photo-1054289.jpeg'></img></p>","null","","1549924683272","14","","","","","",""
"null","","html-keyboard-response","116","595400","0.0-6.0-15.5","11","<p><img class= 'stimulus' src='images/baseline/Street 1.jpg'></img></p>","null","","1549924683422","","","","","","",""
"null","","html-keyboard-response","117","595549","0.0-6.0-16.5","11","<p><img class= 'stimulus' src='images/baseline/farmhouse11.jpg'></img></p>","null","","1549924683574","","","","","","",""
"null","","html-keyboard-response","118","595716","0.0-6.0-17.5","11","<p><img class= 'stimulus' src='images/baseline/05247v.jpg'></img></p>","null","","1549924683723","","","","","","",""
"2210.8000000000466","","html-button-response","119","598931","0.0-6.0-18.5","11","<div class = ""response_question"">WAS THE IMAGE ROTATED...</div>","","3","","","6","2","bas","right","practice","true"
"789.9999999998836","","html-button-response","120","599722","0.0-6.0-0.6","11","","","0","","","","","","","",""
"null","","html-keyboard-response","121","599849","0.0-6.0-1.6","11","<p><img class= 'stimulus' src='images/baseline/landscape16.jpg'></img></p>","null","","1549924687873","","","","","","",""
"null","","html-keyboard-response","122","599999","0.0-6.0-2.6","11","<p><img class= 'stimulus' src='images/baseline/04222v.jpg'></img></p>","null","","1549924688022","","","","","","",""
"null","","html-keyboard-response","123","600149","0.0-6.0-3.6","11","<p><img class= 'stimulus' src='images/baseline/Grass 6.jpg'></img></p>","null","","1549924688172","","","","","","",""
"null","","html-keyboard-response","124","600298","0.0-6.0-4.6","11","<p><img class= 'stimulus' src='images/baseline/03098v.jpg'></img></p>","null","","1549924688324","4","","","","","",""
"null","","html-keyboard-response","125","600450","0.0-6.0-5.6","11","<p><img class= 'stimulus' src='images/baseline/farmhouse9.jpg'></img></p>","null","","1549924688472","","","","","","",""
"null","","html-keyboard-response","126","600598","0.0-6.0-6.6","11","<p><img class= 'stimulus' src='images/baseline/04284v.jpg'></img></p>","null","","1549924688623","6","","","","","",""
"null","","html-keyboard-response","127","600750","0.0-6.0-7.6","11","<p><img class= 'stimulus' src='images/baseline/farmhouse1.jpg'></img></p>","null","","1549924688772","","","","","","",""
"null","","html-keyboard-response","128","600899","0.0-6.0-8.6","11","<p><img class= 'stimulus left-rotate' src='images/target/building4.jpg'></img></p>","null","","1549924688922","8","","","","","",""
"null","","html-keyboard-response","129","601049","0.0-6.0-9.6","11","<p><img class= 'stimulus' src='images/baseline/04062v.jpg'></img></p>","null","","1549924689072","","","","","","",""
"null","","html-keyboard-response","130","601199","0.0-6.0-10.6","11","<p><img class= 'stimulus' src='images/baseline/field 4.jpg'></img></p>","null","","1549924689222","","","","","","",""
"null","","html-keyboard-response","131","601348","0.0-6.0-11.6","11","<p><img class= 'stimulus' src='images/baseline/04086v.jpg'></img></p>","null","","1549924689372","","","","","","",""
"null","","html-keyboard-response","132","601499","0.0-6.0-12.6","11","<p><img class= 'stimulus' src='images/baseline/pexels-photo-1837621.jpeg'></img></p>","null","","1549924689522","12","","","","","",""
"null","","html-keyboard-response","133","601649","0.0-6.0-13.6","11","<p><img class= 'stimulus' src='images/baseline/hiking-trail.jpg'></img></p>","null","","1549924689673","","","","","","",""
"null","","html-keyboard-response","134","601799","0.0-6.0-14.6","11","<p><img class= 'stimulus' src='images/baseline/lake 1.jpg'></img></p>","null","","1549924689822","14","","","","","",""
"null","","html-keyboard-response","135","601949","0.0-6.0-15.6","11","<p><img class= 'stimulus' src='images/baseline/snowy tree.jpg'></img></p>","null","","1549924689972","","","","","","",""
"null","","html-keyboard-response","136","602099","0.0-6.0-16.6","11","<p><img class= 'stimulus' src='images/baseline/pexels-photo-1261728.jpeg'></img></p>","null","","1549924690122","","","","","","",""
"null","","html-keyboard-response","137","602267","0.0-6.0-17.6","11","<p><img class= 'stimulus' src='images/baseline/building3.jpg'></img></p>","null","","1549924690273","","","","","","",""
"1307.4999999998836","","html-button-response","138","604579","0.0-6.0-18.6","11","<div class = ""response_question"">WAS THE IMAGE ROTATED...</div>","","0","","","6","2","bas","left","practice","true"
"806.3999999999069","","html-button-response","139","605386","0.0-6.0-0.7","11","","","0","","","","","","","",""
"null","","html-keyboard-response","140","605516","0.0-6.0-1.7","11","<p><img class= 'stimulus' src='images/baseline/building9.jpg'></img></p>","null","","1549924693539","","","","","","",""
"null","","html-keyboard-response","141","605666","0.0-6.0-2.7","11","<p><img class= 'stimulus' src='images/baseline/seoul-410266_1920.jpg'></img></p>","null","","1549924693690","","","","","","",""
"null","","html-keyboard-response","142","605815","0.0-6.0-3.7","11","<p><img class= 'stimulus' src='images/baseline/sun-through-winter-tree-branches1.jpg'></img></p>","null","","1549924693840","","","","","","",""
"null","","html-keyboard-response","143","605966","0.0-6.0-4.7","11","<p><img class= 'stimulus' src='images/baseline/architecture-956332_1280.jpg'></img></p>","null","","1549924693990","4","","","","","",""
"null","","html-keyboard-response","144","606116","0.0-6.0-5.7","11","<p><img class= 'stimulus' src='images/baseline/autumn-landscape-with-lake-fall-trees-mountains.jpg'></img></p>","null","","1549924694138","","","","","","",""
"null","","html-keyboard-response","145","606266","0.0-6.0-6.7","11","<p><img class= 'stimulus' src='images/target/building5.jpg'></img></p>","null","","1549924694289","6","","","","","",""
"null","","html-keyboard-response","146","606415","0.0-6.0-7.7","11","<p><img class= 'stimulus' src='images/baseline/05203v.jpg'></img></p>","null","","1549924694440","","","","","","",""
"null","","html-keyboard-response","147","606566","0.0-6.0-8.7","11","<p><img class= 'stimulus' src='images/baseline/03148v.jpg'></img></p>","null","","1549924694589","8","","","","","",""
"null","","html-keyboard-response","148","606715","0.0-6.0-9.7","11","<p><img class= 'stimulus' src='images/baseline/04117v.jpg'></img></p>","null","","1549924694739","","","","","","",""
"null","","html-keyboard-response","149","606866","0.0-6.0-10.7","11","<p><img class= 'stimulus' src='images/baseline/geese-flying-over-lake-at-dusk.jpg'></img></p>","null","","1549924694890","","","","","","",""
"null","","html-keyboard-response","150","607015","0.0-6.0-11.7","11","<p><img class= 'stimulus' src='images/baseline/empire-state-building.jpg'></img></p>","null","","1549924695039","","","","","","",""
"null","","html-keyboard-response","151","607165","0.0-6.0-12.7","11","<p><img class= 'stimulus' src='images/baseline/farmhouse4.jpg'></img></p>","null","","1549924695189","12","","","","","",""
"null","","html-keyboard-response","152","607315","0.0-6.0-13.7","11","<p><img class= 'stimulus' src='images/baseline/hills 3.jpg'></img></p>","null","","1549924695339","","","","","","",""
"null","","html-keyboard-response","153","607466","0.0-6.0-14.7","11","<p><img class= 'stimulus' src='images/baseline/03114v.jpg'></img></p>","null","","1549924695489","14","","","","","",""
"null","","html-keyboard-response","154","607616","0.0-6.0-15.7","11","<p><img class= 'stimulus' src='images/baseline/pexels-photo-259280.jpeg'></img></p>","null","","1549924695639","","","","","","",""
"null","","html-keyboard-response","155","607765","0.0-6.0-16.7","11","<p><img class= 'stimulus' src='images/baseline/05279v.jpg'></img></p>","null","","1549924695789","","","","","","",""
"null","","html-keyboard-response","156","607932","0.0-6.0-17.7","11","<p><img class= 'stimulus' src='images/baseline/Lake 14.jpg'></img></p>","null","","1549924695940","","","","","","",""
"1488.0999999997439","","html-button-response","157","610427","0.0-6.0-18.7","11","<div class = ""response_question"">WAS THE IMAGE ROTATED...</div>","","3","","","4","2","bas","right","practice","true"
"574.3999999999069","","html-button-response","158","611003","0.0-6.0-0.8","11","","","0","","","","","","","",""
"null","","html-keyboard-response","159","611083","0.0-6.0-1.8","11","<p><img class= 'stimulus' src='images/baseline/landscape2.jpg'></img></p>","null","","1549924699156","","","","","","",""
"null","","html-keyboard-response","160","611183","0.0-6.0-2.8","11","<p><img class= 'stimulus' src='images/baseline/house10.jpg'></img></p>","null","","1549924699256","","","","","","",""
"null","","html-keyboard-response","161","611282","0.0-6.0-3.8","11","<p><img class= 'stimulus' src='images/baseline/autumn-in-red-rocks-park.jpg'></img></p>","null","","1549924699356","","","","","","",""
"null","","html-keyboard-response","162","611383","0.0-6.0-4.8","11","<p><img class= 'stimulus' src='images/baseline/05179v.jpg'></img></p>","null","","1549924699455","4","","","","","",""
"null","","html-keyboard-response","163","611482","0.0-6.0-5.8","11","<p><img class= 'stimulus' src='images/baseline/04229v.jpg'></img></p>","null","","1549924699555","","","","","","",""
"null","","html-keyboard-response","164","611582","0.0-6.0-6.8","11","<p><img class= 'stimulus' src='images/baseline/grand-teton-mountains.jpg'></img></p>","null","","1549924699655","6","","","","","",""
"null","","html-keyboard-response","165","611682","0.0-6.0-7.8","11","<p><img class= 'stimulus' src='images/baseline/trees 23.jpg'></img></p>","null","","1549924699756","","","","","","",""
"null","","html-keyboard-response","166","611783","0.0-6.0-8.8","11","<p><img class= 'stimulus' src='images/baseline/04040v.jpg'></img></p>","null","","1549924699857","8","","","","","",""
"null","","html-keyboard-response","167","611883","0.0-6.0-9.8","11","<p><img class= 'stimulus' src='images/baseline/99_-_Machu_Picchu_-_Juin_2009.edit3.jpg'></img></p>","null","","1549924699956","","","","","","",""
"null","","html-keyboard-response","168","611982","0.0-6.0-10.8","11","<p><img class= 'stimulus' src='images/baseline/02947v.jpg'></img></p>","null","","1549924700057","","","","","","",""
"null","","html-keyboard-response","169","612082","0.0-6.0-11.8","11","<p><img class= 'stimulus' src='images/baseline/Lake 5.jpg'></img></p>","null","","1549924700157","","","","","","",""
"null","","html-keyboard-response","170","612183","0.0-6.0-12.8","11","<p><img class= 'stimulus left-rotate' src='images/target/pexels-photo-1534411.jpeg'></img></p>","null","","1549924700256","12","","","","","",""
"null","","html-keyboard-response","171","612283","0.0-6.0-13.8","11","<p><img class= 'stimulus' src='images/baseline/Road 1.jpg'></img></p>","null","","1549924700356","","","","","","",""
"null","","html-keyboard-response","172","612382","0.0-6.0-14.8","11","<p><img class= 'stimulus' src='images/baseline/tennis-court-net-buried-in-snow.jpg'></img></p>","null","","1549924700456","14","","","","","",""
"null","","html-keyboard-response","173","612482","0.0-6.0-15.8","11","<p><img class= 'stimulus' src='images/baseline/02971v.jpg'></img></p>","null","","1549924700556","","","","","","",""
"null","","html-keyboard-response","174","612582","0.0-6.0-16.8","11","<p><img class= 'stimulus' src='images/baseline/meadow-with-mountain-in-background.jpg'></img></p>","null","","1549924700656","","","","","","",""
"null","","html-keyboard-response","175","612699","0.0-6.0-17.8","11","<p><img class= 'stimulus' src='images/baseline/Sky 1.jpg'></img></p>","null","","1549924700755","","","","","","",""
"931.2000000000698","","html-button-response","176","614635","0.0-6.0-18.8","11","<div class = ""response_question"">WAS THE IMAGE ROTATED...</div>","","0","","","4","8","bas","left","practice","true"
"614.4000000000233","","html-button-response","177","615251","0.0-6.0-0.9","11","","","0","","","","","","","",""
"null","","html-keyboard-response","178","615332","0.0-6.0-1.9","11","<p><img class= 'stimulus' src='images/baseline/Waterfall 1.jpg'></img></p>","null","","1549924703407","","","","","","",""
"null","","html-keyboard-response","179","615433","0.0-6.0-2.9","11","<p><img class= 'stimulus' src='images/baseline/pexels-photo-351264.jpeg'></img></p>","null","","1549924703505","","","","","","",""
"null","","html-keyboard-response","180","615532","0.0-6.0-3.9","11","<p><img class= 'stimulus' src='images/baseline/landscape15.jpg'></img></p>","null","","1549924703606","","","","","","",""
"null","","html-keyboard-response","181","615632","0.0-6.0-4.9","11","<p><img class= 'stimulus' src='images/baseline/town-square-in-wroclaw-1539098440MZy.jpg'></img></p>","null","","1549924703707","4","","","","","",""
"null","","html-keyboard-response","182","615732","0.0-6.0-5.9","11","<p><img class= 'stimulus' src='images/baseline/landscape38.jpg'></img></p>","null","","1549924703806","","","","","","",""
"null","","html-keyboard-response","183","615833","0.0-6.0-6.9","11","<p><img class= 'stimulus left-rotate' src='images/target/sand-3339890_640.jpg'></img></p>","null","","1549924703906","6","","","","","",""
"null","","html-keyboard-response","184","615933","0.0-6.0-7.9","11","<p><img class= 'stimulus' src='images/baseline/Beach 8.jpg'></img></p>","null","","1549924704005","","","","","","",""
"null","","html-keyboard-response","185","616033","0.0-6.0-8.9","11","<p><img class= 'stimulus' src='images/baseline/Dirt 2.jpg'></img></p>","null","","1549924704106","8","","","","","",""
"null","","html-keyboard-response","186","616132","0.0-6.0-9.9","11","<p><img class= 'stimulus' src='images/baseline/Path 1.jpg'></img></p>","null","","1549924704207","","","","","","",""
"null","","html-keyboard-response","187","616234","0.0-6.0-10.9","11","<p><img class= 'stimulus' src='images/baseline/Sunset 4.jpg'></img></p>","null","","1549924704306","","","","","","",""
"null","","html-keyboard-response","188","616332","0.0-6.0-11.9","11","<p><img class= 'stimulus' src='images/baseline/Nature 1.jpg'></img></p>","null","","1549924704406","","","","","","",""
"null","","html-keyboard-response","189","616432","0.0-6.0-12.9","11","<p><img class= 'stimulus' src='images/baseline/04162v.jpg'></img></p>","null","","1549924704506","12","","","","","",""
"null","","html-keyboard-response","190","616533","0.0-6.0-13.9","11","<p><img class= 'stimulus' src='images/baseline/04158v.jpg'></img></p>","null","","1549924704605","","","","","","",""
"null","","html-keyboard-response","191","616632","0.0-6.0-14.9","11","<p><img class= 'stimulus' src='images/baseline/landscape8.jpg'></img></p>","null","","1549924704705","14","","","","","",""
"null","","html-keyboard-response","192","616733","0.0-6.0-15.9","11","<p><img class= 'stimulus' src='images/baseline/Bridge 1.jpg'></img></p>","null","","1549924704807","","","","","","",""
"null","","html-keyboard-response","193","616833","0.0-6.0-16.9","11","<p><img class= 'stimulus' src='images/baseline/field 1.jpg'></img></p>","null","","1549924704906","","","","","","",""
"null","","html-keyboard-response","194","616950","0.0-6.0-17.9","11","<p><img class= 'stimulus' src='images/baseline/03066v.jpg'></img></p>","null","","1549924705006","","","","","","",""
"946.1000000000931","","html-button-response","195","618899","0.0-6.0-18.9","11","<div class = ""response_question"">WAS THE IMAGE ROTATED...</div>","","1","","","4","2","bas","left","practice","true"
"790.5999999999767","","html-button-response","196","619691","0.0-6.0-0.10","11","","","0","","","","","","","",""
"null","","html-keyboard-response","197","619766","0.0-6.0-1.10","11","<p><img class= 'stimulus' src='images/baseline/Paysage_karabagh_02.jpg'></img></p>","null","","1549924707839","","","","","","",""
"null","","html-keyboard-response","198","619866","0.0-6.0-2.10","11","<p><img class= 'stimulus' src='images/baseline/Lake 8.jpg'></img></p>","null","","1549924707939","","","","","","",""
"null","","html-keyboard-response","199","619966","0.0-6.0-3.10","11","<p><img class= 'stimulus' src='images/baseline/04085v.jpg'></img></p>","null","","1549924708039","","","","","","",""
"null","","html-keyboard-response","200","620066","0.0-6.0-4.10","11","<p><img class= 'stimulus' src='images/baseline/red rocks from afar.jpg'></img></p>","null","","1549924708139","4","","","","","",""
"null","","html-keyboard-response","201","620166","0.0-6.0-5.10","11","<p><img class= 'stimulus' src='images/baseline/Street 3.jpg'></img></p>","null","","1549924708240","","","","","","",""
"null","","html-keyboard-response","202","620266","0.0-6.0-6.10","11","<p><img class= 'stimulus' src='images/baseline/landscape19.jpg'></img></p>","null","","1549924708339","6","","","","","",""
"null","","html-keyboard-response","203","620366","0.0-6.0-7.10","11","<p><img class= 'stimulus' src='images/baseline/03201v.jpg'></img></p>","null","","1549924708439","","","","","","",""
"null","","html-keyboard-response","204","620465","0.0-6.0-8.10","11","<p><img class= 'stimulus' src='images/target/pexels-photo-602607.jpeg'></img></p>","null","","1549924708538","8","","","","","",""
"null","","html-keyboard-response","205","620567","0.0-6.0-9.10","11","<p><img class= 'stimulus' src='images/baseline/pexels-photo-808465.jpeg'></img></p>","null","","1549924708640","","","","","","",""
"null","","html-keyboard-response","206","620666","0.0-6.0-10.10","11","<p><img class= 'stimulus' src='images/baseline/05131v.jpg'></img></p>","null","","1549924708739","","","","","","",""
"null","","html-keyboard-response","207","620766","0.0-6.0-11.10","11","<p><img class= 'stimulus' src='images/baseline/02960v.jpg'></img></p>","null","","1549924708838","","","","","","",""
"null","","html-keyboard-response","208","620866","0.0-6.0-12.10","11","<p><img class= 'stimulus' src='images/baseline/05252v.jpg'></img></p>","null","","1549924708939","12","","","","","",""
"null","","html-keyboard-response","209","620966","0.0-6.0-13.10","11","<p><img class= 'stimulus' src='images/baseline/03180v.jpg'></img></p>","null","","1549924709039","","","","","","",""
"null","","html-keyboard-response","210","621066","0.0-6.0-14.10","11","<p><img class= 'stimulus' src='images/baseline/Lake 3.jpg'></img></p>","null","","1549924709139","14","","","","","",""
"null","","html-keyboard-response","211","621167","0.0-6.0-15.10","11","<p><img class= 'stimulus' src='images/baseline/farmhouse3.jpg'></img></p>","null","","1549924709239","","","","","","",""
"null","","html-keyboard-response","212","621266","0.0-6.0-16.10","11","<p><img class= 'stimulus' src='images/baseline/04021v.jpg'></img></p>","null","","1549924709339","","","","","","",""
"null","","html-keyboard-response","213","621383","0.0-6.0-17.10","11","<p><img class= 'stimulus' src='images/baseline/landscape33.jpg'></img></p>","null","","1549924709441","","","","","","",""
"1149.7999999999302","","html-button-response","214","623540","0.0-6.0-18.10","11","<div class = ""response_question"">WAS THE IMAGE ROTATED...</div>","","3","","","6","2","bas","right","practice","true"
"806.3000000000466","","html-button-response","215","624346","0.0-6.0-0.11","11","","","0","","","","","","","",""
"null","","html-keyboard-response","216","624432","0.0-6.0-1.11","11","<p><img class= 'stimulus' src='images/baseline/agriculture-cereal-clouds-175389.jpg'></img></p>","null","","1549924712506","","","","","","",""
"null","","html-keyboard-response","217","624532","0.0-6.0-2.11","11","<p><img class= 'stimulus' src='images/baseline/pexels-photo-894312.jpeg'></img></p>","null","","1549924712606","","","","","","",""
"null","","html-keyboard-response","218","624632","0.0-6.0-3.11","11","<p><img class= 'stimulus' src='images/baseline/farmhouse8.jpg'></img></p>","null","","1549924712706","","","","","","",""
"null","","html-keyboard-response","219","624732","0.0-6.0-4.11","11","<p><img class= 'stimulus' src='images/baseline/landscape29.jpg'></img></p>","null","","1549924712806","4","","","","","",""
"null","","html-keyboard-response","220","624833","0.0-6.0-5.11","11","<p><img class= 'stimulus' src='images/baseline/05292v.jpg'></img></p>","null","","1549924712906","","","","","","",""
"null","","html-keyboard-response","221","624933","0.0-6.0-6.11","11","<p><img class= 'stimulus' src='images/baseline/road.jpg'></img></p>","null","","1549924713005","6","","","","","",""
"null","","html-keyboard-response","222","625032","0.0-6.0-7.11","11","<p><img class= 'stimulus' src='images/baseline/house2.jpg'></img></p>","null","","1549924713106","","","","","","",""
"null","","html-keyboard-response","223","625133","0.0-6.0-8.11","11","<p><img class= 'stimulus' src='images/baseline/landscape13.jpg'></img></p>","null","","1549924713205","8","","","","","",""
"null","","html-keyboard-response","224","625233","0.0-6.0-9.11","11","<p><img class= 'stimulus' src='images/baseline/Happy pose 3.jpg'></img></p>","null","","1549924713305","","","","","","",""
"null","","html-keyboard-response","225","625334","0.0-6.0-10.11","11","<p><img class= 'stimulus' src='images/baseline/hills 4.jpg'></img></p>","null","","1549924713406","","","","","","",""
"null","","html-keyboard-response","226","625432","0.0-6.0-11.11","11","<p><img class= 'stimulus' src='images/baseline/04300v.jpg'></img></p>","null","","1549924713506","","","","","","",""
"null","","html-keyboard-response","227","625532","0.0-6.0-12.11","11","<p><img class= 'stimulus' src='images/baseline/landscape36.jpg'></img></p>","null","","1549924713605","12","","","","","",""
"null","","html-keyboard-response","228","625633","0.0-6.0-13.11","11","<p><img class= 'stimulus' src='images/baseline/03112v.jpg'></img></p>","null","","1549924713706","","","","","","",""
"null","","html-keyboard-response","229","625733","0.0-6.0-14.11","11","<p><img class= 'stimulus left-rotate' src='images/target/tree-197536_640.jpg'></img></p>","null","","1549924713807","14","","","","","",""
"null","","html-keyboard-response","230","625832","0.0-6.0-15.11","11","<p><img class= 'stimulus' src='images/baseline/city-silhouette-at-sunset-871291580819Esw.jpg'></img></p>","null","","1549924713906","","","","","","",""
"null","","html-keyboard-response","231","625934","0.0-6.0-16.11","11","<p><img class= 'stimulus' src='images/baseline/Aletschgletscher-Eggishorn.jpg'></img></p>","null","","1549924714005","","","","","","",""
"null","","html-keyboard-response","232","626051","0.0-6.0-17.11","11","<p><img class= 'stimulus' src='images/baseline/05161v.jpg'></img></p>","null","","1549924714105","","","","","","",""
"1813.2999999999302","","html-button-response","233","628867","0.0-6.0-18.11","11","<div class = ""response_question"">WAS THE IMAGE ROTATED...</div>","","0","","","6","8","bas","left","practice","true"
"638.5999999999767","","html-button-response","234","629507","0.0-6.0-0.12","11","","","0","","","","","","","",""
"null","","html-keyboard-response","235","629582","0.0-6.0-1.12","11","<p><img class= 'stimulus' src='images/baseline/Dock 1.jpg'></img></p>","null","","1549924717655","","","","","","",""
"null","","html-keyboard-response","236","629683","0.0-6.0-2.12","11","<p><img class= 'stimulus' src='images/baseline/landscape39.jpg'></img></p>","null","","1549924717757","","","","","","",""
"null","","html-keyboard-response","237","629783","0.0-6.0-3.12","11","<p><img class= 'stimulus' src='images/baseline/landscape6.jpg'></img></p>","null","","1549924717856","","","","","","",""
"null","","html-keyboard-response","238","629882","0.0-6.0-4.12","11","<p><img class= 'stimulus' src='images/baseline/lake3.jpg'></img></p>","null","","1549924717957","4","","","","","",""
"null","","html-keyboard-response","239","629982","0.0-6.0-5.12","11","<p><img class= 'stimulus' src='images/baseline/Sunset 6.jpg'></img></p>","null","","1549924718057","","","","","","",""
"null","","html-keyboard-response","240","630082","0.0-6.0-6.12","11","<p><img class= 'stimulus' src='images/baseline/house11.jpg'></img></p>","null","","1549924718157","6","","","","","",""
"null","","html-keyboard-response","241","630182","0.0-6.0-7.12","11","<p><img class= 'stimulus' src='images/baseline/05139v.jpg'></img></p>","null","","1549924718256","","","","","","",""
"null","","html-keyboard-response","242","630283","0.0-6.0-8.12","11","<p><img class= 'stimulus left-rotate' src='images/target/oak-456524_640.jpg'></img></p>","null","","1549924718356","8","","","","","",""
"null","","html-keyboard-response","243","630383","0.0-6.0-9.12","11","<p><img class= 'stimulus' src='images/baseline/sunset-over-the-lake.jpg'></img></p>","null","","1549924718457","","","","","","",""
"null","","html-keyboard-response","244","630483","0.0-6.0-10.12","11","<p><img class= 'stimulus' src='images/baseline/landscape34.jpg'></img></p>","null","","1549924718556","","","","","","",""
"null","","html-keyboard-response","245","630582","0.0-6.0-11.12","11","<p><img class= 'stimulus' src='images/baseline/04031v.jpg'></img></p>","null","","1549924718656","","","","","","",""
"null","","html-keyboard-response","246","630682","0.0-6.0-12.12","11","<p><img class= 'stimulus' src='images/baseline/landscape23.jpg'></img></p>","null","","1549924718756","12","","","","","",""
"null","","html-keyboard-response","247","630782","0.0-6.0-13.12","11","<p><img class= 'stimulus' src='images/baseline/__08_-_ITALY_-_Forli_under_snow_-_winter_landscape_of_city_(christmas).jpg'></img></p>","null","","1549924718856","","","","","","",""
"null","","html-keyboard-response","248","630883","0.0-6.0-14.12","11","<p><img class= 'stimulus' src='images/baseline/Freudenberg_sg_Switzerland.jpg'></img></p>","null","","1549924718956","14","","","","","",""
"null","","html-keyboard-response","249","630982","0.0-6.0-15.12","11","<p><img class= 'stimulus' src='images/baseline/Desert_View_Indian_Wells.jpg'></img></p>","null","","1549924719056","","","","","","",""
"null","","html-keyboard-response","250","631083","0.0-6.0-16.12","11","<p><img class= 'stimulus' src='images/baseline/Beach 3.jpg'></img></p>","null","","1549924719155","","","","","","",""
"null","","html-keyboard-response","251","631199","0.0-6.0-17.12","11","<p><img class= 'stimulus' src='images/baseline/building5.jpg'></img></p>","null","","1549924719256","","","","","","",""
"3257.5","","html-button-response","252","635467","0.0-6.0-18.12","11","<div class = ""response_question"">WAS THE IMAGE ROTATED...</div>","","1","","","6","2","bas","left","practice","true"
"750.4000000001397","","html-button-response","253","636230","0.0-6.0-0.13","11","","","0","","","","","","","",""
"null","","html-keyboard-response","254","636310","0.0-6.0-1.13","11","<p><img class= 'stimulus' src='images/baseline/landscape31.jpg'></img></p>","null","","1549924724384","","","","","","",""
"null","","html-keyboard-response","255","636410","0.0-6.0-2.13","11","<p><img class= 'stimulus' src='images/baseline/04014v.jpg'></img></p>","null","","1549924724484","","","","","","",""
"null","","html-keyboard-response","256","636511","0.0-6.0-3.13","11","<p><img class= 'stimulus' src='images/baseline/Nature 2.jpg'></img></p>","null","","1549924724583","","","","","","",""
"null","","html-keyboard-response","257","636610","0.0-6.0-4.13","11","<p><img class= 'stimulus' src='images/baseline/landscape17.jpg'></img></p>","null","","1549924724684","4","","","","","",""
"null","","html-keyboard-response","258","636710","0.0-6.0-5.13","11","<p><img class= 'stimulus' src='images/baseline/building16.jpg'></img></p>","null","","1549924724783","","","","","","",""
"null","","html-keyboard-response","259","636810","0.0-6.0-6.13","11","<p><img class= 'stimulus' src='images/baseline/hills 1.jpg'></img></p>","null","","1549924724885","6","","","","","",""
"null","","html-keyboard-response","260","636910","0.0-6.0-7.13","11","<p><img class= 'stimulus' src='images/baseline/Sunset 5.jpg'></img></p>","null","","1549924724983","","","","","","",""
"null","","html-keyboard-response","261","637011","0.0-6.0-8.13","11","<p><img class= 'stimulus' src='images/baseline/building_at_national_conservation.jpg'></img></p>","null","","1549924725084","8","","","","","",""
"null","","html-keyboard-response","262","637110","0.0-6.0-9.13","11","<p><img class= 'stimulus' src='images/baseline/04010v.jpg'></img></p>","null","","1549924725184","","","","","","",""
"null","","html-keyboard-response","263","637210","0.0-6.0-10.13","11","<p><img class= 'stimulus' src='images/baseline/pexels-photo-459203.jpeg'></img></p>","null","","1549924725284","","","","","","",""
"null","","html-keyboard-response","264","637311","0.0-6.0-11.13","11","<p><img class= 'stimulus' src='images/baseline/river 1.jpg'></img></p>","null","","1549924725384","","","","","","",""
"null","","html-keyboard-response","265","637410","0.0-6.0-12.13","11","<p><img class= 'stimulus' src='images/target/church-2306128_640.jpg'></img></p>","null","","1549924725484","12","","","","","",""
"null","","html-keyboard-response","266","637510","0.0-6.0-13.13","11","<p><img class= 'stimulus' src='images/baseline/03056v.jpg'></img></p>","null","","1549924725584","","","","","","",""
"null","","html-keyboard-response","267","637611","0.0-6.0-14.13","11","<p><img class= 'stimulus' src='images/baseline/03041v.jpg'></img></p>","null","","1549924725684","14","","","","","",""
"null","","html-keyboard-response","268","637710","0.0-6.0-15.13","11","<p><img class= 'stimulus' src='images/baseline/building12.jpg'></img></p>","null","","1549924725783","","","","","","",""
"null","","html-keyboard-response","269","637811","0.0-6.0-16.13","11","<p><img class= 'stimulus' src='images/baseline/landscape4.jpg'></img></p>","null","","1549924725884","","","","","","",""
"null","","html-keyboard-response","270","637928","0.0-6.0-17.13","11","<p><img class= 'stimulus' src='images/baseline/pexels-photo-1840893.jpeg'></img></p>","null","","1549924725984","","","","","","",""
"1089.0999999999767","","html-button-response","271","640022","0.0-6.0-18.13","11","<div class = ""response_question"">WAS THE IMAGE ROTATED...</div>","","3","","","4","8","bas","right","practice","true"
"557.5999999998603","","html-button-response","272","640582","0.0-6.0-0.14","11","","","0","","","","","","","",""
"null","","html-keyboard-response","273","640660","0.0-6.0-1.14","11","<p><img class= 'stimulus' src='images/baseline/04064v.jpg'></img></p>","null","","1549924728733","","","","","","",""
"null","","html-keyboard-response","274","640760","0.0-6.0-2.14","11","<p><img class= 'stimulus' src='images/baseline/03045v.jpg'></img></p>","null","","1549924728834","","","","","","",""
"null","","html-keyboard-response","275","640860","0.0-6.0-3.14","11","<p><img class= 'stimulus' src='images/baseline/pexels-photo-541101.jpeg'></img></p>","null","","1549924728935","","","","","","",""
"null","","html-keyboard-response","276","640960","0.0-6.0-4.14","11","<p><img class= 'stimulus' src='images/baseline/Peyto_Lake-Banff_NP-Canada.jpg'></img></p>","null","","1549924729034","4","","","","","",""
"null","","html-keyboard-response","277","641061","0.0-6.0-5.14","11","<p><img class= 'stimulus' src='images/baseline/landscape14.jpg'></img></p>","null","","1549924729134","","","","","","",""
"null","","html-keyboard-response","278","641162","0.0-6.0-6.14","11","<p><img class= 'stimulus' src='images/baseline/04063v.jpg'></img></p>","null","","1549924729234","6","","","","","",""
"null","","html-keyboard-response","279","641261","0.0-6.0-7.14","11","<p><img class= 'stimulus' src='images/baseline/05264v.jpg'></img></p>","null","","1549924729334","","","","","","",""
"null","","html-keyboard-response","280","641362","0.0-6.0-8.14","11","<p><img class= 'stimulus' src='images/baseline/landscape22.jpg'></img></p>","null","","1549924729433","8","","","","","",""
"null","","html-keyboard-response","281","641461","0.0-6.0-9.14","11","<p><img class= 'stimulus' src='images/baseline/road 1(1).jpg'></img></p>","null","","1549924729533","","","","","","",""
"null","","html-keyboard-response","282","641560","0.0-6.0-10.14","11","<p><img class= 'stimulus' src='images/baseline/building4.jpg'></img></p>","null","","1549924729633","","","","","","",""
"null","","html-keyboard-response","283","641661","0.0-6.0-11.14","11","<p><img class= 'stimulus' src='images/baseline/Linden,_paysage.jpg'></img></p>","null","","1549924729734","","","","","","",""
"null","","html-keyboard-response","284","641761","0.0-6.0-12.14","11","<p><img class= 'stimulus' src='images/baseline/Beach 2.jpg'></img></p>","null","","1549924729834","12","","","","","",""
"null","","html-keyboard-response","285","641860","0.0-6.0-13.14","11","<p><img class= 'stimulus' src='images/baseline/pexels-photo-750108.jpeg'></img></p>","null","","1549924729934","","","","","","",""
"null","","html-keyboard-response","286","641960","0.0-6.0-14.14","11","<p><img class= 'stimulus' src='images/target/pexels-photo-1102846.jpeg'></img></p>","null","","1549924730034","14","","","","","",""
"null","","html-keyboard-response","287","642060","0.0-6.0-15.14","11","<p><img class= 'stimulus' src='images/baseline/agriculture-countryside-crop-259280.jpg'></img></p>","null","","1549924730133","","","","","","",""
"null","","html-keyboard-response","288","642161","0.0-6.0-16.14","11","<p><img class= 'stimulus' src='images/baseline/farmhouse2.jpg'></img></p>","null","","1549924730233","","","","","","",""
"null","","html-keyboard-response","289","642276","0.0-6.0-17.14","11","<p><img class= 'stimulus' src='images/baseline/landscape35.jpg'></img></p>","null","","1549924730334","","","","","","",""
"2171.800000000163","","html-button-response","290","645455","0.0-6.0-18.14","11","<div class = ""response_question"">WAS THE IMAGE ROTATED...</div>","","5","","","6","8","bas","right","practice","false"
"574.3000000000466","","html-button-response","291","646030","0.0-6.0-0.15","11","","","0","","","","","","","",""
"null","","html-keyboard-response","292","646110","0.0-6.0-1.15","11","<p><img class= 'stimulus' src='images/baseline/pexels-photo-280222.jpeg'></img></p>","null","","1549924734183","","","","","","",""
"null","","html-keyboard-response","293","646211","0.0-6.0-2.15","11","<p><img class= 'stimulus' src='images/baseline/03162v.jpg'></img></p>","null","","1549924734284","","","","","","",""
"null","","html-keyboard-response","294","646310","0.0-6.0-3.15","11","<p><img class= 'stimulus' src='images/baseline/04060v.jpg'></img></p>","null","","1549924734385","","","","","","",""
"null","","html-keyboard-response","295","646409","0.0-6.0-4.15","11","<p><img class= 'stimulus' src='images/baseline/05242v.jpg'></img></p>","null","","1549924734484","4","","","","","",""
"null","","html-keyboard-response","296","646511","0.0-6.0-5.15","11","<p><img class= 'stimulus' src='images/baseline/valley 1.jpg'></img></p>","null","","1549924734584","","","","","","",""
"null","","html-keyboard-response","297","646611","0.0-6.0-6.15","11","<p><img class= 'stimulus' src='images/target/building17.jpg'></img></p>","null","","1549924734684","6","","","","","",""
"null","","html-keyboard-response","298","646710","0.0-6.0-7.15","11","<p><img class= 'stimulus' src='images/baseline/landscape12.jpg'></img></p>","null","","1549924734784","","","","","","",""
"null","","html-keyboard-response","299","646810","0.0-6.0-8.15","11","<p><img class= 'stimulus' src='images/baseline/landscape40.jpg'></img></p>","null","","1549924734884","8","","","","","",""
"null","","html-keyboard-response","300","646910","0.0-6.0-9.15","11","<p><img class= 'stimulus' src='images/baseline/farmhouse7.jpg'></img></p>","null","","1549924734983","","","","","","",""
"null","","html-keyboard-response","301","647010","0.0-6.0-10.15","11","<p><img class= 'stimulus' src='images/baseline/building6.jpg'></img></p>","null","","1549924735085","","","","","","",""
"null","","html-keyboard-response","302","647110","0.0-6.0-11.15","11","<p><img class= 'stimulus' src='images/baseline/Skyscraper 2.jpg'></img></p>","null","","1549924735184","","","","","","",""
"null","","html-keyboard-response","303","647210","0.0-6.0-12.15","11","<p><img class= 'stimulus' src='images/baseline/architecture_modern_architecture_852928.jpg'></img></p>","null","","1549924735283","12","","","","","",""
"null","","html-keyboard-response","304","647311","0.0-6.0-13.15","11","<p><img class= 'stimulus' src='images/baseline/house7.jpg'></img></p>","null","","1549924735384","","","","","","",""
"null","","html-keyboard-response","305","647410","0.0-6.0-14.15","11","<p><img class= 'stimulus' src='images/baseline/03217v.jpg'></img></p>","null","","1549924735484","14","","","","","",""
"null","","html-keyboard-response","306","647510","0.0-6.0-15.15","11","<p><img class= 'stimulus' src='images/baseline/04064v.jpg'></img></p>","null","","1549924735584","","","","","","",""
"null","","html-keyboard-response","307","647611","0.0-6.0-16.15","11","<p><img class= 'stimulus' src='images/baseline/dirt-road-or-trail-through-park.jpg'></img></p>","null","","1549924735684","","","","","","",""
"null","","html-keyboard-response","308","647727","0.0-6.0-17.15","11","<p><img class= 'stimulus' src='images/baseline/landscape17.jpg'></img></p>","null","","1549924735784","","","","","","",""
"1148.199999999837","","html-button-response","309","649878","0.0-6.0-18.15","11","<div class = ""response_question"">WAS THE IMAGE ROTATED...</div>","","3","","","4","2","bas","right","practice","true"
"42230.29999999993","","html-button-response","310","692110","0.0-7.0","11","<p>You have now completed the practice phase. We will now begin the real trials.         This is a reminder that you will be searching for a rotated image among the series of upright images.</p>         <p>Remember, please do not blink or move your eyes while the images are on the screen.</p>         <p>At the end of the experiment, the experimenter will be able to show you how accurate you were.</p>","","0","","","","","","","",""
"1662.699999999837","","html-button-response","311","693773","0.0-8.0-0.0-0.0","11","","","0","","","","","","","",""
"null","","html-keyboard-response","312","693845","0.0-8.0-0.0-1.0","11","<p><img class= 'stimulus' src='images/baseline/Street 2.jpg'></img></p>","null","","1549924781917","","","","","","",""
"null","","html-keyboard-response","313","693945","0.0-8.0-0.0-2.0","11","<p><img class= 'stimulus' src='images/baseline/04014v.jpg'></img></p>","null","","1549924782018","","","","","","",""
"null","","html-keyboard-response","314","694045","0.0-8.0-0.0-3.0","11","<p><img class= 'stimulus' src='images/baseline/house2.jpg'></img></p>","null","","1549924782118","","","","","","",""
"null","","html-keyboard-response","315","694144","0.0-8.0-0.0-4.0","11","<p><img class= 'stimulus' src='images/baseline/foreclosed_home.jpg'></img></p>","null","","1549924782218","4","","","","","",""
"null","","html-keyboard-response","316","694245","0.0-8.0-0.0-5.0","11","<p><img class= 'stimulus' src='images/baseline/05264v.jpg'></img></p>","null","","1549924782318","","","","","","",""
"null","","html-keyboard-response","317","694345","0.0-8.0-0.0-6.0","11","<p><img class= 'stimulus' src='images/negative/Dog attack 3.jpg'></img></p>","null","","1549924782417","6","","","","","",""
"null","","html-keyboard-response","318","694445","0.0-8.0-0.0-7.0","11","<p><img class= 'stimulus' src='images/baseline/building8.jpg'></img></p>","null","","1549924782517","","","","","","",""
"null","","html-keyboard-response","319","694544","0.0-8.0-0.0-8.0","11","<p><img class= 'stimulus' src='images/target/pexels-photo-1123982.jpeg'></img></p>","null","","1549924782619","8","","","","","",""
"null","","html-keyboard-response","320","694644","0.0-8.0-0.0-9.0","11","<p><img class= 'stimulus' src='images/baseline/pexels-photo-1840893.jpeg'></img></p>","null","","1549924782719","","","","","","",""
"null","","html-keyboard-response","321","694744","0.0-8.0-0.0-10.0","11","<p><img class= 'stimulus' src='images/baseline/landscape7.jpg'></img></p>","null","","1549924782818","","","","","","",""
"null","","html-keyboard-response","322","694844","0.0-8.0-0.0-11.0","11","<p><img class= 'stimulus' src='images/baseline/road 1(1).jpg'></img></p>","null","","1549924782918","","","","","","",""
"null","","html-keyboard-response","323","694944","0.0-8.0-0.0-12.0","11","<p><img class= 'stimulus' src='images/baseline/landscape11.jpg'></img></p>","null","","1549924783018","12","","","","","",""
"null","","html-keyboard-response","324","695045","0.0-8.0-0.0-13.0","11","<p><img class= 'stimulus' src='images/baseline/04229v.jpg'></img></p>","null","","1549924783118","","","","","","",""
"null","","html-keyboard-response","325","695145","0.0-8.0-0.0-14.0","11","<p><img class= 'stimulus' src='images/baseline/03066v.jpg'></img></p>","null","","1549924783218","14","","","","","",""
"null","","html-keyboard-response","326","695245","0.0-8.0-0.0-15.0","11","<p><img class= 'stimulus' src='images/baseline/kokkari-1523011968Xfr.jpg'></img></p>","null","","1549924783317","","","","","","",""
"null","","html-keyboard-response","327","695345","0.0-8.0-0.0-16.0","11","<p><img class= 'stimulus' src='images/baseline/Desert_View_Indian_Wells.jpg'></img></p>","null","","1549924783418","","","","","","",""
"null","","html-keyboard-response","328","695460","0.0-8.0-0.0-17.0","11","<p><img class= 'stimulus' src='images/baseline/Skijump 1.jpg'></img></p>","null","","1549924783517","","","","","","",""
"6313.100000000093","","html-button-response","329","702783","0.0-8.0-0.0-18.0","11","<div class = ""response_question"">WAS THE IMAGE ROTATED...</div>","","3","","","6","2","neg","right","test","true"
"854.4000000000233","","html-button-response","330","703638","0.0-8.0-0.0-0.1","11","","","0","","","","","","","",""
"null","","html-keyboard-response","331","703721","0.0-8.0-0.0-1.1","11","<p><img class= 'stimulus' src='images/baseline/05179v.jpg'></img></p>","null","","1549924791795","","","","","","",""
"null","","html-keyboard-response","332","703821","0.0-8.0-0.0-2.1","11","<p><img class= 'stimulus' src='images/baseline/Lake 16.jpg'></img></p>","null","","1549924791894","","","","","","",""
"null","","html-keyboard-response","333","703920","0.0-8.0-0.0-3.1","11","<p><img class= 'stimulus' src='images/baseline/valley 2.jpg'></img></p>","null","","1549924791995","","","","","","",""
"null","","html-keyboard-response","334","704020","0.0-8.0-0.0-4.1","11","<p><img class= 'stimulus' src='images/baseline/Sailing 3.jpg'></img></p>","null","","1549924792094","4","","","","","",""
"null","","html-keyboard-response","335","704120","0.0-8.0-0.0-5.1","11","<p><img class= 'stimulus' src='images/baseline/red rocks from afar.jpg'></img></p>","null","","1549924792195","","","","","","",""
"null","","html-keyboard-response","336","704221","0.0-8.0-0.0-6.1","11","<p><img class= 'stimulus' src='images/neutral/children-class-classroom-1720186 (1).jpg'></img></p>","null","","1549924792294","6","","","","","",""
"null","","html-keyboard-response","337","704320","0.0-8.0-0.0-7.1","11","<p><img class= 'stimulus' src='images/baseline/cranes 1.jpg'></img></p>","null","","1549924792394","","","","","","",""
"null","","html-keyboard-response","338","704420","0.0-8.0-0.0-8.1","11","<p><img class= 'stimulus left-rotate' src='images/target/landscape1.jpg'></img></p>","null","","1549924792494","8","","","","","",""
"null","","html-keyboard-response","339","704522","0.0-8.0-0.0-9.1","11","<p><img class= 'stimulus' src='images/baseline/landscape12.jpg'></img></p>","null","","1549924792595","","","","","","",""
"null","","html-keyboard-response","340","704622","0.0-8.0-0.0-10.1","11","<p><img class= 'stimulus' src='images/baseline/farmhouse7.jpg'></img></p>","null","","1549924792695","","","","","","",""
"null","","html-keyboard-response","341","704721","0.0-8.0-0.0-11.1","11","<p><img class= 'stimulus' src='images/baseline/Lake 13.jpg'></img></p>","null","","1549924792795","","","","","","",""
"null","","html-keyboard-response","342","704822","0.0-8.0-0.0-12.1","11","<p><img class= 'stimulus' src='images/baseline/Linden,_paysage.jpg'></img></p>","null","","1549924792895","12","","","","","",""
"null","","html-keyboard-response","343","704921","0.0-8.0-0.0-13.1","11","<p><img class= 'stimulus' src='images/baseline/field 4.jpg'></img></p>","null","","1549924792994","","","","","","",""
"null","","html-keyboard-response","344","705021","0.0-8.0-0.0-14.1","11","<p><img class= 'stimulus' src='images/baseline/landscape3.jpg'></img></p>","null","","1549924793094","14","","","","","",""
"null","","html-keyboard-response","345","705121","0.0-8.0-0.0-15.1","11","<p><img class= 'stimulus' src='images/baseline/Lake 9.jpg'></img></p>","null","","1549924793195","","","","","","",""
"null","","html-keyboard-response","346","705220","0.0-8.0-0.0-16.1","11","<p><img class= 'stimulus' src='images/baseline/Sunset 5.jpg'></img></p>","null","","1549924793294","","","","","","",""
"null","","html-keyboard-response","347","705338","0.0-8.0-0.0-17.1","11","<p><img class= 'stimulus' src='images/baseline/building6.jpg'></img></p>","null","","1549924793395","","","","","","",""
"714.0999999998603","","html-button-response","348","707055","0.0-8.0-0.0-18.1","11","<div class = ""response_question"">WAS THE IMAGE ROTATED...</div>","","1","","","6","2","neu","left","test","true"
"1134.4999999998836","","html-button-response","349","708191","0.0-8.0-0.0-0.2","11","","","0","","","","","","","",""
"null","","html-keyboard-response","350","708271","0.0-8.0-0.0-1.2","11","<p><img class= 'stimulus' src='images/baseline/farmhouse2.jpg'></img></p>","null","","1549924796345","","","","","","",""
"null","","html-keyboard-response","351","708371","0.0-8.0-0.0-2.2","11","<p><img class= 'stimulus' src='images/baseline/Sunset 4.jpg'></img></p>","null","","1549924796444","","","","","","",""
"null","","html-keyboard-response","352","708470","0.0-8.0-0.0-3.2","11","<p><img class= 'stimulus' src='images/baseline/05158v.jpg'></img></p>","null","","1549924796544","","","","","","",""
"null","","html-keyboard-response","353","708572","0.0-8.0-0.0-4.2","11","<p><img class= 'stimulus' src='images/baseline/pexels-photo-1048039.jpeg'></img></p>","null","","1549924796644","4","","","","","",""
"null","","html-keyboard-response","354","708672","0.0-8.0-0.0-5.2","11","<p><img class= 'stimulus' src='images/baseline/04179v.jpg'></img></p>","null","","1549924796745","","","","","","",""
"null","","html-keyboard-response","355","708771","0.0-8.0-0.0-6.2","11","<p><img class= 'stimulus' src='images/neutral/cottontail-rabbit.jpg'></img></p>","null","","1549924796845","6","","","","","",""
"null","","html-keyboard-response","356","708871","0.0-8.0-0.0-7.2","11","<p><img class= 'stimulus' src='images/baseline/05240v.jpg'></img></p>","null","","1549924796945","","","","","","",""
"null","","html-keyboard-response","357","708971","0.0-8.0-0.0-8.2","11","<p><img class= 'stimulus' src='images/target/landscape32.jpg'></img></p>","null","","1549924797044","8","","","","","",""
"null","","html-keyboard-response","358","709072","0.0-8.0-0.0-9.2","11","<p><img class= 'stimulus' src='images/baseline/geese-flying-over-lake-at-dusk.jpg'></img></p>","null","","1549924797143","","","","","","",""
"null","","html-keyboard-response","359","709171","0.0-8.0-0.0-10.2","11","<p><img class= 'stimulus' src='images/baseline/pexels-photo-1054289.jpeg'></img></p>","null","","1549924797244","","","","","","",""
"null","","html-keyboard-response","360","709271","0.0-8.0-0.0-11.2","11","<p><img class= 'stimulus' src='images/baseline/05280v.jpg'></img></p>","null","","1549924797345","","","","","","",""
"null","","html-keyboard-response","361","709371","0.0-8.0-0.0-12.2","11","<p><img class= 'stimulus' src='images/baseline/05252v.jpg'></img></p>","null","","1549924797445","12","","","","","",""
"null","","html-keyboard-response","362","709471","0.0-8.0-0.0-13.2","11","<p><img class= 'stimulus' src='images/baseline/landscape40.jpg'></img></p>","null","","1549924797544","","","","","","",""
"null","","html-keyboard-response","363","709570","0.0-8.0-0.0-14.2","11","<p><img class= 'stimulus' src='images/baseline/04085v.jpg'></img></p>","null","","1549924797646","14","","","","","",""
"null","","html-keyboard-response","364","709670","0.0-8.0-0.0-15.2","11","<p><img class= 'stimulus' src='images/baseline/cyrillic.jpg'></img></p>","null","","1549924797745","","","","","","",""
"null","","html-keyboard-response","365","709772","0.0-8.0-0.0-16.2","11","<p><img class= 'stimulus' src='images/baseline/Lake 3.jpg'></img></p>","null","","1549924797845","","","","","","",""
"null","","html-keyboard-response","366","709888","0.0-8.0-0.0-17.2","11","<p><img class= 'stimulus' src='images/baseline/99_-_Machu_Picchu_-_Juin_2009.edit3.jpg'></img></p>","null","","1549924797944","","","","","","",""
"1396.1999999999534","","html-button-response","367","712287","0.0-8.0-0.0-18.2","11","<div class = ""response_question"">WAS THE IMAGE ROTATED...</div>","","3","","","6","2","neu","right","test","true"
"926.0000000001164","","html-button-response","368","713215","0.0-8.0-0.0-0.3","11","","","0","","","","","","","",""
"null","","html-keyboard-response","369","713288","0.0-8.0-0.0-1.3","11","<p><img class= 'stimulus' src='images/baseline/empire-state-building.jpg'></img></p>","null","","1549924801361","","","","","","",""
"null","","html-keyboard-response","370","713388","0.0-8.0-0.0-2.3","11","<p><img class= 'stimulus' src='images/baseline/05279v.jpg'></img></p>","null","","1549924801462","","","","","","",""
"null","","html-keyboard-response","371","713487","0.0-8.0-0.0-3.3","11","<p><img class= 'stimulus' src='images/baseline/02988v.jpg'></img></p>","null","","1549924801562","","","","","","",""
"null","","html-keyboard-response","372","713588","0.0-8.0-0.0-4.3","11","<p><img class= 'stimulus' src='images/negative/Dummy 1.jpg'></img></p>","null","","1549924801661","4","","","","","",""
"null","","html-keyboard-response","373","713688","0.0-8.0-0.0-5.3","11","<p><img class= 'stimulus' src='images/baseline/Street 1.jpg'></img></p>","null","","1549924801761","","","","","","",""
"null","","html-keyboard-response","374","713788","0.0-8.0-0.0-6.3","11","<p><img class= 'stimulus' src='images/baseline/building16.jpg'></img></p>","null","","1549924801861","6","","","","","",""
"null","","html-keyboard-response","375","713888","0.0-8.0-0.0-7.3","11","<p><img class= 'stimulus' src='images/baseline/pexels-photo-534164.jpeg'></img></p>","null","","1549924801960","","","","","","",""
"null","","html-keyboard-response","376","713988","0.0-8.0-0.0-8.3","11","<p><img class= 'stimulus' src='images/baseline/04162v.jpg'></img></p>","null","","1549924802061","8","","","","","",""
"null","","html-keyboard-response","377","714089","0.0-8.0-0.0-9.3","11","<p><img class= 'stimulus' src='images/baseline/Skyscraper 1.jpg'></img></p>","null","","1549924802161","","","","","","",""
"null","","html-keyboard-response","378","714188","0.0-8.0-0.0-10.3","11","<p><img class= 'stimulus' src='images/baseline/Kocherbaumwald-01.jpg'></img></p>","null","","1549924802261","","","","","","",""
"null","","html-keyboard-response","379","714287","0.0-8.0-0.0-11.3","11","<p><img class= 'stimulus' src='images/baseline/04040v.jpg'></img></p>","null","","1549924802362","","","","","","",""
"null","","html-keyboard-response","380","714387","0.0-8.0-0.0-12.3","11","<p><img class= 'stimulus' src='images/target/landscape20.jpg'></img></p>","null","","1549924802461","12","","","","","",""
"null","","html-keyboard-response","381","714488","0.0-8.0-0.0-13.3","11","<p><img class= 'stimulus' src='images/baseline/05189v.jpg'></img></p>","null","","1549924802561","","","","","","",""
"null","","html-keyboard-response","382","714587","0.0-8.0-0.0-14.3","11","<p><img class= 'stimulus' src='images/baseline/03045v.jpg'></img></p>","null","","1549924802661","14","","","","","",""
"null","","html-keyboard-response","383","714687","0.0-8.0-0.0-15.3","11","<p><img class= 'stimulus' src='images/baseline/03114v.jpg'></img></p>","null","","1549924802762","","","","","","",""
"null","","html-keyboard-response","384","714788","0.0-8.0-0.0-16.3","11","<p><img class= 'stimulus' src='images/baseline/house7.jpg'></img></p>","null","","1549924802861","","","","","","",""
"null","","html-keyboard-response","385","714905","0.0-8.0-0.0-17.3","11","<p><img class= 'stimulus' src='images/baseline/farmhouse3.jpg'></img></p>","null","","1549924802962","","","","","","",""
"4938.699999999953","","html-button-response","386","720847","0.0-8.0-0.0-18.3","11","<div class = ""response_question"">WAS THE IMAGE ROTATED...</div>","","4","","","4","8","neg","right","test","true"
"2950.300000000163","","html-button-response","387","723798","0.0-8.0-0.0-0.4","11","","","0","","","","","","","",""
"null","","html-keyboard-response","388","723872","0.0-8.0-0.0-1.4","11","<p><img class= 'stimulus' src='images/baseline/pexels-photo-1287089.jpeg'></img></p>","null","","1549924811945","","","","","","",""
"null","","html-keyboard-response","389","723971","0.0-8.0-0.0-2.4","11","<p><img class= 'stimulus' src='images/baseline/05131v.jpg'></img></p>","null","","1549924812044","","","","","","",""
"null","","html-keyboard-response","390","724071","0.0-8.0-0.0-3.4","11","<p><img class= 'stimulus' src='images/baseline/02947v.jpg'></img></p>","null","","1549924812145","","","","","","",""
"null","","html-keyboard-response","391","724170","0.0-8.0-0.0-4.4","11","<p><img class= 'stimulus' src='images/negative/Weapon 1 (1).jpg'></img></p>","null","","1549924812245","4","","","","","",""
"null","","html-keyboard-response","392","724271","0.0-8.0-0.0-5.4","11","<p><img class= 'stimulus' src='images/baseline/building5.jpg'></img></p>","null","","1549924812345","","","","","","",""
"null","","html-keyboard-response","393","724372","0.0-8.0-0.0-6.4","11","<p><img class= 'stimulus' src='images/baseline/03220v.jpg'></img></p>","null","","1549924812444","6","","","","","",""
"null","","html-keyboard-response","394","724470","0.0-8.0-0.0-7.4","11","<p><img class= 'stimulus' src='images/baseline/Freudenberg_sg_Switzerland.jpg'></img></p>","null","","1549924812545","","","","","","",""
"null","","html-keyboard-response","395","724570","0.0-8.0-0.0-8.4","11","<p><img class= 'stimulus' src='images/baseline/pexels-photo-414491.jpeg'></img></p>","null","","1549924812644","8","","","","","",""
"null","","html-keyboard-response","396","724671","0.0-8.0-0.0-9.4","11","<p><img class= 'stimulus' src='images/baseline/architecture-956332_1280.jpg'></img></p>","null","","1549924812744","","","","","","",""
"null","","html-keyboard-response","397","724771","0.0-8.0-0.0-10.4","11","<p><img class= 'stimulus' src='images/baseline/house3.jpg'></img></p>","null","","1549924812845","","","","","","",""
"null","","html-keyboard-response","398","724871","0.0-8.0-0.0-11.4","11","<p><img class= 'stimulus' src='images/baseline/Street 3.jpg'></img></p>","null","","1549924812945","","","","","","",""
"null","","html-keyboard-response","399","724971","0.0-8.0-0.0-12.4","11","<p><img class= 'stimulus' src='images/target/tree-740901_1280.jpg'></img></p>","null","","1549924813044","12","","","","","",""
"null","","html-keyboard-response","400","725071","0.0-8.0-0.0-13.4","11","<p><img class= 'stimulus' src='images/baseline/pexels-photo-259280.jpeg'></img></p>","null","","1549924813144","","","","","","",""
"null","","html-keyboard-response","401","725171","0.0-8.0-0.0-14.4","11","<p><img class= 'stimulus' src='images/baseline/building_at_national_conservation.jpg'></img></p>","null","","1549924813244","14","","","","","",""
"null","","html-keyboard-response","402","725271","0.0-8.0-0.0-15.4","11","<p><img class= 'stimulus' src='images/baseline/landscape4.jpg'></img></p>","null","","1549924813344","","","","","","",""
"null","","html-keyboard-response","403","725370","0.0-8.0-0.0-16.4","11","<p><img class= 'stimulus' src='images/baseline/Paysage_karabagh_02.jpg'></img></p>","null","","1549924813444","","","","","","",""
"null","","html-keyboard-response","404","725488","0.0-8.0-0.0-17.4","11","<p><img class= 'stimulus' src='images/baseline/Grass 6.jpg'></img></p>","null","","1549924813544","","","","","","",""
"1738.9999999998836","","html-button-response","405","728231","0.0-8.0-0.0-18.4","11","<div class = ""response_question"">WAS THE IMAGE ROTATED...</div>","","3","","","4","8","neg","right","test","true"
"518.5000000001164","","html-button-response","406","728751","0.0-8.0-0.0-0.5","11","","","0","","","","","","","",""
"null","","html-keyboard-response","407","728838","0.0-8.0-0.0-1.5","11","<p><img class= 'stimulus' src='images/baseline/architecture_modern_architecture_852928.jpg'></img></p>","null","","1549924816912","","","","","","",""
"null","","html-keyboard-response","408","728938","0.0-8.0-0.0-2.5","11","<p><img class= 'stimulus' src='images/baseline/agriculture-countryside-crop-259280.jpg'></img></p>","null","","1549924817012","","","","","","",""
"null","","html-keyboard-response","409","729039","0.0-8.0-0.0-3.5","11","<p><img class= 'stimulus' src='images/baseline/sun-through-winter-tree-branches1.jpg'></img></p>","null","","1549924817111","","","","","","",""
"null","","html-keyboard-response","410","729138","0.0-8.0-0.0-4.5","11","<p><img class= 'stimulus' src='images/baseline/landscape2.jpg'></img></p>","null","","1549924817211","4","","","","","",""
"null","","html-keyboard-response","411","729237","0.0-8.0-0.0-5.5","11","<p><img class= 'stimulus' src='images/baseline/vintage-art-deco-storefront.jpg'></img></p>","null","","1549924817312","","","","","","",""
"null","","html-keyboard-response","412","729337","0.0-8.0-0.0-6.5","11","<p><img class= 'stimulus' src='images/baseline/landscape39.jpg'></img></p>","null","","1549924817413","6","","","","","",""
"null","","html-keyboard-response","413","729437","0.0-8.0-0.0-7.5","11","<p><img class= 'stimulus' src='images/baseline/landscape31.jpg'></img></p>","null","","1549924817512","","","","","","",""
"null","","html-keyboard-response","414","729538","0.0-8.0-0.0-8.5","11","<p><img class= 'stimulus' src='images/baseline/field 3.jpg'></img></p>","null","","1549924817611","8","","","","","",""
"null","","html-keyboard-response","415","729638","0.0-8.0-0.0-9.5","11","<p><img class= 'stimulus' src='images/baseline/03112v.jpg'></img></p>","null","","1549924817710","","","","","","",""
"null","","html-keyboard-response","416","729737","0.0-8.0-0.0-10.5","11","<p><img class= 'stimulus' src='images/baseline/04086v.jpg'></img></p>","null","","1549924817810","","","","","","",""
"null","","html-keyboard-response","417","729838","0.0-8.0-0.0-11.5","11","<p><img class= 'stimulus' src='images/baseline/lake 1.jpg'></img></p>","null","","1549924817912","","","","","","",""
"null","","html-keyboard-response","418","729938","0.0-8.0-0.0-12.5","11","<p><img class= 'stimulus' src='images/baseline/pexels-photo-221125.jpeg'></img></p>","null","","1549924818011","12","","","","","",""
"null","","html-keyboard-response","419","730038","0.0-8.0-0.0-13.5","11","<p><img class= 'stimulus' src='images/baseline/lake 2.jpg'></img></p>","null","","1549924818111","","","","","","",""
"null","","html-keyboard-response","420","730137","0.0-8.0-0.0-14.5","11","<p><img class= 'stimulus' src='images/target/tree_2.jpg'></img></p>","null","","1549924818211","14","","","","","",""
"null","","html-keyboard-response","421","730238","0.0-8.0-0.0-15.5","11","<p><img class= 'stimulus' src='images/baseline/house10.jpg'></img></p>","null","","1549924818311","","","","","","",""
"null","","html-keyboard-response","422","730337","0.0-8.0-0.0-16.5","11","<p><img class= 'stimulus' src='images/baseline/agriculture-cereal-clouds-175389.jpg'></img></p>","null","","1549924818412","","","","","","",""
"null","","html-keyboard-response","423","730454","0.0-8.0-0.0-17.5","11","<p><img class= 'stimulus' src='images/baseline/Peyto_Lake-Banff_NP-Canada.jpg'></img></p>","null","","1549924818511","","","","","","",""
"1060.2999999999302","","html-button-response","424","732519","0.0-8.0-0.0-18.5","11","<div class = ""response_question"">WAS THE IMAGE ROTATED...</div>","","3","","","6","8","bas","right","test","true"
"541.4000000001397","","html-button-response","425","733062","0.0-8.0-0.0-0.6","11","","","0","","","","","","","",""
"null","","html-keyboard-response","426","733138","0.0-8.0-0.0-1.6","11","<p><img class= 'stimulus' src='images/baseline/04063v.jpg'></img></p>","null","","1549924821211","","","","","","",""
"null","","html-keyboard-response","427","733238","0.0-8.0-0.0-2.6","11","<p><img class= 'stimulus' src='images/baseline/lone-old-cottonwood-tree.jpg'></img></p>","null","","1549924821311","","","","","","",""
"null","","html-keyboard-response","428","733338","0.0-8.0-0.0-3.6","11","<p><img class= 'stimulus' src='images/baseline/Beach 8.jpg'></img></p>","null","","1549924821411","","","","","","",""
"null","","html-keyboard-response","429","733438","0.0-8.0-0.0-4.6","11","<p><img class= 'stimulus' src='images/baseline/church-silhouette-8712964986014Kb.jpg'></img></p>","null","","1549924821511","4","","","","","",""
"null","","html-keyboard-response","430","733538","0.0-8.0-0.0-5.6","11","<p><img class= 'stimulus' src='images/baseline/pexels-photo-427676.jpeg'></img></p>","null","","1549924821612","","","","","","",""
"null","","html-keyboard-response","431","733638","0.0-8.0-0.0-6.6","11","<p><img class= 'stimulus' src='images/baseline/hills 3.jpg'></img></p>","null","","1549924821712","6","","","","","",""
"null","","html-keyboard-response","432","733737","0.0-8.0-0.0-7.6","11","<p><img class= 'stimulus' src='images/baseline/landscape22.jpg'></img></p>","null","","1549924821811","","","","","","",""
"null","","html-keyboard-response","433","733838","0.0-8.0-0.0-8.6","11","<p><img class= 'stimulus' src='images/baseline/landscape35.jpg'></img></p>","null","","1549924821910","8","","","","","",""
"null","","html-keyboard-response","434","733938","0.0-8.0-0.0-9.6","11","<p><img class= 'stimulus' src='images/baseline/05145v.jpg'></img></p>","null","","1549924822011","","","","","","",""
"null","","html-keyboard-response","435","734038","0.0-8.0-0.0-10.6","11","<p><img class= 'stimulus' src='images/baseline/05303v.jpg'></img></p>","null","","1549924822111","","","","","","",""
"null","","html-keyboard-response","436","734138","0.0-8.0-0.0-11.6","11","<p><img class= 'stimulus' src='images/baseline/pexels-photo-210617.jpeg'></img></p>","null","","1549924822212","","","","","","",""
"null","","html-keyboard-response","437","734238","0.0-8.0-0.0-12.6","11","<p><img class= 'stimulus left-rotate' src='images/target/transamerica-pyramid-530061_640.jpg'></img></p>","null","","1549924822311","12","","","","","",""
"null","","html-keyboard-response","438","734338","0.0-8.0-0.0-13.6","11","<p><img class= 'stimulus' src='images/baseline/04201v.jpg'></img></p>","null","","1549924822412","","","","","","",""
"null","","html-keyboard-response","439","734437","0.0-8.0-0.0-14.6","11","<p><img class= 'stimulus' src='images/baseline/valley 1.jpg'></img></p>","null","","1549924822513","14","","","","","",""
"null","","html-keyboard-response","440","734537","0.0-8.0-0.0-15.6","11","<p><img class= 'stimulus' src='images/baseline/road.jpg'></img></p>","null","","1549924822612","","","","","","",""
"null","","html-keyboard-response","441","734639","0.0-8.0-0.0-16.6","11","<p><img class= 'stimulus' src='images/baseline/04300v.jpg'></img></p>","null","","1549924822711","","","","","","",""
"null","","html-keyboard-response","442","734755","0.0-8.0-0.0-17.6","11","<p><img class= 'stimulus' src='images/baseline/pexels-photo-894312.jpeg'></img></p>","null","","1549924822812","","","","","","",""
"993.5999999999767","","html-button-response","443","736751","0.0-8.0-0.0-18.6","11","<div class = ""response_question"">WAS THE IMAGE ROTATED...</div>","","0","","","4","8","bas","left","test","true"
"614.3999999999069","","html-button-response","444","737367","0.0-8.0-0.0-0.7","11","","","0","","","","","","","",""
"null","","html-keyboard-response","445","737438","0.0-8.0-0.0-1.7","11","<p><img class= 'stimulus' src='images/baseline/landscape36.jpg'></img></p>","null","","1549924825511","","","","","","",""
"null","","html-keyboard-response","446","737538","0.0-8.0-0.0-2.7","11","<p><img class= 'stimulus' src='images/baseline/Lake 14.jpg'></img></p>","null","","1549924825611","","","","","","",""
"null","","html-keyboard-response","447","737637","0.0-8.0-0.0-3.7","11","<p><img class= 'stimulus' src='images/baseline/Street 5.jpg'></img></p>","null","","1549924825712","","","","","","",""
"null","","html-keyboard-response","448","737739","0.0-8.0-0.0-4.7","11","<p><img class= 'stimulus' src='images/baseline/landscape8.jpg'></img></p>","null","","1549924825811","4","","","","","",""
"null","","html-keyboard-response","449","737838","0.0-8.0-0.0-5.7","11","<p><img class= 'stimulus' src='images/baseline/farmhouse9.jpg'></img></p>","null","","1549924825911","","","","","","",""
"null","","html-keyboard-response","450","737938","0.0-8.0-0.0-6.7","11","<p><img class= 'stimulus' src='images/baseline/Happy pose 3.jpg'></img></p>","null","","1549924826012","6","","","","","",""
"null","","html-keyboard-response","451","738037","0.0-8.0-0.0-7.7","11","<p><img class= 'stimulus' src='images/baseline/02945v.jpg'></img></p>","null","","1549924826111","","","","","","",""
"null","","html-keyboard-response","452","738138","0.0-8.0-0.0-8.7","11","<p><img class= 'stimulus' src='images/baseline/landscape1.jpg'></img></p>","null","","1549924826211","8","","","","","",""
"null","","html-keyboard-response","453","738237","0.0-8.0-0.0-9.7","11","<p><img class= 'stimulus' src='images/baseline/Sunset 3.jpg'></img></p>","null","","1549924826311","","","","","","",""
"null","","html-keyboard-response","454","738338","0.0-8.0-0.0-10.7","11","<p><img class= 'stimulus' src='images/baseline/04010v.jpg'></img></p>","null","","1549924826411","","","","","","",""
"null","","html-keyboard-response","455","738438","0.0-8.0-0.0-11.7","11","<p><img class= 'stimulus' src='images/baseline/05198v.jpg'></img></p>","null","","1549924826511","","","","","","",""
"null","","html-keyboard-response","456","738539","0.0-8.0-0.0-12.7","11","<p><img class= 'stimulus' src='images/baseline/trees 23.jpg'></img></p>","null","","1549924826612","12","","","","","",""
"null","","html-keyboard-response","457","738638","0.0-8.0-0.0-13.7","11","<p><img class= 'stimulus' src='images/baseline/03148v.jpg'></img></p>","null","","1549924826711","","","","","","",""
"null","","html-keyboard-response","458","738737","0.0-8.0-0.0-14.7","11","<p><img class= 'stimulus left-rotate' src='images/target/9525-a-lonely-single-tree-in-a-field-pv.jpg'></img></p>","null","","1549924826811","14","","","","","",""
"null","","html-keyboard-response","459","738838","0.0-8.0-0.0-15.7","11","<p><img class= 'stimulus' src='images/baseline/Sidewalk 4.jpg'></img></p>","null","","1549924826911","","","","","","",""
"null","","html-keyboard-response","460","738939","0.0-8.0-0.0-16.7","11","<p><img class= 'stimulus' src='images/baseline/landscape13.jpg'></img></p>","null","","1549924827012","","","","","","",""
"null","","html-keyboard-response","461","739054","0.0-8.0-0.0-17.7","11","<p><img class= 'stimulus' src='images/baseline/Dock 1.jpg'></img></p>","null","","1549924827112","","","","","","",""
"4043.3000000000466","","html-button-response","462","744103","0.0-8.0-0.0-18.7","11","<div class = ""response_question"">WAS THE IMAGE ROTATED...</div>","","0","","","6","8","bas","left","test","true"
"854.3999999999069","","html-button-response","463","744958","0.0-8.0-0.0-0.8","11","","","0","","","","","","","",""
"null","","html-keyboard-response","464","745038","0.0-8.0-0.0-1.8","11","<p><img class= 'stimulus' src='images/baseline/lake3.jpg'></img></p>","null","","1549924833111","","","","","","",""
"null","","html-keyboard-response","465","745138","0.0-8.0-0.0-2.8","11","<p><img class= 'stimulus' src='images/baseline/sunset-over-the-lake.jpg'></img></p>","null","","1549924833211","","","","","","",""
"null","","html-keyboard-response","466","745238","0.0-8.0-0.0-3.8","11","<p><img class= 'stimulus' src='images/baseline/farmhouse11.jpg'></img></p>","null","","1549924833311","","","","","","",""
"null","","html-keyboard-response","467","745337","0.0-8.0-0.0-4.8","11","<p><img class= 'stimulus' src='images/baseline/pexels-photo-59321.jpeg'></img></p>","null","","1549924833411","4","","","","","",""
"null","","html-keyboard-response","468","745438","0.0-8.0-0.0-5.8","11","<p><img class= 'stimulus' src='images/baseline/05161v.jpg'></img></p>","null","","1549924833512","","","","","","",""
"null","","html-keyboard-response","469","745538","0.0-8.0-0.0-6.8","11","<p><img class= 'stimulus' src='images/neutral/Penguins 2.jpg'></img></p>","null","","1549924833612","6","","","","","",""
"null","","html-keyboard-response","470","745638","0.0-8.0-0.0-7.8","11","<p><img class= 'stimulus' src='images/baseline/landscape38.jpg'></img></p>","null","","1549924833712","","","","","","",""
"null","","html-keyboard-response","471","745738","0.0-8.0-0.0-8.8","11","<p><img class= 'stimulus' src='images/baseline/pexels-photo-440731.jpeg'></img></p>","null","","1549924833813","8","","","","","",""
"null","","html-keyboard-response","472","745838","0.0-8.0-0.0-9.8","11","<p><img class= 'stimulus' src='images/baseline/building4.jpg'></img></p>","null","","1549924833912","","","","","","",""
"null","","html-keyboard-response","473","745938","0.0-8.0-0.0-10.8","11","<p><img class= 'stimulus' src='images/baseline/building2.jpg'></img></p>","null","","1549924834012","","","","","","",""
"null","","html-keyboard-response","474","746038","0.0-8.0-0.0-11.8","11","<p><img class= 'stimulus' src='images/baseline/02977v.jpg'></img></p>","null","","1549924834112","","","","","","",""
"null","","html-keyboard-response","475","746138","0.0-8.0-0.0-12.8","11","<p><img class= 'stimulus' src='images/baseline/Waterfall 1.jpg'></img></p>","null","","1549924834212","12","","","","","",""
"null","","html-keyboard-response","476","746238","0.0-8.0-0.0-13.8","11","<p><img class= 'stimulus' src='images/baseline/lookout_tower.jpg'></img></p>","null","","1549924834312","","","","","","",""
"null","","html-keyboard-response","477","746338","0.0-8.0-0.0-14.8","11","<p><img class= 'stimulus left-rotate' src='images/target/shotstash_0036-1-1100x734.jpg'></img></p>","null","","1549924834411","14","","","","","",""
"null","","html-keyboard-response","478","746437","0.0-8.0-0.0-15.8","11","<p><img class= 'stimulus' src='images/baseline/Lake 5.jpg'></img></p>","null","","1549924834511","","","","","","",""
"null","","html-keyboard-response","479","746539","0.0-8.0-0.0-16.8","11","<p><img class= 'stimulus' src='images/baseline/field 1.jpg'></img></p>","null","","1549924834611","","","","","","",""
"null","","html-keyboard-response","480","746655","0.0-8.0-0.0-17.8","11","<p><img class= 'stimulus' src='images/baseline/03056v.jpg'></img></p>","null","","1549924834712","","","","","","",""
"1178.7000000001863","","html-button-response","481","748839","0.0-8.0-0.0-18.8","11","<div class = ""response_question"">WAS THE IMAGE ROTATED...</div>","","2","","","6","8","neu","left","test","false"
"693.6999999999534","","html-button-response","482","749535","0.0-8.0-0.0-0.9","11","","","0","","","","","","","",""
"null","","html-keyboard-response","483","749621","0.0-8.0-0.0-1.9","11","<p><img class= 'stimulus' src='images/baseline/autumn-landscape-with-lake-fall-trees-mountains.jpg'></img></p>","null","","1549924837695","","","","","","",""
"null","","html-keyboard-response","484","749721","0.0-8.0-0.0-2.9","11","<p><img class= 'stimulus' src='images/baseline/house8.jpg'></img></p>","null","","1549924837794","","","","","","",""
"null","","html-keyboard-response","485","749821","0.0-8.0-0.0-3.9","11","<p><img class= 'stimulus' src='images/baseline/03063v.jpg'></img></p>","null","","1549924837894","","","","","","",""
"null","","html-keyboard-response","486","749921","0.0-8.0-0.0-4.9","11","<p><img class= 'stimulus' src='images/baseline/seoul-410266_1920.jpg'></img></p>","null","","1549924837995","4","","","","","",""
"null","","html-keyboard-response","487","750021","0.0-8.0-0.0-5.9","11","<p><img class= 'stimulus' src='images/baseline/landscape15.jpg'></img></p>","null","","1549924838094","","","","","","",""
"null","","html-keyboard-response","488","750122","0.0-8.0-0.0-6.9","11","<p><img class= 'stimulus' src='images/neutral/playing-saxophone-871291665036ZmX.jpg'></img></p>","null","","1549924838195","6","","","","","",""
"null","","html-keyboard-response","489","750221","0.0-8.0-0.0-7.9","11","<p><img class= 'stimulus' src='images/baseline/04098v.jpg'></img></p>","null","","1549924838294","","","","","","",""
"null","","html-keyboard-response","490","750323","0.0-8.0-0.0-8.9","11","<p><img class= 'stimulus' src='images/baseline/04158v.jpg'></img></p>","null","","1549924838396","8","","","","","",""
"null","","html-keyboard-response","491","750421","0.0-8.0-0.0-9.9","11","<p><img class= 'stimulus' src='images/baseline/sunny-landscape-with-dry-brush-and-mountain-background.jpg'></img></p>","null","","1549924838495","","","","","","",""
"null","","html-keyboard-response","492","750522","0.0-8.0-0.0-10.9","11","<p><img class= 'stimulus' src='images/baseline/pexels-photo-1261728.jpeg'></img></p>","null","","1549924838595","","","","","","",""
"null","","html-keyboard-response","493","750621","0.0-8.0-0.0-11.9","11","<p><img class= 'stimulus' src='images/baseline/town-square-in-wroclaw-1539098440MZy.jpg'></img></p>","null","","1549924838695","","","","","","",""
"null","","html-keyboard-response","494","750721","0.0-8.0-0.0-12.9","11","<p><img class= 'stimulus' src='images/baseline/04117v.jpg'></img></p>","null","","1549924838795","12","","","","","",""
"null","","html-keyboard-response","495","750821","0.0-8.0-0.0-13.9","11","<p><img class= 'stimulus' src='images/baseline/05186v.jpg'></img></p>","null","","1549924838895","","","","","","",""
"null","","html-keyboard-response","496","750921","0.0-8.0-0.0-14.9","11","<p><img class= 'stimulus left-rotate' src='images/target/tree.jpeg'></img></p>","null","","1549924838994","14","","","","","",""
"null","","html-keyboard-response","497","751021","0.0-8.0-0.0-15.9","11","<p><img class= 'stimulus' src='images/baseline/hiking-trail.jpg'></img></p>","null","","1549924839095","","","","","","",""
"null","","html-keyboard-response","498","751122","0.0-8.0-0.0-16.9","11","<p><img class= 'stimulus' src='images/baseline/05203v.jpg'></img></p>","null","","1549924839195","","","","","","",""
"null","","html-keyboard-response","499","751238","0.0-8.0-0.0-17.9","11","<p><img class= 'stimulus' src='images/baseline/landscape16.jpg'></img></p>","null","","1549924839295","","","","","","",""
"2553.5","","html-button-response","500","754799","0.0-8.0-0.0-18.9","11","<div class = ""response_question"">WAS THE IMAGE ROTATED...</div>","","0","","","6","8","neu","left","test","true"
"566.6000000000931","","html-button-response","501","755367","0.0-8.0-0.0-0.10","11","","","0","","","","","","","",""
"null","","html-keyboard-response","502","755438","0.0-8.0-0.0-1.10","11","<p><img class= 'stimulus' src='images/baseline/house6.jpg'></img></p>","null","","1549924843511","","","","","","",""
"null","","html-keyboard-response","503","755538","0.0-8.0-0.0-2.10","11","<p><img class= 'stimulus' src='images/baseline/scenic-mountain-landscape.jpg'></img></p>","null","","1549924843611","","","","","","",""
"null","","html-keyboard-response","504","755638","0.0-8.0-0.0-3.10","11","<p><img class= 'stimulus' src='images/baseline/farmhouse1.jpg'></img></p>","null","","1549924843712","","","","","","",""
"null","","html-keyboard-response","505","755738","0.0-8.0-0.0-4.10","11","<p><img class= 'stimulus' src='images/baseline/tennis-court-net-buried-in-snow.jpg'></img></p>","null","","1549924843811","4","","","","","",""
"null","","html-keyboard-response","506","755839","0.0-8.0-0.0-5.10","11","<p><img class= 'stimulus' src='images/baseline/03098v.jpg'></img></p>","null","","1549924843911","","","","","","",""
"null","","html-keyboard-response","507","755939","0.0-8.0-0.0-6.10","11","<p><img class= 'stimulus' src='images/baseline/river 1.jpg'></img></p>","null","","1549924844012","6","","","","","",""
"null","","html-keyboard-response","508","756038","0.0-8.0-0.0-7.10","11","<p><img class= 'stimulus' src='images/baseline/snowy tree.jpg'></img></p>","null","","1549924844112","","","","","","",""
"null","","html-keyboard-response","509","756138","0.0-8.0-0.0-8.10","11","<p><img class= 'stimulus' src='images/baseline/grand-teton-mountains.jpg'></img></p>","null","","1549924844211","8","","","","","",""
