"rt","responses","trial_type","trial_index","time_elapsed","internal_node_id","participant_id","stimulus","key_press","button_pressed","stim_onset","sequence_position","distractor_position","target_lag","distractor_type","target_orientation","phase","correct"
"5676.800000015646","{""Q0"":""46""}","survey-text","0","5682","0.0-0.0","46","","","","","","","","","","",""
"171352.30000002775","","html-keyboard-response","1","177044","0.0-1.0","46","Welcome to the experiment.","67","","","","","","","","",""
"55522.400000016205","","html-button-response","2","232572","0.0-2.0","46","<p>Several images will be presented sequentially.        Each image will only be on the screen for about 100 milliseconds.</p>        <p> One of the images may be rotated 90 degrees right or left.        Watch for this image and remember if it is rotated right or left.</p>               <p>Images of people and animals will appear, and sometimes they will be unpleasant.        These will never be the rotated target image.</p>","","0","","","","","","","",""
"6494.099999952596","","html-button-response","3","239067","0.0-3.0","46","<p><img class=""stimulus left-rotate"" src=""images/target/coconut-3396945_640.jpg""></img></p><p>This is an example of an image rotated to the left.</p>","","0","","","","","","","",""
"1302.9999999562278","","html-button-response","4","240371","0.0-4.0","46","<p><img class=""stimulus"" src=""images/target/specphotops-563427-unsplash.jpg""></img></p><p>This is an example of an image rotated to the right.</p>","","0","","","","","","","",""
"8855.099999986123","","html-button-response","5","249227","0.0-5.0","46","<p>We will now begin a short practice session.</p>         <p>A + symbol will appear in the middle of the screen. Please fix your gaze on the center of the +, and then click the mouse button to begin the image sequence.</p>         <p>Please avoid blinking or eye movements while the images are on the screen.</p>        <p>The image sequence will start relatively slow. After a few sequences, it will speed up.</p>","","0","","","","","","","",""
"5518.69999995688","","html-button-response","6","254747","0.0-6.0-0.0","46","","","0","","","","","","","",""
"null","","html-keyboard-response","7","254926","0.0-6.0-1.0","46","<p><img class= 'stimulus' src='images/baseline/building4.jpg'></img></p>","null","","1551404421090","","","","","","",""
"null","","html-keyboard-response","8","255126","0.0-6.0-2.0","46","<p><img class= 'stimulus' src='images/baseline/house6.jpg'></img></p>","null","","1551404421290","","","","","","",""
"null","","html-keyboard-response","9","255327","0.0-6.0-3.0","46","<p><img class= 'stimulus' src='images/baseline/Linden,_paysage.jpg'></img></p>","null","","1551404421489","","","","","","",""
"null","","html-keyboard-response","10","255526","0.0-6.0-4.0","46","<p><img class= 'stimulus' src='images/baseline/02971v.jpg'></img></p>","null","","1551404421690","4","","","","","",""
"null","","html-keyboard-response","11","255727","0.0-6.0-5.0","46","<p><img class= 'stimulus' src='images/baseline/landscape35.jpg'></img></p>","null","","1551404421890","","","","","","",""
"null","","html-keyboard-response","12","255928","0.0-6.0-6.0","46","<p><img class= 'stimulus' src='images/baseline/landscape2.jpg'></img></p>","null","","1551404422090","6","","","","","",""
"null","","html-keyboard-response","13","256127","0.0-6.0-7.0","46","<p><img class= 'stimulus' src='images/baseline/valley 1.jpg'></img></p>","null","","1551404422290","","","","","","",""
"null","","html-keyboard-response","14","256328","0.0-6.0-8.0","46","<p><img class= 'stimulus' src='images/baseline/house11.jpg'></img></p>","null","","1551404422490","8","","","","","",""
"null","","html-keyboard-response","15","256528","0.0-6.0-9.0","46","<p><img class= 'stimulus' src='images/baseline/04098v.jpg'></img></p>","null","","1551404422691","","","","","","",""
"null","","html-keyboard-response","16","256728","0.0-6.0-10.0","46","<p><img class= 'stimulus' src='images/baseline/04086v.jpg'></img></p>","null","","1551404422891","","","","","","",""
"null","","html-keyboard-response","17","256928","0.0-6.0-11.0","46","<p><img class= 'stimulus' src='images/baseline/sunset-over-the-lake.jpg'></img></p>","null","","1551404423091","","","","","","",""
"null","","html-keyboard-response","18","257129","0.0-6.0-12.0","46","<p><img class= 'stimulus' src='images/target/tree.jpeg'></img></p>","null","","1551404423292","12","","","","","",""
"null","","html-keyboard-response","19","257328","0.0-6.0-13.0","46","<p><img class= 'stimulus' src='images/baseline/field 3.jpg'></img></p>","null","","1551404423491","","","","","","",""
"null","","html-keyboard-response","20","257529","0.0-6.0-14.0","46","<p><img class= 'stimulus' src='images/baseline/pexels-photo-59321.jpeg'></img></p>","null","","1551404423692","14","","","","","",""
"null","","html-keyboard-response","21","257729","0.0-6.0-15.0","46","<p><img class= 'stimulus' src='images/baseline/Road 1.jpg'></img></p>","null","","1551404423893","","","","","","",""
"null","","html-keyboard-response","22","257929","0.0-6.0-16.0","46","<p><img class= 'stimulus' src='images/baseline/farmhouse9.jpg'></img></p>","null","","1551404424092","","","","","","",""
"null","","html-keyboard-response","23","258145","0.0-6.0-17.0","46","<p><img class= 'stimulus' src='images/baseline/03114v.jpg'></img></p>","null","","1551404424292","","","","","","",""
"2829.29999998305","","html-button-response","24","261979","0.0-6.0-18.0","46","<div class = ""response_question"">WAS THE IMAGE ROTATED...</div>","","3","","","4","8","bas","right","practice","true"
"1461.8999999947846","","html-button-response","25","263443","0.0-6.0-0.1","46","","","0","","","","","","","",""
"null","","html-keyboard-response","26","263627","0.0-6.0-1.1","46","<p><img class= 'stimulus' src='images/baseline/Lake 3.jpg'></img></p>","null","","1551404429791","","","","","","",""
"null","","html-keyboard-response","27","263827","0.0-6.0-2.1","46","<p><img class= 'stimulus' src='images/baseline/river 1.jpg'></img></p>","null","","1551404429992","","","","","","",""
"null","","html-keyboard-response","28","264028","0.0-6.0-3.1","46","<p><img class= 'stimulus' src='images/baseline/agriculture-cereal-clouds-175389.jpg'></img></p>","null","","1551404430191","","","","","","",""
"null","","html-keyboard-response","29","264229","0.0-6.0-4.1","46","<p><img class= 'stimulus' src='images/baseline/Street 3.jpg'></img></p>","null","","1551404430391","4","","","","","",""
"null","","html-keyboard-response","30","264427","0.0-6.0-5.1","46","<p><img class= 'stimulus' src='images/baseline/house10.jpg'></img></p>","null","","1551404430591","","","","","","",""
"null","","html-keyboard-response","31","264629","0.0-6.0-6.1","46","<p><img class= 'stimulus left-rotate' src='images/target/skyscraper-3855012_640.jpg'></img></p>","null","","1551404430791","6","","","","","",""
"null","","html-keyboard-response","32","264827","0.0-6.0-7.1","46","<p><img class= 'stimulus' src='images/baseline/landscape22.jpg'></img></p>","null","","1551404430991","","","","","","",""
"null","","html-keyboard-response","33","265029","0.0-6.0-8.1","46","<p><img class= 'stimulus' src='images/baseline/04130v.jpg'></img></p>","null","","1551404431191","8","","","","","",""
"null","","html-keyboard-response","34","265229","0.0-6.0-9.1","46","<p><img class= 'stimulus' src='images/baseline/landscape14.jpg'></img></p>","null","","1551404431391","","","","","","",""
"null","","html-keyboard-response","35","265428","0.0-6.0-10.1","46","<p><img class= 'stimulus' src='images/baseline/Sailing 3.jpg'></img></p>","null","","1551404431591","","","","","","",""
"null","","html-keyboard-response","36","265628","0.0-6.0-11.1","46","<p><img class= 'stimulus' src='images/baseline/Lake 7.jpg'></img></p>","null","","1551404431791","","","","","","",""
"null","","html-keyboard-response","37","265827","0.0-6.0-12.1","46","<p><img class= 'stimulus' src='images/baseline/landscape7.jpg'></img></p>","null","","1551404431991","12","","","","","",""
"null","","html-keyboard-response","38","266029","0.0-6.0-13.1","46","<p><img class= 'stimulus' src='images/baseline/agriculture-countryside-crop-259280.jpg'></img></p>","null","","1551404432192","","","","","","",""
"null","","html-keyboard-response","39","266228","0.0-6.0-14.1","46","<p><img class= 'stimulus' src='images/baseline/landscape33.jpg'></img></p>","null","","1551404432393","14","","","","","",""
"null","","html-keyboard-response","40","266429","0.0-6.0-15.1","46","<p><img class= 'stimulus' src='images/baseline/house2.jpg'></img></p>","null","","1551404432593","","","","","","",""
"null","","html-keyboard-response","41","266629","0.0-6.0-16.1","46","<p><img class= 'stimulus' src='images/baseline/pexels-photo-259280.jpeg'></img></p>","null","","1551404432793","","","","","","",""
"null","","html-keyboard-response","42","266846","0.0-6.0-17.1","46","<p><img class= 'stimulus' src='images/baseline/landscape4.jpg'></img></p>","null","","1551404432993","","","","","","",""
"2694.3999999784864","","html-button-response","43","270547","0.0-6.0-18.1","46","<div class = ""response_question"">WAS THE IMAGE ROTATED...</div>","","2","","","4","2","bas","left","practice","false"
"15766.59999997355","","html-button-response","44","286316","0.0-6.0-0.2","46","","","0","","","","","","","",""
"null","","html-keyboard-response","45","286494","0.0-6.0-1.2","46","<p><img class= 'stimulus' src='images/baseline/tennis-court-net-buried-in-snow.jpg'></img></p>","null","","1551404452659","","","","","","",""
"null","","html-keyboard-response","46","286695","0.0-6.0-2.2","46","<p><img class= 'stimulus' src='images/baseline/Freudenberg_sg_Switzerland.jpg'></img></p>","null","","1551404452859","","","","","","",""
"null","","html-keyboard-response","47","286895","0.0-6.0-3.2","46","<p><img class= 'stimulus' src='images/baseline/building5.jpg'></img></p>","null","","1551404453059","","","","","","",""
"null","","html-keyboard-response","48","287095","0.0-6.0-4.2","46","<p><img class= 'stimulus' src='images/baseline/04085v.jpg'></img></p>","null","","1551404453258","4","","","","","",""
"null","","html-keyboard-response","49","287295","0.0-6.0-5.2","46","<p><img class= 'stimulus' src='images/baseline/05264v.jpg'></img></p>","null","","1551404453458","","","","","","",""
"null","","html-keyboard-response","50","287494","0.0-6.0-6.2","46","<p><img class= 'stimulus' src='images/baseline/hills 4.jpg'></img></p>","null","","1551404453658","6","","","","","",""
"null","","html-keyboard-response","51","287695","0.0-6.0-7.2","46","<p><img class= 'stimulus' src='images/baseline/red rocks from afar.jpg'></img></p>","null","","1551404453859","","","","","","",""
"null","","html-keyboard-response","52","287894","0.0-6.0-8.2","46","<p><img class= 'stimulus' src='images/baseline/02962v.jpg'></img></p>","null","","1551404454058","8","","","","","",""
"null","","html-keyboard-response","53","288096","0.0-6.0-9.2","46","<p><img class= 'stimulus' src='images/baseline/04284v.jpg'></img></p>","null","","1551404454258","","","","","","",""
"null","","html-keyboard-response","54","288296","0.0-6.0-10.2","46","<p><img class= 'stimulus' src='images/baseline/Lake 9.jpg'></img></p>","null","","1551404454459","","","","","","",""
"null","","html-keyboard-response","55","288496","0.0-6.0-11.2","46","<p><img class= 'stimulus' src='images/baseline/Skijump 1.jpg'></img></p>","null","","1551404454659","","","","","","",""
"null","","html-keyboard-response","56","288696","0.0-6.0-12.2","46","<p><img class= 'stimulus left-rotate' src='images/target/Tree-Landscape-Winter-Nature-Winter-Trees-Snow-2117951.jpg'></img></p>","null","","1551404454858","12","","","","","",""
"null","","html-keyboard-response","57","288896","0.0-6.0-13.2","46","<p><img class= 'stimulus' src='images/baseline/lake3.jpg'></img></p>","null","","1551404455059","","","","","","",""
"null","","html-keyboard-response","58","289096","0.0-6.0-14.2","46","<p><img class= 'stimulus' src='images/baseline/field 1.jpg'></img></p>","null","","1551404455259","14","","","","","",""
"null","","html-keyboard-response","59","289296","0.0-6.0-15.2","46","<p><img class= 'stimulus' src='images/baseline/04222v.jpg'></img></p>","null","","1551404455459","","","","","","",""
"null","","html-keyboard-response","60","289496","0.0-6.0-16.2","46","<p><img class= 'stimulus' src='images/baseline/snowy tree.jpg'></img></p>","null","","1551404455660","","","","","","",""
"null","","html-keyboard-response","61","289712","0.0-6.0-17.2","46","<p><img class= 'stimulus' src='images/baseline/Skyscraper 2.jpg'></img></p>","null","","1551404455860","","","","","","",""
"1045.499999949243","","html-button-response","62","291764","0.0-6.0-18.2","46","<div class = ""response_question"">WAS THE IMAGE ROTATED...</div>","","0","","","4","8","bas","left","practice","true"
"1198.6000000033528","","html-button-response","63","292963","0.0-6.0-0.3","46","","","0","","","","","","","",""
"null","","html-keyboard-response","64","293145","0.0-6.0-1.3","46","<p><img class= 'stimulus' src='images/baseline/pexels-photo-440731.jpeg'></img></p>","null","","1551404459310","","","","","","",""
"null","","html-keyboard-response","65","293345","0.0-6.0-2.3","46","<p><img class= 'stimulus' src='images/baseline/Dirt 2.jpg'></img></p>","null","","1551404459508","","","","","","",""
"null","","html-keyboard-response","66","293545","0.0-6.0-3.3","46","<p><img class= 'stimulus' src='images/baseline/hiking-trail.jpg'></img></p>","null","","1551404459708","","","","","","",""
"null","","html-keyboard-response","67","293745","0.0-6.0-4.3","46","<p><img class= 'stimulus' src='images/baseline/04162v.jpg'></img></p>","null","","1551404459908","4","","","","","",""
"null","","html-keyboard-response","68","293945","0.0-6.0-5.3","46","<p><img class= 'stimulus' src='images/baseline/4k-wallpaper-agriculture-clouds-842711.jpg'></img></p>","null","","1551404460108","","","","","","",""
"null","","html-keyboard-response","69","294145","0.0-6.0-6.3","46","<p><img class= 'stimulus' src='images/target/landscape32.jpg'></img></p>","null","","1551404460308","6","","","","","",""
"null","","html-keyboard-response","70","294344","0.0-6.0-7.3","46","<p><img class= 'stimulus' src='images/baseline/scenic-mountain-landscape.jpg'></img></p>","null","","1551404460508","","","","","","",""
"null","","html-keyboard-response","71","294545","0.0-6.0-8.3","46","<p><img class= 'stimulus' src='images/baseline/pexels-photo-808465.jpeg'></img></p>","null","","1551404460709","8","","","","","",""
"null","","html-keyboard-response","72","294745","0.0-6.0-9.3","46","<p><img class= 'stimulus' src='images/baseline/Lake 15.jpg'></img></p>","null","","1551404460910","","","","","","",""
"null","","html-keyboard-response","73","294945","0.0-6.0-10.3","46","<p><img class= 'stimulus' src='images/baseline/pexels-photo-534164.jpeg'></img></p>","null","","1551404461109","","","","","","",""
"null","","html-keyboard-response","74","295146","0.0-6.0-11.3","46","<p><img class= 'stimulus' src='images/baseline/04064v.jpg'></img></p>","null","","1551404461309","","","","","","",""
"null","","html-keyboard-response","75","295345","0.0-6.0-12.3","46","<p><img class= 'stimulus' src='images/baseline/kokkari-1523011968Xfr.jpg'></img></p>","null","","1551404461509","12","","","","","",""
"null","","html-keyboard-response","76","295546","0.0-6.0-13.3","46","<p><img class= 'stimulus' src='images/baseline/house8.jpg'></img></p>","null","","1551404461709","","","","","","",""
"null","","html-keyboard-response","77","295746","0.0-6.0-14.3","46","<p><img class= 'stimulus' src='images/baseline/geese-flying-over-lake-at-dusk.jpg'></img></p>","null","","1551404461909","14","","","","","",""
"null","","html-keyboard-response","78","295947","0.0-6.0-15.3","46","<p><img class= 'stimulus' src='images/baseline/building_at_national_conservation.jpg'></img></p>","null","","1551404462109","","","","","","",""
"null","","html-keyboard-response","79","296145","0.0-6.0-16.3","46","<p><img class= 'stimulus' src='images/baseline/03112v.jpg'></img></p>","null","","1551404462309","","","","","","",""
"null","","html-keyboard-response","80","296363","0.0-6.0-17.3","46","<p><img class= 'stimulus' src='images/baseline/Kocherbaumwald-01.jpg'></img></p>","null","","1551404462509","","","","","","",""
"1066.7000000248663","","html-button-response","81","298436","0.0-6.0-18.3","46","<div class = ""response_question"">WAS THE IMAGE ROTATED...</div>","","3","","","4","2","bas","right","practice","true"
"1574.1999999736436","","html-button-response","82","300012","0.0-6.0-0.4","46","","","0","","","","","","","",""
"null","","html-keyboard-response","83","300145","0.0-6.0-1.4","46","<p><img class= 'stimulus' src='images/baseline/04014v.jpg'></img></p>","null","","1551404466358","","","","","","",""
"null","","html-keyboard-response","84","300295","0.0-6.0-2.4","46","<p><img class= 'stimulus' src='images/baseline/Peyto_Lake-Banff_NP-Canada.jpg'></img></p>","null","","1551404466509","","","","","","",""
"null","","html-keyboard-response","85","300445","0.0-6.0-3.4","46","<p><img class= 'stimulus' src='images/baseline/dirt-road-or-trail-through-park.jpg'></img></p>","null","","1551404466659","","","","","","",""
"null","","html-keyboard-response","86","300595","0.0-6.0-4.4","46","<p><img class= 'stimulus' src='images/baseline/landscape38.jpg'></img></p>","null","","1551404466808","4","","","","","",""
"null","","html-keyboard-response","87","300746","0.0-6.0-5.4","46","<p><img class= 'stimulus' src='images/baseline/lake 1.jpg'></img></p>","null","","1551404466960","","","","","","",""
"null","","html-keyboard-response","88","300894","0.0-6.0-6.4","46","<p><img class= 'stimulus' src='images/baseline/house7.jpg'></img></p>","null","","1551404467108","6","","","","","",""
"null","","html-keyboard-response","89","301045","0.0-6.0-7.4","46","<p><img class= 'stimulus' src='images/baseline/sunny-landscape-with-dry-brush-and-mountain-background.jpg'></img></p>","null","","1551404467259","","","","","","",""
"null","","html-keyboard-response","90","301195","0.0-6.0-8.4","46","<p><img class= 'stimulus' src='images/target/specphotops-563427-unsplash.jpg'></img></p>","null","","1551404467408","8","","","","","",""
"null","","html-keyboard-response","91","301345","0.0-6.0-9.4","46","<p><img class= 'stimulus' src='images/baseline/horse_statue.jpg'></img></p>","null","","1551404467557","","","","","","",""
"null","","html-keyboard-response","92","301495","0.0-6.0-10.4","46","<p><img class= 'stimulus' src='images/baseline/99_-_Machu_Picchu_-_Juin_2009.edit3.jpg'></img></p>","null","","1551404467708","","","","","","",""
"null","","html-keyboard-response","93","301644","0.0-6.0-11.4","46","<p><img class= 'stimulus' src='images/baseline/03162v.jpg'></img></p>","null","","1551404467858","","","","","","",""
"null","","html-keyboard-response","94","301794","0.0-6.0-12.4","46","<p><img class= 'stimulus' src='images/baseline/architecture_modern_architecture_852928.jpg'></img></p>","null","","1551404468008","12","","","","","",""
"null","","html-keyboard-response","95","301944","0.0-6.0-13.4","46","<p><img class= 'stimulus' src='images/baseline/04229v.jpg'></img></p>","null","","1551404468159","","","","","","",""
"null","","html-keyboard-response","96","302095","0.0-6.0-14.4","46","<p><img class= 'stimulus' src='images/baseline/cranes 1.jpg'></img></p>","null","","1551404468307","14","","","","","",""
"null","","html-keyboard-response","97","302244","0.0-6.0-15.4","46","<p><img class= 'stimulus' src='images/baseline/landscape12.jpg'></img></p>","null","","1551404468458","","","","","","",""
"null","","html-keyboard-response","98","302395","0.0-6.0-16.4","46","<p><img class= 'stimulus' src='images/baseline/05179v.jpg'></img></p>","null","","1551404468608","","","","","","",""
"null","","html-keyboard-response","99","302561","0.0-6.0-17.4","46","<p><img class= 'stimulus' src='images/baseline/03056v.jpg'></img></p>","null","","1551404468758","","","","","","",""
"620.8000000333413","","html-button-response","100","304196","0.0-6.0-18.4","46","<div class = ""response_question"">WAS THE IMAGE ROTATED...</div>","","3","","","6","2","bas","right","practice","true"
"1070.3999999677762","","html-button-response","101","305267","0.0-6.0-0.5","46","","","0","","","","","","","",""
"null","","html-keyboard-response","102","305394","0.0-6.0-1.5","46","<p><img class= 'stimulus' src='images/baseline/landscape37.jpg'></img></p>","null","","1551404471607","","","","","","",""
"null","","html-keyboard-response","103","305543","0.0-6.0-2.5","46","<p><img class= 'stimulus' src='images/baseline/Beach 3.jpg'></img></p>","null","","1551404471758","","","","","","",""
"null","","html-keyboard-response","104","305694","0.0-6.0-3.5","46","<p><img class= 'stimulus' src='images/baseline/sun-through-winter-tree-branches1.jpg'></img></p>","null","","1551404471909","","","","","","",""
"null","","html-keyboard-response","105","305843","0.0-6.0-4.5","46","<p><img class= 'stimulus' src='images/baseline/pexels-photo-541101.jpeg'></img></p>","null","","1551404472058","4","","","","","",""
"null","","html-keyboard-response","106","305994","0.0-6.0-5.5","46","<p><img class= 'stimulus' src='images/baseline/Sunset 4.jpg'></img></p>","null","","1551404472208","","","","","","",""
"null","","html-keyboard-response","107","306144","0.0-6.0-6.5","46","<p><img class= 'stimulus' src='images/baseline/pexels-photo-427676.jpeg'></img></p>","null","","1551404472357","6","","","","","",""
"null","","html-keyboard-response","108","306294","0.0-6.0-7.5","46","<p><img class= 'stimulus' src='images/baseline/02945v.jpg'></img></p>","null","","1551404472507","","","","","","",""
"null","","html-keyboard-response","109","306444","0.0-6.0-8.5","46","<p><img class= 'stimulus' src='images/baseline/04040v.jpg'></img></p>","null","","1551404472658","8","","","","","",""
"null","","html-keyboard-response","110","306594","0.0-6.0-9.5","46","<p><img class= 'stimulus' src='images/baseline/05186v.jpg'></img></p>","null","","1551404472807","","","","","","",""
"null","","html-keyboard-response","111","306744","0.0-6.0-10.5","46","<p><img class= 'stimulus' src='images/baseline/city-silhouette-at-sunset-871291580819Esw.jpg'></img></p>","null","","1551404472957","","","","","","",""
"null","","html-keyboard-response","112","306894","0.0-6.0-11.5","46","<p><img class= 'stimulus' src='images/baseline/Sky 1.jpg'></img></p>","null","","1551404473107","","","","","","",""
"null","","html-keyboard-response","113","307044","0.0-6.0-12.5","46","<p><img class= 'stimulus' src='images/baseline/church-silhouette-8712964986014Kb.jpg'></img></p>","null","","1551404473258","12","","","","","",""
"null","","html-keyboard-response","114","307194","0.0-6.0-13.5","46","<p><img class= 'stimulus' src='images/baseline/03212v.jpg'></img></p>","null","","1551404473407","","","","","","",""
"null","","html-keyboard-response","115","307344","0.0-6.0-14.5","46","<p><img class= 'stimulus left-rotate' src='images/target/church-2306128_640.jpg'></img></p>","null","","1551404473557","14","","","","","",""
"null","","html-keyboard-response","116","307494","0.0-6.0-15.5","46","<p><img class= 'stimulus' src='images/baseline/trees 23.jpg'></img></p>","null","","1551404473707","","","","","","",""
"null","","html-keyboard-response","117","307644","0.0-6.0-16.5","46","<p><img class= 'stimulus' src='images/baseline/autumn-landscape-with-lake-fall-trees-mountains.jpg'></img></p>","null","","1551404473857","","","","","","",""
"null","","html-keyboard-response","118","307812","0.0-6.0-17.5","46","<p><img class= 'stimulus' src='images/baseline/landscape1.jpg'></img></p>","null","","1551404474007","","","","","","",""
"875.89999998454","","html-button-response","119","309692","0.0-6.0-18.5","46","<div class = ""response_question"">WAS THE IMAGE ROTATED...</div>","","0","","","6","8","bas","left","practice","true"
"1190.7999999821186","","html-button-response","120","310884","0.0-6.0-0.6","46","","","0","","","","","","","",""
"null","","html-keyboard-response","121","311011","0.0-6.0-1.6","46","<p><img class= 'stimulus' src='images/baseline/farmhouse3.jpg'></img></p>","null","","1551404477223","","","","","","",""
"null","","html-keyboard-response","122","311162","0.0-6.0-2.6","46","<p><img class= 'stimulus' src='images/baseline/03045v.jpg'></img></p>","null","","1551404477373","","","","","","",""
"null","","html-keyboard-response","123","311310","0.0-6.0-3.6","46","<p><img class= 'stimulus' src='images/baseline/Niinsaare_jarv.jpg'></img></p>","null","","1551404477524","","","","","","",""
"null","","html-keyboard-response","124","311461","0.0-6.0-4.6","46","<p><img class= 'stimulus' src='images/baseline/landscape6.jpg'></img></p>","null","","1551404477674","4","","","","","",""
"null","","html-keyboard-response","125","311610","0.0-6.0-5.6","46","<p><img class= 'stimulus' src='images/baseline/vintage-art-deco-storefront.jpg'></img></p>","null","","1551404477824","","","","","","",""
"null","","html-keyboard-response","126","311761","0.0-6.0-6.6","46","<p><img class= 'stimulus' src='images/baseline/landscape8.jpg'></img></p>","null","","1551404477974","6","","","","","",""
"null","","html-keyboard-response","127","311910","0.0-6.0-7.6","46","<p><img class= 'stimulus' src='images/baseline/road 1(1).jpg'></img></p>","null","","1551404478124","","","","","","",""
"null","","html-keyboard-response","128","312060","0.0-6.0-8.6","46","<p><img class= 'stimulus left-rotate' src='images/target/building15.jpg'></img></p>","null","","1551404478273","8","","","","","",""
"null","","html-keyboard-response","129","312212","0.0-6.0-9.6","46","<p><img class= 'stimulus' src='images/baseline/lone-old-cottonwood-tree.jpg'></img></p>","null","","1551404478425","","","","","","",""
"null","","html-keyboard-response","130","312360","0.0-6.0-10.6","46","<p><img class= 'stimulus' src='images/baseline/Paysage_karabagh_02.jpg'></img></p>","null","","1551404478574","","","","","","",""
"null","","html-keyboard-response","131","312511","0.0-6.0-11.6","46","<p><img class= 'stimulus' src='images/baseline/landscape15.jpg'></img></p>","null","","1551404478724","","","","","","",""
"null","","html-keyboard-response","132","312661","0.0-6.0-12.6","46","<p><img class= 'stimulus' src='images/baseline/pexels-photo-1837621.jpeg'></img></p>","null","","1551404478874","12","","","","","",""
"null","","html-keyboard-response","133","312811","0.0-6.0-13.6","46","<p><img class= 'stimulus' src='images/baseline/Street 4.jpg'></img></p>","null","","1551404479023","","","","","","",""
"null","","html-keyboard-response","134","312960","0.0-6.0-14.6","46","<p><img class= 'stimulus' src='images/baseline/pexels-photo-414491.jpeg'></img></p>","null","","1551404479175","14","","","","","",""
"null","","html-keyboard-response","135","313111","0.0-6.0-15.6","46","<p><img class= 'stimulus' src='images/baseline/valley 2.jpg'></img></p>","null","","1551404479323","","","","","","",""
"null","","html-keyboard-response","136","313260","0.0-6.0-16.6","46","<p><img class= 'stimulus' src='images/baseline/Beach 2.jpg'></img></p>","null","","1551404479475","","","","","","",""
"null","","html-keyboard-response","137","313427","0.0-6.0-17.6","46","<p><img class= 'stimulus' src='images/baseline/04179v.jpg'></img></p>","null","","1551404479624","","","","","","",""
"682.500000053551","","html-button-response","138","315124","0.0-6.0-18.6","46","<div class = ""response_question"">WAS THE IMAGE ROTATED...</div>","","0","","","6","2","bas","left","practice","true"
"2014.5000000484288","","html-button-response","139","317139","0.0-6.0-0.7","46","","","0","","","","","","","",""
"null","","html-keyboard-response","140","317278","0.0-6.0-1.7","46","<p><img class= 'stimulus' src='images/baseline/04300v.jpg'></img></p>","null","","1551404483491","","","","","","",""
"null","","html-keyboard-response","141","317428","0.0-6.0-2.7","46","<p><img class= 'stimulus' src='images/baseline/03075v.jpg'></img></p>","null","","1551404483641","","","","","","",""
"null","","html-keyboard-response","142","317577","0.0-6.0-3.7","46","<p><img class= 'stimulus' src='images/baseline/landscape19.jpg'></img></p>","null","","1551404483791","","","","","","",""
"null","","html-keyboard-response","143","317727","0.0-6.0-4.7","46","<p><img class= 'stimulus' src='images/baseline/04010v.jpg'></img></p>","null","","1551404483941","4","","","","","",""
"null","","html-keyboard-response","144","317877","0.0-6.0-5.7","46","<p><img class= 'stimulus' src='images/baseline/Lake 14.jpg'></img></p>","null","","1551404484092","","","","","","",""
"null","","html-keyboard-response","145","318028","0.0-6.0-6.7","46","<p><img class= 'stimulus' src='images/baseline/landscape39.jpg'></img></p>","null","","1551404484240","6","","","","","",""
"null","","html-keyboard-response","146","318178","0.0-6.0-7.7","46","<p><img class= 'stimulus' src='images/baseline/pexels-photo-750108.jpeg'></img></p>","null","","1551404484392","","","","","","",""
"null","","html-keyboard-response","147","318327","0.0-6.0-8.7","46","<p><img class= 'stimulus' src='images/baseline/04031v.jpg'></img></p>","null","","1551404484540","8","","","","","",""
"null","","html-keyboard-response","148","318478","0.0-6.0-9.7","46","<p><img class= 'stimulus' src='images/baseline/Lake 8.jpg'></img></p>","null","","1551404484691","","","","","","",""
"null","","html-keyboard-response","149","318627","0.0-6.0-10.7","46","<p><img class= 'stimulus' src='images/baseline/Beach 8.jpg'></img></p>","null","","1551404484841","","","","","","",""
"null","","html-keyboard-response","150","318778","0.0-6.0-11.7","46","<p><img class= 'stimulus' src='images/baseline/05161v.jpg'></img></p>","null","","1551404484990","","","","","","",""
"null","","html-keyboard-response","151","318927","0.0-6.0-12.7","46","<p><img class= 'stimulus' src='images/baseline/05303v.jpg'></img></p>","null","","1551404485140","12","","","","","",""
"null","","html-keyboard-response","152","319077","0.0-6.0-13.7","46","<p><img class= 'stimulus' src='images/baseline/architecture-1314416_1920.jpg'></img></p>","null","","1551404485291","","","","","","",""
"null","","html-keyboard-response","153","319227","0.0-6.0-14.7","46","<p><img class= 'stimulus' src='images/target/cactus1.jpg'></img></p>","null","","1551404485440","14","","","","","",""
"null","","html-keyboard-response","154","319378","0.0-6.0-15.7","46","<p><img class= 'stimulus' src='images/baseline/05203v.jpg'></img></p>","null","","1551404485591","","","","","","",""
"null","","html-keyboard-response","155","319526","0.0-6.0-16.7","46","<p><img class= 'stimulus' src='images/baseline/05242v.jpg'></img></p>","null","","1551404485742","","","","","","",""
"null","","html-keyboard-response","156","319694","0.0-6.0-17.7","46","<p><img class= 'stimulus' src='images/baseline/building9.jpg'></img></p>","null","","1551404485891","","","","","","",""
"889.2999999807216","","html-button-response","157","321588","0.0-6.0-18.7","46","<div class = ""response_question"">WAS THE IMAGE ROTATED...</div>","","4","","","6","8","bas","right","practice","true"
"966.1000000196509","","html-button-response","158","322555","0.0-6.0-0.8","46","","","0","","","","","","","",""
"null","","html-keyboard-response","159","322627","0.0-6.0-1.8","46","<p><img class= 'stimulus' src='images/baseline/hills 3.jpg'></img></p>","null","","1551404488892","","","","","","",""
"null","","html-keyboard-response","160","322727","0.0-6.0-2.8","46","<p><img class= 'stimulus' src='images/baseline/02982v.jpg'></img></p>","null","","1551404488991","","","","","","",""
"null","","html-keyboard-response","161","322827","0.0-6.0-3.8","46","<p><img class= 'stimulus' src='images/baseline/Sunset 5.jpg'></img></p>","null","","1551404489092","","","","","","",""
"null","","html-keyboard-response","162","322927","0.0-6.0-4.8","46","<p><img class= 'stimulus' src='images/baseline/house3.jpg'></img></p>","null","","1551404489191","4","","","","","",""
"null","","html-keyboard-response","163","323027","0.0-6.0-5.8","46","<p><img class= 'stimulus' src='images/baseline/landscape36.jpg'></img></p>","null","","1551404489291","","","","","","",""
"null","","html-keyboard-response","164","323127","0.0-6.0-6.8","46","<p><img class= 'stimulus' src='images/baseline/landscape11.jpg'></img></p>","null","","1551404489391","6","","","","","",""
"null","","html-keyboard-response","165","323228","0.0-6.0-7.8","46","<p><img class= 'stimulus' src='images/baseline/cyrillic.jpg'></img></p>","null","","1551404489492","","","","","","",""
"null","","html-keyboard-response","166","323328","0.0-6.0-8.8","46","<p><img class= 'stimulus' src='images/baseline/grand-teton-mountains.jpg'></img></p>","null","","1551404489591","8","","","","","",""
"null","","html-keyboard-response","167","323428","0.0-6.0-9.8","46","<p><img class= 'stimulus' src='images/baseline/05131v.jpg'></img></p>","null","","1551404489692","","","","","","",""
"null","","html-keyboard-response","168","323528","0.0-6.0-10.8","46","<p><img class= 'stimulus' src='images/baseline/04158v.jpg'></img></p>","null","","1551404489791","","","","","","",""
"null","","html-keyboard-response","169","323627","0.0-6.0-11.8","46","<p><img class= 'stimulus' src='images/baseline/__08_-_ITALY_-_Forli_under_snow_-_winter_landscape_of_city_(christmas).jpg'></img></p>","null","","1551404489891","","","","","","",""
"null","","html-keyboard-response","170","323728","0.0-6.0-12.8","46","<p><img class= 'stimulus left-rotate' src='images/target/cactus2.jpg'></img></p>","null","","1551404489991","12","","","","","",""
"null","","html-keyboard-response","171","323827","0.0-6.0-13.8","46","<p><img class= 'stimulus' src='images/baseline/05189v.jpg'></img></p>","null","","1551404490091","","","","","","",""
"null","","html-keyboard-response","172","323927","0.0-6.0-14.8","46","<p><img class= 'stimulus' src='images/baseline/04201v.jpg'></img></p>","null","","1551404490191","14","","","","","",""
"null","","html-keyboard-response","173","324027","0.0-6.0-15.8","46","<p><img class= 'stimulus' src='images/baseline/04193v.jpg'></img></p>","null","","1551404490291","","","","","","",""
"null","","html-keyboard-response","174","324127","0.0-6.0-16.8","46","<p><img class= 'stimulus' src='images/baseline/agriculture-bright-clouds-440731.jpg'></img></p>","null","","1551404490391","","","","","","",""
"null","","html-keyboard-response","175","324245","0.0-6.0-17.8","46","<p><img class= 'stimulus' src='images/baseline/Street 1.jpg'></img></p>","null","","1551404490491","","","","","","",""
"680.6999999680556","","html-button-response","176","325929","0.0-6.0-18.8","46","<div class = ""response_question"">WAS THE IMAGE ROTATED...</div>","","0","","","4","8","bas","left","practice","true"
"1526.5999999828637","","html-button-response","177","327457","0.0-6.0-0.9","46","","","0","","","","","","","",""
"null","","html-keyboard-response","178","327542","0.0-6.0-1.9","46","<p><img class= 'stimulus' src='images/baseline/meadow-with-mountain-in-background.jpg'></img></p>","null","","1551404493806","","","","","","",""
"null","","html-keyboard-response","179","327641","0.0-6.0-2.9","46","<p><img class= 'stimulus' src='images/baseline/farmhouse8.jpg'></img></p>","null","","1551404493905","","","","","","",""
"null","","html-keyboard-response","180","327741","0.0-6.0-3.9","46","<p><img class= 'stimulus' src='images/baseline/empire-state-building.jpg'></img></p>","null","","1551404494006","","","","","","",""
"null","","html-keyboard-response","181","327842","0.0-6.0-4.9","46","<p><img class= 'stimulus' src='images/baseline/Camping 10.jpg'></img></p>","null","","1551404494104","4","","","","","",""
"null","","html-keyboard-response","182","327941","0.0-6.0-5.9","46","<p><img class= 'stimulus' src='images/baseline/02960v.jpg'></img></p>","null","","1551404494205","","","","","","",""
"null","","html-keyboard-response","183","328041","0.0-6.0-6.9","46","<p><img class= 'stimulus left-rotate' src='images/target/pexels-photo-1102846.jpeg'></img></p>","null","","1551404494305","6","","","","","",""
"null","","html-keyboard-response","184","328141","0.0-6.0-7.9","46","<p><img class= 'stimulus' src='images/baseline/05247v.jpg'></img></p>","null","","1551404494405","","","","","","",""
"null","","html-keyboard-response","185","328241","0.0-6.0-8.9","46","<p><img class= 'stimulus' src='images/baseline/landscape17.jpg'></img></p>","null","","1551404494505","8","","","","","",""
"null","","html-keyboard-response","186","328342","0.0-6.0-9.9","46","<p><img class= 'stimulus' src='images/baseline/Skyscraper 1.jpg'></img></p>","null","","1551404494605","","","","","","",""
"null","","html-keyboard-response","187","328442","0.0-6.0-10.9","46","<p><img class= 'stimulus' src='images/baseline/farmhouse1.jpg'></img></p>","null","","1551404494706","","","","","","",""
"null","","html-keyboard-response","188","328541","0.0-6.0-11.9","46","<p><img class= 'stimulus' src='images/baseline/Sidewalk 4.jpg'></img></p>","null","","1551404494806","","","","","","",""
"null","","html-keyboard-response","189","328641","0.0-6.0-12.9","46","<p><img class= 'stimulus' src='images/baseline/landscape40.jpg'></img></p>","null","","1551404494905","12","","","","","",""
"null","","html-keyboard-response","190","328741","0.0-6.0-13.9","46","<p><img class= 'stimulus' src='images/baseline/field 4.jpg'></img></p>","null","","1551404495005","","","","","","",""
"null","","html-keyboard-response","191","328841","0.0-6.0-14.9","46","<p><img class= 'stimulus' src='images/baseline/pexels-photo-1054289.jpeg'></img></p>","null","","1551404495104","14","","","","","",""
"null","","html-keyboard-response","192","328942","0.0-6.0-15.9","46","<p><img class= 'stimulus' src='images/baseline/pexels-photo-568236.jpeg'></img></p>","null","","1551404495205","","","","","","",""
"null","","html-keyboard-response","193","329042","0.0-6.0-16.9","46","<p><img class= 'stimulus' src='images/baseline/building16.jpg'></img></p>","null","","1551404495305","","","","","","",""
"null","","html-keyboard-response","194","329159","0.0-6.0-17.9","46","<p><img class= 'stimulus' src='images/baseline/Sunset 6.jpg'></img></p>","null","","1551404495405","","","","","","",""
"942.0000000391155","","html-button-response","195","331105","0.0-6.0-18.9","46","<div class = ""response_question"">WAS THE IMAGE ROTATED...</div>","","5","","","4","2","bas","left","practice","false"
"1678.4000000334345","","html-button-response","196","332785","0.0-6.0-0.10","46","","","0","","","","","","","",""
"null","","html-keyboard-response","197","332859","0.0-6.0-1.10","46","<p><img class= 'stimulus' src='images/baseline/pexels-photo-280222.jpeg'></img></p>","null","","1551404499121","","","","","","",""
"null","","html-keyboard-response","198","332958","0.0-6.0-2.10","46","<p><img class= 'stimulus' src='images/baseline/red-rocks-park.jpg'></img></p>","null","","1551404499221","","","","","","",""
"null","","html-keyboard-response","199","333058","0.0-6.0-3.10","46","<p><img class= 'stimulus' src='images/baseline/04021v.jpg'></img></p>","null","","1551404499322","","","","","","",""
"null","","html-keyboard-response","200","333159","0.0-6.0-4.10","46","<p><img class= 'stimulus' src='images/baseline/Lake 16.jpg'></img></p>","null","","1551404499423","4","","","","","",""
"null","","html-keyboard-response","201","333258","0.0-6.0-5.10","46","<p><img class= 'stimulus' src='images/baseline/bird-flying-at-sunset.jpg'></img></p>","null","","1551404499523","","","","","","",""
"null","","html-keyboard-response","202","333357","0.0-6.0-6.10","46","<p><img class= 'stimulus' src='images/target/landscape20.jpg'></img></p>","null","","1551404499622","6","","","","","",""
"null","","html-keyboard-response","203","333458","0.0-6.0-7.10","46","<p><img class= 'stimulus' src='images/baseline/02977v.jpg'></img></p>","null","","1551404499723","","","","","","",""
"null","","html-keyboard-response","204","333558","0.0-6.0-8.10","46","<p><img class= 'stimulus' src='images/baseline/02947v.jpg'></img></p>","null","","1551404499822","8","","","","","",""
"null","","html-keyboard-response","205","333658","0.0-6.0-9.10","46","<p><img class= 'stimulus' src='images/baseline/Street 5.jpg'></img></p>","null","","1551404499922","","","","","","",""
"null","","html-keyboard-response","206","333759","0.0-6.0-10.10","46","<p><img class= 'stimulus' src='images/baseline/03220v.jpg'></img></p>","null","","1551404500022","","","","","","",""
"null","","html-keyboard-response","207","333858","0.0-6.0-11.10","46","<p><img class= 'stimulus' src='images/baseline/05252v.jpg'></img></p>","null","","1551404500122","","","","","","",""
"null","","html-keyboard-response","208","333958","0.0-6.0-12.10","46","<p><img class= 'stimulus' src='images/baseline/03041v.jpg'></img></p>","null","","1551404500222","12","","","","","",""
"null","","html-keyboard-response","209","334058","0.0-6.0-13.10","46","<p><img class= 'stimulus' src='images/baseline/Nature 2.jpg'></img></p>","null","","1551404500322","","","","","","",""
"null","","html-keyboard-response","210","334158","0.0-6.0-14.10","46","<p><img class= 'stimulus' src='images/baseline/05255v.jpg'></img></p>","null","","1551404500422","14","","","","","",""
"null","","html-keyboard-response","211","334259","0.0-6.0-15.10","46","<p><img class= 'stimulus' src='images/baseline/lookout_tower.jpg'></img></p>","null","","1551404500522","","","","","","",""
"null","","html-keyboard-response","212","334358","0.0-6.0-16.10","46","<p><img class= 'stimulus' src='images/baseline/Desert_View_Indian_Wells.jpg'></img></p>","null","","1551404500621","","","","","","",""
"null","","html-keyboard-response","213","334475","0.0-6.0-17.10","46","<p><img class= 'stimulus' src='images/baseline/05279v.jpg'></img></p>","null","","1551404500722","","","","","","",""
"1339.6000000066124","","html-button-response","214","336817","0.0-6.0-18.10","46","<div class = ""response_question"">WAS THE IMAGE ROTATED...</div>","","3","","","4","2","bas","right","practice","true"
"1390.2000000234693","","html-button-response","215","338209","0.0-6.0-0.11","46","","","0","","","","","","","",""
"null","","html-keyboard-response","216","338292","0.0-6.0-1.11","46","<p><img class= 'stimulus' src='images/baseline/building8.jpg'></img></p>","null","","1551404504555","","","","","","",""
"null","","html-keyboard-response","217","338391","0.0-6.0-2.11","46","<p><img class= 'stimulus' src='images/baseline/03063v.jpg'></img></p>","null","","1551404504656","","","","","","",""
"null","","html-keyboard-response","218","338491","0.0-6.0-3.11","46","<p><img class= 'stimulus' src='images/baseline/Path 1.jpg'></img></p>","null","","1551404504754","","","","","","",""
"null","","html-keyboard-response","219","338591","0.0-6.0-4.11","46","<p><img class= 'stimulus' src='images/baseline/pexels-photo-210617.jpeg'></img></p>","null","","1551404504855","4","","","","","",""
"null","","html-keyboard-response","220","338692","0.0-6.0-5.11","46","<p><img class= 'stimulus' src='images/baseline/pexels-photo-1840893.jpeg'></img></p>","null","","1551404504956","","","","","","",""
"null","","html-keyboard-response","221","338792","0.0-6.0-6.11","46","<p><img class= 'stimulus' src='images/baseline/farmhouse4.jpg'></img></p>","null","","1551404505055","6","","","","","",""
"null","","html-keyboard-response","222","338892","0.0-6.0-7.11","46","<p><img class= 'stimulus' src='images/baseline/03201v.jpg'></img></p>","null","","1551404505154","","","","","","",""
"null","","html-keyboard-response","223","338992","0.0-6.0-8.11","46","<p><img class= 'stimulus' src='images/baseline/building12.jpg'></img></p>","null","","1551404505255","8","","","","","",""
"null","","html-keyboard-response","224","339092","0.0-6.0-9.11","46","<p><img class= 'stimulus' src='images/baseline/pexels-photo-1048039.jpeg'></img></p>","null","","1551404505355","","","","","","",""
"null","","html-keyboard-response","225","339191","0.0-6.0-10.11","46","<p><img class= 'stimulus' src='images/baseline/farmhouse2.jpg'></img></p>","null","","1551404505454","","","","","","",""
"null","","html-keyboard-response","226","339291","0.0-6.0-11.11","46","<p><img class= 'stimulus' src='images/baseline/architecture-956332_1280.jpg'></img></p>","null","","1551404505555","","","","","","",""
"null","","html-keyboard-response","227","339393","0.0-6.0-12.11","46","<p><img class= 'stimulus' src='images/target/9525-a-lonely-single-tree-in-a-field-pv.jpg'></img></p>","null","","1551404505655","12","","","","","",""
"null","","html-keyboard-response","228","339491","0.0-6.0-13.11","46","<p><img class= 'stimulus' src='images/baseline/building2.jpg'></img></p>","null","","1551404505755","","","","","","",""
"null","","html-keyboard-response","229","339592","0.0-6.0-14.11","46","<p><img class= 'stimulus' src='images/baseline/04062v.jpg'></img></p>","null","","1551404505857","14","","","","","",""
"null","","html-keyboard-response","230","339692","0.0-6.0-15.11","46","<p><img class= 'stimulus' src='images/baseline/05280v.jpg'></img></p>","null","","1551404505954","","","","","","",""
"null","","html-keyboard-response","231","339792","0.0-6.0-16.11","46","<p><img class= 'stimulus' src='images/baseline/landscape3.jpg'></img></p>","null","","1551404506055","","","","","","",""
"null","","html-keyboard-response","232","339909","0.0-6.0-17.11","46","<p><img class= 'stimulus' src='images/baseline/landscape16.jpg'></img></p>","null","","1551404506156","","","","","","",""
"751.8000000272878","","html-button-response","233","341665","0.0-6.0-18.11","46","<div class = ""response_question"">WAS THE IMAGE ROTATED...</div>","","3","","","4","8","bas","right","practice","true"
"2958.2999999984168","","html-button-response","234","344625","0.0-6.0-0.12","46","","","0","","","","","","","",""
"null","","html-keyboard-response","235","344708","0.0-6.0-1.12","46","<p><img class= 'stimulus' src='images/baseline/Bahia_Onelli_Parque_Nacional_Los_Glaciares_Patagonia_Argentina_Luca_Galuzzi_2005.jpg'></img></p>","null","","1551404510971","","","","","","",""
"null","","html-keyboard-response","236","344808","0.0-6.0-2.12","46","<p><img class= 'stimulus' src='images/baseline/Lake 13.jpg'></img></p>","null","","1551404511071","","","","","","",""
"null","","html-keyboard-response","237","344909","0.0-6.0-3.12","46","<p><img class= 'stimulus' src='images/baseline/landscape29.jpg'></img></p>","null","","1551404511172","","","","","","",""
"null","","html-keyboard-response","238","345008","0.0-6.0-4.12","46","<p><img class= 'stimulus' src='images/baseline/landscape13.jpg'></img></p>","null","","1551404511273","4","","","","","",""
"null","","html-keyboard-response","239","345108","0.0-6.0-5.12","46","<p><img class= 'stimulus' src='images/baseline/Nature 1.jpg'></img></p>","null","","1551404511372","","","","","","",""
"null","","html-keyboard-response","240","345209","0.0-6.0-6.12","46","<p><img class= 'stimulus' src='images/baseline/hills 1.jpg'></img></p>","null","","1551404511471","6","","","","","",""
"null","","html-keyboard-response","241","345308","0.0-6.0-7.12","46","<p><img class= 'stimulus' src='images/baseline/flooded-bridge.jpg'></img></p>","null","","1551404511573","","","","","","",""
"null","","html-keyboard-response","242","345408","0.0-6.0-8.12","46","<p><img class= 'stimulus' src='images/baseline/lake 2.jpg'></img></p>","null","","1551404511672","8","","","","","",""
"null","","html-keyboard-response","243","345508","0.0-6.0-9.12","46","<p><img class= 'stimulus' src='images/baseline/building3.jpg'></img></p>","null","","1551404511772","","","","","","",""
"null","","html-keyboard-response","244","345609","0.0-6.0-10.12","46","<p><img class= 'stimulus' src='images/baseline/autumn-in-red-rocks-park.jpg'></img></p>","null","","1551404511872","","","","","","",""
"null","","html-keyboard-response","245","345708","0.0-6.0-11.12","46","<p><img class= 'stimulus' src='images/baseline/field 2.jpg'></img></p>","null","","1551404511973","","","","","","",""
"null","","html-keyboard-response","246","345808","0.0-6.0-12.12","46","<p><img class= 'stimulus' src='images/baseline/pexels-photo-1287089.jpeg'></img></p>","null","","1551404512073","12","","","","","",""
"null","","html-keyboard-response","247","345908","0.0-6.0-13.12","46","<p><img class= 'stimulus' src='images/baseline/Paysage_enneige_02.jpg'></img></p>","null","","1551404512171","","","","","","",""
"null","","html-keyboard-response","248","346008","0.0-6.0-14.12","46","<p><img class= 'stimulus left-rotate' src='images/target/building3.jpg'></img></p>","null","","1551404512272","14","","","","","",""
"null","","html-keyboard-response","249","346109","0.0-6.0-15.12","46","<p><img class= 'stimulus' src='images/baseline/pexels-photo-459203.jpeg'></img></p>","null","","1551404512371","","","","","","",""
"null","","html-keyboard-response","250","346208","0.0-6.0-16.12","46","<p><img class= 'stimulus' src='images/baseline/Cold 7.jpg'></img></p>","null","","1551404512472","","","","","","",""
"null","","html-keyboard-response","251","346325","0.0-6.0-17.12","46","<p><img class= 'stimulus' src='images/baseline/05198v.jpg'></img></p>","null","","1551404512572","","","","","","",""
"1655.1999999792315","","html-button-response","252","348985","0.0-6.0-18.12","46","<div class = ""response_question"">WAS THE IMAGE ROTATED...</div>","","1","","","6","8","bas","left","practice","true"
"2166.4999999920838","","html-button-response","253","351153","0.0-6.0-0.13","46","","","0","","","","","","","",""
"null","","html-keyboard-response","254","351225","0.0-6.0-1.13","46","<p><img class= 'stimulus' src='images/baseline/landscape34.jpg'></img></p>","null","","1551404517488","","","","","","",""
"null","","html-keyboard-response","255","351325","0.0-6.0-2.13","46","<p><img class= 'stimulus' src='images/baseline/03066v.jpg'></img></p>","null","","1551404517590","","","","","","",""
"null","","html-keyboard-response","256","351425","0.0-6.0-3.13","46","<p><img class= 'stimulus' src='images/baseline/farmhouse7.jpg'></img></p>","null","","1551404517688","","","","","","",""
"null","","html-keyboard-response","257","351526","0.0-6.0-4.13","46","<p><img class= 'stimulus' src='images/baseline/02988v.jpg'></img></p>","null","","1551404517790","4","","","","","",""
"null","","html-keyboard-response","258","351625","0.0-6.0-5.13","46","<p><img class= 'stimulus' src='images/baseline/03098v.jpg'></img></p>","null","","1551404517888","","","","","","",""
"null","","html-keyboard-response","259","351726","0.0-6.0-6.13","46","<p><img class= 'stimulus' src='images/baseline/Happy pose 3.jpg'></img></p>","null","","1551404517988","6","","","","","",""
"null","","html-keyboard-response","260","351826","0.0-6.0-7.13","46","<p><img class= 'stimulus' src='images/baseline/05292v.jpg'></img></p>","null","","1551404518089","","","","","","",""
"null","","html-keyboard-response","261","351925","0.0-6.0-8.13","46","<p><img class= 'stimulus' src='images/baseline/house1.jpg'></img></p>","null","","1551404518189","8","","","","","",""
"null","","html-keyboard-response","262","352025","0.0-6.0-9.13","46","<p><img class= 'stimulus' src='images/baseline/Aletschgletscher-Eggishorn.jpg'></img></p>","null","","1551404518289","","","","","","",""
"null","","html-keyboard-response","263","352125","0.0-6.0-10.13","46","<p><img class= 'stimulus' src='images/baseline/Lake 5.jpg'></img></p>","null","","1551404518388","","","","","","",""
"null","","html-keyboard-response","264","352225","0.0-6.0-11.13","46","<p><img class= 'stimulus' src='images/baseline/Lake 4.jpg'></img></p>","null","","1551404518489","","","","","","",""
"null","","html-keyboard-response","265","352325","0.0-6.0-12.13","46","<p><img class= 'stimulus' src='images/baseline/03180v.jpg'></img></p>","null","","1551404518589","12","","","","","",""
"null","","html-keyboard-response","266","352425","0.0-6.0-13.13","46","<p><img class= 'stimulus' src='images/baseline/farmhouse11.jpg'></img></p>","null","","1551404518689","","","","","","",""
"null","","html-keyboard-response","267","352525","0.0-6.0-14.13","46","<p><img class= 'stimulus' src='images/target/petronas-towers-433081_1920.jpg'></img></p>","null","","1551404518788","14","","","","","",""
"null","","html-keyboard-response","268","352626","0.0-6.0-15.13","46","<p><img class= 'stimulus' src='images/baseline/Dock 1.jpg'></img></p>","null","","1551404518889","","","","","","",""
"null","","html-keyboard-response","269","352725","0.0-6.0-16.13","46","<p><img class= 'stimulus' src='images/baseline/05139v.jpg'></img></p>","null","","1551404518989","","","","","","",""
"null","","html-keyboard-response","270","352842","0.0-6.0-17.13","46","<p><img class= 'stimulus' src='images/baseline/05158v.jpg'></img></p>","null","","1551404519089","","","","","","",""
"1761.899999983143","","html-button-response","271","355610","0.0-6.0-18.13","46","<div class = ""response_question"">WAS THE IMAGE ROTATED...</div>","","4","","","6","8","bas","right","practice","true"
"1421.3999999919906","","html-button-response","272","357033","0.0-6.0-0.14","46","","","0","","","","","","","",""
"null","","html-keyboard-response","273","357108","0.0-6.0-1.14","46","<p><img class= 'stimulus' src='images/baseline/pexels-photo-1261728.jpeg'></img></p>","null","","1551404523372","","","","","","",""
"null","","html-keyboard-response","274","357209","0.0-6.0-2.14","46","<p><img class= 'stimulus' src='images/baseline/pexels-photo-894312.jpeg'></img></p>","null","","1551404523472","","","","","","",""
"null","","html-keyboard-response","275","357308","0.0-6.0-3.14","46","<p><img class= 'stimulus' src='images/baseline/seoul-410266_1920.jpg'></img></p>","null","","1551404523571","","","","","","",""
"null","","html-keyboard-response","276","357408","0.0-6.0-4.14","46","<p><img class= 'stimulus' src='images/baseline/03204v.jpg'></img></p>","null","","1551404523671","4","","","","","",""
"null","","html-keyboard-response","277","357509","0.0-6.0-5.14","46","<p><img class= 'stimulus' src='images/baseline/building6.jpg'></img></p>","null","","1551404523771","","","","","","",""
"null","","html-keyboard-response","278","357609","0.0-6.0-6.14","46","<p><img class= 'stimulus' src='images/baseline/04196v.jpg'></img></p>","null","","1551404523872","6","","","","","",""
"null","","html-keyboard-response","279","357709","0.0-6.0-7.14","46","<p><img class= 'stimulus' src='images/baseline/Waterfall 1.jpg'></img></p>","null","","1551404523971","","","","","","",""
"null","","html-keyboard-response","280","357809","0.0-6.0-8.14","46","<p><img class= 'stimulus' src='images/target/adventure-desert-landscape-6778.jpg'></img></p>","null","","1551404524072","8","","","","","",""
"null","","html-keyboard-response","281","357908","0.0-6.0-9.14","46","<p><img class= 'stimulus' src='images/baseline/Street 2.jpg'></img></p>","null","","1551404524172","","","","","","",""
"null","","html-keyboard-response","282","358009","0.0-6.0-10.14","46","<p><img class= 'stimulus' src='images/baseline/Grass 6.jpg'></img></p>","null","","1551404524273","","","","","","",""
"null","","html-keyboard-response","283","358108","0.0-6.0-11.14","46","<p><img class= 'stimulus' src='images/baseline/05167v.jpg'></img></p>","null","","1551404524373","","","","","","",""
"null","","html-keyboard-response","284","358208","0.0-6.0-12.14","46","<p><img class= 'stimulus' src='images/baseline/Bridge 1.jpg'></img></p>","null","","1551404524472","12","","","","","",""
"null","","html-keyboard-response","285","358308","0.0-6.0-13.14","46","<p><img class= 'stimulus' src='images/baseline/05240v.jpg'></img></p>","null","","1551404524571","","","","","","",""
"null","","html-keyboard-response","286","358408","0.0-6.0-14.14","46","<p><img class= 'stimulus' src='images/baseline/03217v.jpg'></img></p>","null","","1551404524672","14","","","","","",""
"null","","html-keyboard-response","287","358508","0.0-6.0-15.14","46","<p><img class= 'stimulus' src='images/baseline/farmhouse6.jpg'></img></p>","null","","1551404524771","","","","","","",""
"null","","html-keyboard-response","288","358609","0.0-6.0-16.14","46","<p><img class= 'stimulus' src='images/baseline/foreclosed_home.jpg'></img></p>","null","","1551404524873","","","","","","",""
"null","","html-keyboard-response","289","358726","0.0-6.0-17.14","46","<p><img class= 'stimulus' src='images/baseline/03148v.jpg'></img></p>","null","","1551404524973","","","","","","",""
"1134.9000000045635","","html-button-response","290","360865","0.0-6.0-18.14","46","<div class = ""response_question"">WAS THE IMAGE ROTATED...</div>","","3","","","6","2","bas","right","practice","true"
"1206.400000024587","","html-button-response","291","362073","0.0-6.0-0.15","46","","","0","","","","","","","",""
"null","","html-keyboard-response","292","362160","0.0-6.0-1.15","46","<p><img class= 'stimulus' src='images/baseline/landscape31.jpg'></img></p>","null","","1551404528421","","","","","","",""
"null","","html-keyboard-response","293","362259","0.0-6.0-2.15","46","<p><img class= 'stimulus' src='images/baseline/05145v.jpg'></img></p>","null","","1551404528521","","","","","","",""
"null","","html-keyboard-response","294","362359","0.0-6.0-3.15","46","<p><img class= 'stimulus' src='images/baseline/chicago-skyline-at-night-1476869511p8U.jpg'></img></p>","null","","1551404528622","","","","","","",""
"null","","html-keyboard-response","295","362458","0.0-6.0-4.15","46","<p><img class= 'stimulus' src='images/baseline/04060v.jpg'></img></p>","null","","1551404528722","4","","","","","",""
"null","","html-keyboard-response","296","362559","0.0-6.0-5.15","46","<p><img class= 'stimulus' src='images/baseline/landscape23.jpg'></img></p>","null","","1551404528822","","","","","","",""
"null","","html-keyboard-response","297","362658","0.0-6.0-6.15","46","<p><img class= 'stimulus' src='images/baseline/town-square-in-wroclaw-1539098440MZy.jpg'></img></p>","null","","1551404528922","6","","","","","",""
"null","","html-keyboard-response","298","362758","0.0-6.0-7.15","46","<p><img class= 'stimulus' src='images/baseline/04063v.jpg'></img></p>","null","","1551404529022","","","","","","",""
"null","","html-keyboard-response","299","362859","0.0-6.0-8.15","46","<p><img class= 'stimulus left-rotate' src='images/target/landscape_1.jpg'></img></p>","null","","1551404529123","8","","","","","",""
"null","","html-keyboard-response","300","362958","0.0-6.0-9.15","46","<p><img class= 'stimulus' src='images/baseline/pexels-photo-351264.jpeg'></img></p>","null","","1551404529222","","","","","","",""
"null","","html-keyboard-response","301","363059","0.0-6.0-10.15","46","<p><img class= 'stimulus' src='images/baseline/04117v.jpg'></img></p>","null","","1551404529323","","","","","","",""
"null","","html-keyboard-response","302","363158","0.0-6.0-11.15","46","<p><img class= 'stimulus' src='images/baseline/road.jpg'></img></p>","null","","1551404529423","","","","","","",""
"null","","html-keyboard-response","303","363258","0.0-6.0-12.15","46","<p><img class= 'stimulus' src='images/baseline/pexels-photo-221125.jpeg'></img></p>","null","","1551404529521","12","","","","","",""
"null","","html-keyboard-response","304","363358","0.0-6.0-13.15","46","<p><img class= 'stimulus' src='images/baseline/Sunset 3.jpg'></img></p>","null","","1551404529621","","","","","","",""
"null","","html-keyboard-response","305","363459","0.0-6.0-14.15","46","<p><img class= 'stimulus' src='images/baseline/hills 4.jpg'></img></p>","null","","1551404529723","14","","","","","",""
"null","","html-keyboard-response","306","363559","0.0-6.0-15.15","46","<p><img class= 'stimulus' src='images/baseline/scenic-mountain-landscape.jpg'></img></p>","null","","1551404529821","","","","","","",""
"null","","html-keyboard-response","307","363659","0.0-6.0-16.15","46","<p><img class= 'stimulus' src='images/baseline/grand-teton-mountains.jpg'></img></p>","null","","1551404529922","","","","","","",""
"null","","html-keyboard-response","308","363775","0.0-6.0-17.15","46","<p><img class= 'stimulus' src='images/baseline/Nature 2.jpg'></img></p>","null","","1551404530022","","","","","","",""
"955.6999999913387","","html-button-response","309","365737","0.0-6.0-18.15","46","<div class = ""response_question"">WAS THE IMAGE ROTATED...</div>","","1","","","6","2","bas","left","practice","true"
"50942.7999999607","","html-button-response","310","416683","0.0-7.0","46","<p>You have now completed the practice phase. We will now begin the real trials.         This is a reminder that you will be searching for a rotated image among the series of upright images.</p>         <p>Remember, please do not blink or move your eyes while the images are on the screen.</p>         <p>At the end of the experiment, the experimenter will be able to show you how accurate you were.</p>","","0","","","","","","","",""
"3398.5000000102445","","html-button-response","311","420082","0.0-8.0-0.0-0.0","46","","","0","","","","","","","",""
"null","","html-keyboard-response","312","420161","0.0-8.0-0.0-1.0","46","<p><img class= 'stimulus' src='images/baseline/05186v.jpg'></img></p>","null","","1551404586424","","","","","","",""
"null","","html-keyboard-response","313","420261","0.0-8.0-0.0-2.0","46","<p><img class= 'stimulus' src='images/baseline/Sky 1.jpg'></img></p>","null","","1551404586524","","","","","","",""
"null","","html-keyboard-response","314","420361","0.0-8.0-0.0-3.0","46","<p><img class= 'stimulus' src='images/baseline/architecture-1314416_1920.jpg'></img></p>","null","","1551404586624","","","","","","",""
"null","","html-keyboard-response","315","420463","0.0-8.0-0.0-4.0","46","<p><img class= 'stimulus' src='images/baseline/building9.jpg'></img></p>","null","","1551404586725","4","","","","","",""
"null","","html-keyboard-response","316","420561","0.0-8.0-0.0-5.0","46","<p><img class= 'stimulus' src='images/baseline/lake3.jpg'></img></p>","null","","1551404586824","","","","","","",""
"null","","html-keyboard-response","317","420660","0.0-8.0-0.0-6.0","46","<p><img class= 'stimulus' src='images/baseline/snowy tree.jpg'></img></p>","null","","1551404586924","6","","","","","",""
"null","","html-keyboard-response","318","420761","0.0-8.0-0.0-7.0","46","<p><img class= 'stimulus' src='images/baseline/building6.jpg'></img></p>","null","","1551404587024","","","","","","",""
"null","","html-keyboard-response","319","420861","0.0-8.0-0.0-8.0","46","<p><img class= 'stimulus' src='images/baseline/house2.jpg'></img></p>","null","","1551404587124","8","","","","","",""
"null","","html-keyboard-response","320","420961","0.0-8.0-0.0-9.0","46","<p><img class= 'stimulus' src='images/baseline/02977v.jpg'></img></p>","null","","1551404587226","","","","","","",""
"null","","html-keyboard-response","321","421061","0.0-8.0-0.0-10.0","46","<p><img class= 'stimulus' src='images/baseline/05303v.jpg'></img></p>","null","","1551404587324","","","","","","",""
"null","","html-keyboard-response","322","421161","0.0-8.0-0.0-11.0","46","<p><img class= 'stimulus' src='images/baseline/tennis-court-net-buried-in-snow.jpg'></img></p>","null","","1551404587425","","","","","","",""
"null","","html-keyboard-response","323","421261","0.0-8.0-0.0-12.0","46","<p><img class= 'stimulus' src='images/baseline/hills 1.jpg'></img></p>","null","","1551404587525","12","","","","","",""
"null","","html-keyboard-response","324","421361","0.0-8.0-0.0-13.0","46","<p><img class= 'stimulus' src='images/baseline/landscape8.jpg'></img></p>","null","","1551404587624","","","","","","",""
"null","","html-keyboard-response","325","421461","0.0-8.0-0.0-14.0","46","<p><img class= 'stimulus' src='images/baseline/building2.jpg'></img></p>","null","","1551404587726","14","","","","","",""
"null","","html-keyboard-response","326","421561","0.0-8.0-0.0-15.0","46","<p><img class= 'stimulus' src='images/baseline/Bahia_Onelli_Parque_Nacional_Los_Glaciares_Patagonia_Argentina_Luca_Galuzzi_2005.jpg'></img></p>","null","","1551404587824","","","","","","",""
"null","","html-keyboard-response","327","421661","0.0-8.0-0.0-16.0","46","<p><img class= 'stimulus' src='images/baseline/valley 2.jpg'></img></p>","null","","1551404587924","","","","","","",""
"null","","html-keyboard-response","328","421777","0.0-8.0-0.0-17.0","46","<p><img class= 'stimulus' src='images/baseline/Street 2.jpg'></img></p>","null","","1551404588025","","","","","","",""
"3883.1999999820255","","html-button-response","329","426667","0.0-8.0-0.0-18.0","46","<div class = ""response_question"">WAS THE IMAGE ROTATED...</div>","","5","","","null","null","null","null","test","null"
"1918.100000009872","","html-button-response","330","428587","0.0-8.0-0.0-0.1","46","","","0","","","","","","","",""
"null","","html-keyboard-response","331","428661","0.0-8.0-0.0-1.1","46","<p><img class= 'stimulus' src='images/baseline/landscape4.jpg'></img></p>","null","","1551404594925","","","","","","",""
"null","","html-keyboard-response","332","428761","0.0-8.0-0.0-2.1","46","<p><img class= 'stimulus' src='images/baseline/04040v.jpg'></img></p>","null","","1551404595025","","","","","","",""
"null","","html-keyboard-response","333","428862","0.0-8.0-0.0-3.1","46","<p><img class= 'stimulus' src='images/baseline/lake 2.jpg'></img></p>","null","","1551404595126","","","","","","",""
"null","","html-keyboard-response","334","428962","0.0-8.0-0.0-4.1","46","<p><img class= 'stimulus' src='images/baseline/pexels-photo-221125.jpeg'></img></p>","null","","1551404595225","4","","","","","",""
"null","","html-keyboard-response","335","429061","0.0-8.0-0.0-5.1","46","<p><img class= 'stimulus' src='images/baseline/04222v.jpg'></img></p>","null","","1551404595326","","","","","","",""
"null","","html-keyboard-response","336","429161","0.0-8.0-0.0-6.1","46","<p><img class= 'stimulus' src='images/negative/Shark 7.jpg'></img></p>","null","","1551404595425","6","","","","","",""
"null","","html-keyboard-response","337","429262","0.0-8.0-0.0-7.1","46","<p><img class= 'stimulus' src='images/baseline/05139v.jpg'></img></p>","null","","1551404595524","","","","","","",""
"null","","html-keyboard-response","338","429361","0.0-8.0-0.0-8.1","46","<p><img class= 'stimulus' src='images/target/building1.jpg'></img></p>","null","","1551404595626","8","","","","","",""
"null","","html-keyboard-response","339","429461","0.0-8.0-0.0-9.1","46","<p><img class= 'stimulus' src='images/baseline/landscape2.jpg'></img></p>","null","","1551404595725","","","","","","",""
"null","","html-keyboard-response","340","429561","0.0-8.0-0.0-10.1","46","<p><img class= 'stimulus' src='images/baseline/Peyto_Lake-Banff_NP-Canada.jpg'></img></p>","null","","1551404595824","","","","","","",""
"null","","html-keyboard-response","341","429661","0.0-8.0-0.0-11.1","46","<p><img class= 'stimulus' src='images/baseline/04031v.jpg'></img></p>","null","","1551404595924","","","","","","",""
"null","","html-keyboard-response","342","429761","0.0-8.0-0.0-12.1","46","<p><img class= 'stimulus' src='images/baseline/02947v.jpg'></img></p>","null","","1551404596024","12","","","","","",""
"null","","html-keyboard-response","343","429861","0.0-8.0-0.0-13.1","46","<p><img class= 'stimulus' src='images/baseline/Nature 1.jpg'></img></p>","null","","1551404596126","","","","","","",""
"null","","html-keyboard-response","344","429961","0.0-8.0-0.0-14.1","46","<p><img class= 'stimulus' src='images/baseline/04085v.jpg'></img></p>","null","","1551404596226","14","","","","","",""
"null","","html-keyboard-response","345","430061","0.0-8.0-0.0-15.1","46","<p><img class= 'stimulus' src='images/baseline/landscape16.jpg'></img></p>","null","","1551404596325","","","","","","",""
"null","","html-keyboard-response","346","430161","0.0-8.0-0.0-16.1","46","<p><img class= 'stimulus' src='images/baseline/03045v.jpg'></img></p>","null","","1551404596426","","","","","","",""
"null","","html-keyboard-response","347","430278","0.0-8.0-0.0-17.1","46","<p><img class= 'stimulus' src='images/baseline/04063v.jpg'></img></p>","null","","1551404596524","","","","","","",""
"1378.2999999821186","","html-button-response","348","432659","0.0-8.0-0.0-18.1","46","<div class = ""response_question"">WAS THE IMAGE ROTATED...</div>","","3","","","6","2","neg","right","test","true"
"1454.3999999877997","","html-button-response","349","434114","0.0-8.0-0.0-0.2","46","","","0","","","","","","","",""
"null","","html-keyboard-response","350","434195","0.0-8.0-0.0-1.2","46","<p><img class= 'stimulus' src='images/baseline/Skyscraper 1.jpg'></img></p>","null","","1551404600458","","","","","","",""
"null","","html-keyboard-response","351","434294","0.0-8.0-0.0-2.2","46","<p><img class= 'stimulus' src='images/baseline/dirt-road-or-trail-through-park.jpg'></img></p>","null","","1551404600559","","","","","","",""
"null","","html-keyboard-response","352","434394","0.0-8.0-0.0-3.2","46","<p><img class= 'stimulus' src='images/baseline/05145v.jpg'></img></p>","null","","1551404600660","","","","","","",""
"null","","html-keyboard-response","353","434494","0.0-8.0-0.0-4.2","46","<p><img class= 'stimulus' src='images/baseline/04229v.jpg'></img></p>","null","","1551404600757","4","","","","","",""
"null","","html-keyboard-response","354","434595","0.0-8.0-0.0-5.2","46","<p><img class= 'stimulus' src='images/baseline/04010v.jpg'></img></p>","null","","1551404600858","","","","","","",""
"null","","html-keyboard-response","355","434694","0.0-8.0-0.0-6.2","46","<p><img class= 'stimulus' src='images/baseline/house10.jpg'></img></p>","null","","1551404600957","6","","","","","",""
"null","","html-keyboard-response","356","434795","0.0-8.0-0.0-7.2","46","<p><img class= 'stimulus' src='images/baseline/city-silhouette-at-sunset-871291580819Esw.jpg'></img></p>","null","","1551404601057","","","","","","",""
"null","","html-keyboard-response","357","434895","0.0-8.0-0.0-8.2","46","<p><img class= 'stimulus' src='images/baseline/04193v.jpg'></img></p>","null","","1551404601158","8","","","","","",""
"null","","html-keyboard-response","358","434995","0.0-8.0-0.0-9.2","46","<p><img class= 'stimulus' src='images/baseline/05279v.jpg'></img></p>","null","","1551404601258","","","","","","",""
"null","","html-keyboard-response","359","435095","0.0-8.0-0.0-10.2","46","<p><img class= 'stimulus' src='images/baseline/Path 1.jpg'></img></p>","null","","1551404601358","","","","","","",""
"null","","html-keyboard-response","360","435194","0.0-8.0-0.0-11.2","46","<p><img class= 'stimulus' src='images/baseline/landscape40.jpg'></img></p>","null","","1551404601459","","","","","","",""
"null","","html-keyboard-response","361","435295","0.0-8.0-0.0-12.2","46","<p><img class= 'stimulus' src='images/baseline/road 1(1).jpg'></img></p>","null","","1551404601559","12","","","","","",""
"null","","html-keyboard-response","362","435394","0.0-8.0-0.0-13.2","46","<p><img class= 'stimulus' src='images/baseline/pexels-photo-210617.jpeg'></img></p>","null","","1551404601659","","","","","","",""
"null","","html-keyboard-response","363","435494","0.0-8.0-0.0-14.2","46","<p><img class= 'stimulus' src='images/baseline/Camping 10.jpg'></img></p>","null","","1551404601759","14","","","","","",""
"null","","html-keyboard-response","364","435594","0.0-8.0-0.0-15.2","46","<p><img class= 'stimulus' src='images/baseline/Dirt 2.jpg'></img></p>","null","","1551404601857","","","","","","",""
"null","","html-keyboard-response","365","435694","0.0-8.0-0.0-16.2","46","<p><img class= 'stimulus' src='images/baseline/architecture_modern_architecture_852928.jpg'></img></p>","null","","1551404601957","","","","","","",""
"null","","html-keyboard-response","366","435813","0.0-8.0-0.0-17.2","46","<p><img class= 'stimulus' src='images/baseline/04196v.jpg'></img></p>","null","","1551404602058","","","","","","",""
"905.4999999934807","","html-button-response","367","437723","0.0-8.0-0.0-18.2","46","<div class = ""response_question"">WAS THE IMAGE ROTATED...</div>","","2","","","null","null","null","null","test","null"
"1934.7999999881722","","html-button-response","368","439660","0.0-8.0-0.0-0.3","46","","","0","","","","","","","",""
"null","","html-keyboard-response","369","439744","0.0-8.0-0.0-1.3","46","<p><img class= 'stimulus' src='images/baseline/03098v.jpg'></img></p>","null","","1551404606008","","","","","","",""
"null","","html-keyboard-response","370","439845","0.0-8.0-0.0-2.3","46","<p><img class= 'stimulus' src='images/baseline/agriculture-bright-clouds-440731.jpg'></img></p>","null","","1551404606108","","","","","","",""
"null","","html-keyboard-response","371","439944","0.0-8.0-0.0-3.3","46","<p><img class= 'stimulus' src='images/baseline/pexels-photo-280222.jpeg'></img></p>","null","","1551404606208","","","","","","",""
"null","","html-keyboard-response","372","440045","0.0-8.0-0.0-4.3","46","<p><img class= 'stimulus' src='images/baseline/Lake 13.jpg'></img></p>","null","","1551404606309","4","","","","","",""
"null","","html-keyboard-response","373","440145","0.0-8.0-0.0-5.3","46","<p><img class= 'stimulus' src='images/baseline/Dock 1.jpg'></img></p>","null","","1551404606408","","","","","","",""
"null","","html-keyboard-response","374","440244","0.0-8.0-0.0-6.3","46","<p><img class= 'stimulus' src='images/neutral/neutral (1).jpg'></img></p>","null","","1551404606509","6","","","","","",""
"null","","html-keyboard-response","375","440346","0.0-8.0-0.0-7.3","46","<p><img class= 'stimulus' src='images/baseline/pexels-photo-440731.jpeg'></img></p>","null","","1551404606608","","","","","","",""
"null","","html-keyboard-response","376","440445","0.0-8.0-0.0-8.3","46","<p><img class= 'stimulus' src='images/baseline/vintage-art-deco-storefront.jpg'></img></p>","null","","1551404606708","8","","","","","",""
"null","","html-keyboard-response","377","440544","0.0-8.0-0.0-9.3","46","<p><img class= 'stimulus' src='images/baseline/Street 1.jpg'></img></p>","null","","1551404606809","","","","","","",""
"null","","html-keyboard-response","378","440645","0.0-8.0-0.0-10.3","46","<p><img class= 'stimulus' src='images/baseline/05189v.jpg'></img></p>","null","","1551404606908","","","","","","",""
"null","","html-keyboard-response","379","440744","0.0-8.0-0.0-11.3","46","<p><img class= 'stimulus' src='images/baseline/03075v.jpg'></img></p>","null","","1551404607009","","","","","","",""
"null","","html-keyboard-response","380","440845","0.0-8.0-0.0-12.3","46","<p><img class= 'stimulus' src='images/baseline/Sidewalk 4.jpg'></img></p>","null","","1551404607108","12","","","","","",""
"null","","html-keyboard-response","381","440944","0.0-8.0-0.0-13.3","46","<p><img class= 'stimulus' src='images/baseline/flooded-bridge.jpg'></img></p>","null","","1551404607209","","","","","","",""
"null","","html-keyboard-response","382","441044","0.0-8.0-0.0-14.3","46","<p><img class= 'stimulus' src='images/target/tree-197536_640.jpg'></img></p>","null","","1551404607307","14","","","","","",""
"null","","html-keyboard-response","383","441145","0.0-8.0-0.0-15.3","46","<p><img class= 'stimulus' src='images/baseline/house1.jpg'></img></p>","null","","1551404607408","","","","","","",""
"null","","html-keyboard-response","384","441244","0.0-8.0-0.0-16.3","46","<p><img class= 'stimulus' src='images/baseline/landscape3.jpg'></img></p>","null","","1551404607507","","","","","","",""
"null","","html-keyboard-response","385","441361","0.0-8.0-0.0-17.3","46","<p><img class= 'stimulus' src='images/baseline/river 1.jpg'></img></p>","null","","1551404607608","","","","","","",""
"699.2999999783933","","html-button-response","386","443067","0.0-8.0-0.0-18.3","46","<div class = ""response_question"">WAS THE IMAGE ROTATED...</div>","","3","","","6","8","neu","right","test","true"
"2086.299999966286","","html-button-response","387","445155","0.0-8.0-0.0-0.4","46","","","0","","","","","","","",""
"null","","html-keyboard-response","388","445228","0.0-8.0-0.0-1.4","46","<p><img class= 'stimulus' src='images/baseline/landscape13.jpg'></img></p>","null","","1551404611491","","","","","","",""
"null","","html-keyboard-response","389","445328","0.0-8.0-0.0-2.4","46","<p><img class= 'stimulus' src='images/baseline/05240v.jpg'></img></p>","null","","1551404611592","","","","","","",""
"null","","html-keyboard-response","390","445428","0.0-8.0-0.0-3.4","46","<p><img class= 'stimulus' src='images/baseline/cyrillic.jpg'></img></p>","null","","1551404611691","","","","","","",""
"null","","html-keyboard-response","391","445528","0.0-8.0-0.0-4.4","46","<p><img class= 'stimulus' src='images/baseline/farmhouse6.jpg'></img></p>","null","","1551404611791","4","","","","","",""
"null","","html-keyboard-response","392","445628","0.0-8.0-0.0-5.4","46","<p><img class= 'stimulus' src='images/baseline/landscape38.jpg'></img></p>","null","","1551404611891","","","","","","",""
"null","","html-keyboard-response","393","445727","0.0-8.0-0.0-6.4","46","<p><img class= 'stimulus' src='images/baseline/02971v.jpg'></img></p>","null","","1551404611991","6","","","","","",""
"null","","html-keyboard-response","394","445828","0.0-8.0-0.0-7.4","46","<p><img class= 'stimulus' src='images/baseline/05252v.jpg'></img></p>","null","","1551404612093","","","","","","",""
"null","","html-keyboard-response","395","445929","0.0-8.0-0.0-8.4","46","<p><img class= 'stimulus' src='images/target/tree-in-desert-landscape.jpg'></img></p>","null","","1551404612191","8","","","","","",""
"null","","html-keyboard-response","396","446028","0.0-8.0-0.0-9.4","46","<p><img class= 'stimulus' src='images/baseline/pexels-photo-1048039.jpeg'></img></p>","null","","1551404612292","","","","","","",""
"null","","html-keyboard-response","397","446128","0.0-8.0-0.0-10.4","46","<p><img class= 'stimulus' src='images/baseline/05198v.jpg'></img></p>","null","","1551404612391","","","","","","",""
"null","","html-keyboard-response","398","446228","0.0-8.0-0.0-11.4","46","<p><img class= 'stimulus' src='images/baseline/03220v.jpg'></img></p>","null","","1551404612492","","","","","","",""
"null","","html-keyboard-response","399","446328","0.0-8.0-0.0-12.4","46","<p><img class= 'stimulus' src='images/baseline/05242v.jpg'></img></p>","null","","1551404612592","12","","","","","",""
"null","","html-keyboard-response","400","446428","0.0-8.0-0.0-13.4","46","<p><img class= 'stimulus' src='images/baseline/church-silhouette-8712964986014Kb.jpg'></img></p>","null","","1551404612691","","","","","","",""
"null","","html-keyboard-response","401","446529","0.0-8.0-0.0-14.4","46","<p><img class= 'stimulus' src='images/baseline/Sunset 3.jpg'></img></p>","null","","1551404612793","14","","","","","",""
"null","","html-keyboard-response","402","446628","0.0-8.0-0.0-15.4","46","<p><img class= 'stimulus' src='images/baseline/farmhouse7.jpg'></img></p>","null","","1551404612893","","","","","","",""
"null","","html-keyboard-response","403","446728","0.0-8.0-0.0-16.4","46","<p><img class= 'stimulus' src='images/baseline/05247v.jpg'></img></p>","null","","1551404612991","","","","","","",""
"null","","html-keyboard-response","404","446844","0.0-8.0-0.0-17.4","46","<p><img class= 'stimulus' src='images/baseline/field 1.jpg'></img></p>","null","","1551404613091","","","","","","",""
"1793.7999999849126","","html-button-response","405","449644","0.0-8.0-0.0-18.4","46","<div class = ""response_question"">WAS THE IMAGE ROTATED...</div>","","3","","","6","2","bas","right","test","true"
"3005.699999979697","","html-button-response","406","452651","0.0-8.0-0.0-0.5","46","","","0","","","","","","","",""
"null","","html-keyboard-response","407","452728","0.0-8.0-0.0-1.5","46","<p><img class= 'stimulus' src='images/baseline/lookout_tower.jpg'></img></p>","null","","1551404618991","","","","","","",""
"null","","html-keyboard-response","408","452829","0.0-8.0-0.0-2.5","46","<p><img class= 'stimulus' src='images/baseline/landscape6.jpg'></img></p>","null","","1551404619091","","","","","","",""
"null","","html-keyboard-response","409","452928","0.0-8.0-0.0-3.5","46","<p><img class= 'stimulus' src='images/baseline/pexels-photo-459203.jpeg'></img></p>","null","","1551404619191","","","","","","",""
"null","","html-keyboard-response","410","453028","0.0-8.0-0.0-4.5","46","<p><img class= 'stimulus' src='images/baseline/04117v.jpg'></img></p>","null","","1551404619291","4","","","","","",""
"null","","html-keyboard-response","411","453128","0.0-8.0-0.0-5.5","46","<p><img class= 'stimulus' src='images/baseline/03066v.jpg'></img></p>","null","","1551404619392","","","","","","",""
"null","","html-keyboard-response","412","453229","0.0-8.0-0.0-6.5","46","<p><img class= 'stimulus' src='images/negative/War 1.jpg'></img></p>","null","","1551404619492","6","","","","","",""
"null","","html-keyboard-response","413","453327","0.0-8.0-0.0-7.5","46","<p><img class= 'stimulus' src='images/baseline/landscape35.jpg'></img></p>","null","","1551404619592","","","","","","",""
"null","","html-keyboard-response","414","453429","0.0-8.0-0.0-8.5","46","<p><img class= 'stimulus left-rotate' src='images/target/landscape3.jpg'></img></p>","null","","1551404619691","8","","","","","",""
"null","","html-keyboard-response","415","453528","0.0-8.0-0.0-9.5","46","<p><img class= 'stimulus' src='images/baseline/landscape1.jpg'></img></p>","null","","1551404619791","","","","","","",""
"null","","html-keyboard-response","416","453628","0.0-8.0-0.0-10.5","46","<p><img class= 'stimulus' src='images/baseline/Lake 5.jpg'></img></p>","null","","1551404619892","","","","","","",""
"null","","html-keyboard-response","417","453728","0.0-8.0-0.0-11.5","46","<p><img class= 'stimulus' src='images/baseline/Aletschgletscher-Eggishorn.jpg'></img></p>","null","","1551404619991","","","","","","",""
"null","","html-keyboard-response","418","453828","0.0-8.0-0.0-12.5","46","<p><img class= 'stimulus' src='images/baseline/Happy pose 3.jpg'></img></p>","null","","1551404620092","12","","","","","",""
"null","","html-keyboard-response","419","453929","0.0-8.0-0.0-13.5","46","<p><img class= 'stimulus' src='images/baseline/foreclosed_home.jpg'></img></p>","null","","1551404620191","","","","","","",""
"null","","html-keyboard-response","420","454028","0.0-8.0-0.0-14.5","46","<p><img class= 'stimulus' src='images/baseline/pexels-photo-1840893.jpeg'></img></p>","null","","1551404620291","14","","","","","",""
"null","","html-keyboard-response","421","454127","0.0-8.0-0.0-15.5","46","<p><img class= 'stimulus' src='images/baseline/landscape39.jpg'></img></p>","null","","1551404620391","","","","","","",""
"null","","html-keyboard-response","422","454228","0.0-8.0-0.0-16.5","46","<p><img class= 'stimulus' src='images/baseline/pexels-photo-1287089.jpeg'></img></p>","null","","1551404620491","","","","","","",""
"null","","html-keyboard-response","423","454345","0.0-8.0-0.0-17.5","46","<p><img class= 'stimulus' src='images/baseline/04060v.jpg'></img></p>","null","","1551404620591","","","","","","",""
"1547.000000020489","","html-button-response","424","456899","0.0-8.0-0.0-18.5","46","<div class = ""response_question"">WAS THE IMAGE ROTATED...</div>","","1","","","6","2","neg","left","test","true"
"1758.399999991525","","html-button-response","425","458659","0.0-8.0-0.0-0.6","46","","","0","","","","","","","",""
"null","","html-keyboard-response","426","458745","0.0-8.0-0.0-1.6","46","<p><img class= 'stimulus' src='images/baseline/red-rocks-park.jpg'></img></p>","null","","1551404625008","","","","","","",""
"null","","html-keyboard-response","427","458844","0.0-8.0-0.0-2.6","46","<p><img class= 'stimulus' src='images/baseline/pexels-photo-1054289.jpeg'></img></p>","null","","1551404625108","","","","","","",""
"null","","html-keyboard-response","428","458945","0.0-8.0-0.0-3.6","46","<p><img class= 'stimulus' src='images/baseline/landscape15.jpg'></img></p>","null","","1551404625209","","","","","","",""
"null","","html-keyboard-response","429","459045","0.0-8.0-0.0-4.6","46","<p><img class= 'stimulus' src='images/baseline/05179v.jpg'></img></p>","null","","1551404625308","4","","","","","",""
"null","","html-keyboard-response","430","459144","0.0-8.0-0.0-5.6","46","<p><img class= 'stimulus' src='images/baseline/Cold 7.jpg'></img></p>","null","","1551404625409","","","","","","",""
"null","","html-keyboard-response","431","459245","0.0-8.0-0.0-6.6","46","<p><img class= 'stimulus' src='images/negative/Shark 2.jpg'></img></p>","null","","1551404625507","6","","","","","",""
"null","","html-keyboard-response","432","459345","0.0-8.0-0.0-7.6","46","<p><img class= 'stimulus' src='images/baseline/house7.jpg'></img></p>","null","","1551404625608","","","","","","",""
"null","","html-keyboard-response","433","459445","0.0-8.0-0.0-8.6","46","<p><img class= 'stimulus' src='images/baseline/architecture-956332_1280.jpg'></img></p>","null","","1551404625708","8","","","","","",""
"null","","html-keyboard-response","434","459545","0.0-8.0-0.0-9.6","46","<p><img class= 'stimulus' src='images/baseline/building3.jpg'></img></p>","null","","1551404625808","","","","","","",""
"null","","html-keyboard-response","435","459646","0.0-8.0-0.0-10.6","46","<p><img class= 'stimulus' src='images/baseline/Sailing 3.jpg'></img></p>","null","","1551404625908","","","","","","",""
"null","","html-keyboard-response","436","459745","0.0-8.0-0.0-11.6","46","<p><img class= 'stimulus' src='images/baseline/pexels-photo-808465.jpeg'></img></p>","null","","1551404626008","","","","","","",""
"null","","html-keyboard-response","437","459845","0.0-8.0-0.0-12.6","46","<p><img class= 'stimulus' src='images/baseline/house6.jpg'></img></p>","null","","1551404626109","12","","","","","",""
"null","","html-keyboard-response","438","459944","0.0-8.0-0.0-13.6","46","<p><img class= 'stimulus' src='images/baseline/empire-state-building.jpg'></img></p>","null","","1551404626208","","","","","","",""
"null","","html-keyboard-response","439","460044","0.0-8.0-0.0-14.6","46","<p><img class= 'stimulus left-rotate' src='images/target/building19.jpg'></img></p>","null","","1551404626308","14","","","","","",""
"null","","html-keyboard-response","440","460146","0.0-8.0-0.0-15.6","46","<p><img class= 'stimulus' src='images/baseline/03217v.jpg'></img></p>","null","","1551404626409","","","","","","",""
"null","","html-keyboard-response","441","460244","0.0-8.0-0.0-16.6","46","<p><img class= 'stimulus' src='images/baseline/05167v.jpg'></img></p>","null","","1551404626508","","","","","","",""
"null","","html-keyboard-response","442","460361","0.0-8.0-0.0-17.6","46","<p><img class= 'stimulus' src='images/baseline/cranes 1.jpg'></img></p>","null","","1551404626609","","","","","","",""
"1020.3000000328757","","html-button-response","443","462387","0.0-8.0-0.0-18.6","46","<div class = ""response_question"">WAS THE IMAGE ROTATED...</div>","","0","","","6","8","neg","left","test","true"
"1806.299999996554","","html-button-response","444","464195","0.0-8.0-0.0-0.7","46","","","0","","","","","","","",""
"null","","html-keyboard-response","445","464278","0.0-8.0-0.0-1.7","46","<p><img class= 'stimulus' src='images/baseline/Waterfall 1.jpg'></img></p>","null","","1551404630541","","","","","","",""
"null","","html-keyboard-response","446","464378","0.0-8.0-0.0-2.7","46","<p><img class= 'stimulus' src='images/baseline/chicago-skyline-at-night-1476869511p8U.jpg'></img></p>","null","","1551404630642","","","","","","",""
"null","","html-keyboard-response","447","464479","0.0-8.0-0.0-3.7","46","<p><img class= 'stimulus' src='images/baseline/04062v.jpg'></img></p>","null","","1551404630743","","","","","","",""
"null","","html-keyboard-response","448","464578","0.0-8.0-0.0-4.7","46","<p><img class= 'stimulus' src='images/neutral/Goat 1.jpg'></img></p>","null","","1551404630842","4","","","","","",""
"null","","html-keyboard-response","449","464679","0.0-8.0-0.0-5.7","46","<p><img class= 'stimulus' src='images/baseline/Linden,_paysage.jpg'></img></p>","null","","1551404630942","","","","","","",""
"null","","html-keyboard-response","450","464778","0.0-8.0-0.0-6.7","46","<p><img class= 'stimulus left-rotate' src='images/target/pexels-photo-932328.jpeg'></img></p>","null","","1551404631042","6","","","","","",""
"null","","html-keyboard-response","451","464879","0.0-8.0-0.0-7.7","46","<p><img class= 'stimulus' src='images/baseline/Lake 4.jpg'></img></p>","null","","1551404631143","","","","","","",""
"null","","html-keyboard-response","452","464978","0.0-8.0-0.0-8.7","46","<p><img class= 'stimulus' src='images/baseline/landscape19.jpg'></img></p>","null","","1551404631242","8","","","","","",""
"null","","html-keyboard-response","453","465078","0.0-8.0-0.0-9.7","46","<p><img class= 'stimulus' src='images/baseline/02962v.jpg'></img></p>","null","","1551404631343","","","","","","",""
"null","","html-keyboard-response","454","465178","0.0-8.0-0.0-10.7","46","<p><img class= 'stimulus' src='images/baseline/04064v.jpg'></img></p>","null","","1551404631442","","","","","","",""
"null","","html-keyboard-response","455","465278","0.0-8.0-0.0-11.7","46","<p><img class= 'stimulus' src='images/baseline/landscape31.jpg'></img></p>","null","","1551404631541","","","","","","",""
"null","","html-keyboard-response","456","465378","0.0-8.0-0.0-12.7","46","<p><img class= 'stimulus' src='images/baseline/03063v.jpg'></img></p>","null","","1551404631641","12","","","","","",""
"null","","html-keyboard-response","457","465478","0.0-8.0-0.0-13.7","46","<p><img class= 'stimulus' src='images/baseline/trees 23.jpg'></img></p>","null","","1551404631742","","","","","","",""
"null","","html-keyboard-response","458","465578","0.0-8.0-0.0-14.7","46","<p><img class= 'stimulus' src='images/baseline/Lake 8.jpg'></img></p>","null","","1551404631843","14","","","","","",""
"null","","html-keyboard-response","459","465679","0.0-8.0-0.0-15.7","46","<p><img class= 'stimulus' src='images/baseline/landscape33.jpg'></img></p>","null","","1551404631941","","","","","","",""
"null","","html-keyboard-response","460","465779","0.0-8.0-0.0-16.7","46","<p><img class= 'stimulus' src='images/baseline/road.jpg'></img></p>","null","","1551404632042","","","","","","",""
"null","","html-keyboard-response","461","465896","0.0-8.0-0.0-17.7","46","<p><img class= 'stimulus' src='images/baseline/04130v.jpg'></img></p>","null","","1551404632141","","","","","","",""
"776.1000000173226","","html-button-response","462","467676","0.0-8.0-0.0-18.7","46","<div class = ""response_question"">WAS THE IMAGE ROTATED...</div>","","5","","","4","2","neu","left","test","false"
"1981.900000013411","","html-button-response","463","469660","0.0-8.0-0.0-0.8","46","","","0","","","","","","","",""
"null","","html-keyboard-response","464","469746","0.0-8.0-0.0-1.8","46","<p><img class= 'stimulus' src='images/baseline/building_at_national_conservation.jpg'></img></p>","null","","1551404636010","","","","","","",""
"null","","html-keyboard-response","465","469846","0.0-8.0-0.0-2.8","46","<p><img class= 'stimulus' src='images/baseline/03162v.jpg'></img></p>","null","","1551404636109","","","","","","",""
"null","","html-keyboard-response","466","469946","0.0-8.0-0.0-3.8","46","<p><img class= 'stimulus' src='images/baseline/landscape29.jpg'></img></p>","null","","1551404636209","","","","","","",""
"null","","html-keyboard-response","467","470046","0.0-8.0-0.0-4.8","46","<p><img class= 'stimulus' src='images/baseline/03112v.jpg'></img></p>","null","","1551404636309","4","","","","","",""
"null","","html-keyboard-response","468","470146","0.0-8.0-0.0-5.8","46","<p><img class= 'stimulus' src='images/baseline/red rocks from afar.jpg'></img></p>","null","","1551404636409","","","","","","",""
"null","","html-keyboard-response","469","470248","0.0-8.0-0.0-6.8","46","<p><img class= 'stimulus' src='images/negative/Dog attack 1.jpg'></img></p>","null","","1551404636510","6","","","","","",""
"null","","html-keyboard-response","470","470346","0.0-8.0-0.0-7.8","46","<p><img class= 'stimulus' src='images/baseline/pexels-photo-894312.jpeg'></img></p>","null","","1551404636609","","","","","","",""
"null","","html-keyboard-response","471","470445","0.0-8.0-0.0-8.8","46","<p><img class= 'stimulus' src='images/baseline/pexels-photo-541101.jpeg'></img></p>","null","","1551404636710","8","","","","","",""
"null","","html-keyboard-response","472","470546","0.0-8.0-0.0-9.8","46","<p><img class= 'stimulus' src='images/baseline/field 2.jpg'></img></p>","null","","1551404636810","","","","","","",""
"null","","html-keyboard-response","473","470646","0.0-8.0-0.0-10.8","46","<p><img class= 'stimulus' src='images/baseline/05158v.jpg'></img></p>","null","","1551404636910","","","","","","",""
"null","","html-keyboard-response","474","470746","0.0-8.0-0.0-11.8","46","<p><img class= 'stimulus' src='images/baseline/Street 5.jpg'></img></p>","null","","1551404637010","","","","","","",""
"null","","html-keyboard-response","475","470846","0.0-8.0-0.0-12.8","46","<p><img class= 'stimulus' src='images/baseline/farmhouse11.jpg'></img></p>","null","","1551404637109","12","","","","","",""
"null","","html-keyboard-response","476","470946","0.0-8.0-0.0-13.8","46","<p><img class= 'stimulus' src='images/baseline/house8.jpg'></img></p>","null","","1551404637210","","","","","","",""
"null","","html-keyboard-response","477","471047","0.0-8.0-0.0-14.8","46","<p><img class= 'stimulus' src='images/target/torrotito-375925_640.jpg'></img></p>","null","","1551404637309","14","","","","","",""
"null","","html-keyboard-response","478","471146","0.0-8.0-0.0-15.8","46","<p><img class= 'stimulus' src='images/baseline/pexels-photo-427676.jpeg'></img></p>","null","","1551404637411","","","","","","",""
"null","","html-keyboard-response","479","471247","0.0-8.0-0.0-16.8","46","<p><img class= 'stimulus' src='images/baseline/building8.jpg'></img></p>","null","","1551404637509","","","","","","",""
"null","","html-keyboard-response","480","471363","0.0-8.0-0.0-17.8","46","<p><img class= 'stimulus' src='images/baseline/Lake 9.jpg'></img></p>","null","","1551404637609","","","","","","",""
"1513.9999999664724","","html-button-response","481","473884","0.0-8.0-0.0-18.8","46","<div class = ""response_question"">WAS THE IMAGE ROTATED...</div>","","3","","","6","8","neg","right","test","true"
"2838.3000000030734","","html-button-response","482","476725","0.0-8.0-0.0-0.9","46","","","0","","","","","","","",""
"null","","html-keyboard-response","483","476796","0.0-8.0-0.0-1.9","46","<p><img class= 'stimulus' src='images/baseline/agriculture-countryside-crop-259280.jpg'></img></p>","null","","1551404643059","","","","","","",""
"null","","html-keyboard-response","484","476896","0.0-8.0-0.0-2.9","46","<p><img class= 'stimulus' src='images/baseline/autumn-landscape-with-lake-fall-trees-mountains.jpg'></img></p>","null","","1551404643159","","","","","","",""
"null","","html-keyboard-response","485","476997","0.0-8.0-0.0-3.9","46","<p><img class= 'stimulus' src='images/baseline/03148v.jpg'></img></p>","null","","1551404643260","","","","","","",""
"null","","html-keyboard-response","486","477095","0.0-8.0-0.0-4.9","46","<p><img class= 'stimulus' src='images/baseline/Sunset 5.jpg'></img></p>","null","","1551404643360","4","","","","","",""
"null","","html-keyboard-response","487","477196","0.0-8.0-0.0-5.9","46","<p><img class= 'stimulus' src='images/baseline/landscape11.jpg'></img></p>","null","","1551404643460","","","","","","",""
"null","","html-keyboard-response","488","477296","0.0-8.0-0.0-6.9","46","<p><img class= 'stimulus' src='images/baseline/building12.jpg'></img></p>","null","","1551404643561","6","","","","","",""
"null","","html-keyboard-response","489","477396","0.0-8.0-0.0-7.9","46","<p><img class= 'stimulus' src='images/baseline/valley 1.jpg'></img></p>","null","","1551404643660","","","","","","",""
"null","","html-keyboard-response","490","477495","0.0-8.0-0.0-8.9","46","<p><img class= 'stimulus' src='images/baseline/__08_-_ITALY_-_Forli_under_snow_-_winter_landscape_of_city_(christmas).jpg'></img></p>","null","","1551404643759","8","","","","","",""
"null","","html-keyboard-response","491","477596","0.0-8.0-0.0-9.9","46","<p><img class= 'stimulus' src='images/baseline/farmhouse4.jpg'></img></p>","null","","1551404643859","","","","","","",""
"null","","html-keyboard-response","492","477696","0.0-8.0-0.0-10.9","46","<p><img class= 'stimulus' src='images/baseline/04284v.jpg'></img></p>","null","","1551404643960","","","","","","",""
"null","","html-keyboard-response","493","477796","0.0-8.0-0.0-11.9","46","<p><img class= 'stimulus' src='images/baseline/farmhouse8.jpg'></img></p>","null","","1551404644059","","","","","","",""
"null","","html-keyboard-response","494","477896","0.0-8.0-0.0-12.9","46","<p><img class= 'stimulus' src='images/baseline/Freudenberg_sg_Switzerland.jpg'></img></p>","null","","1551404644159","12","","","","","",""
"null","","html-keyboard-response","495","477996","0.0-8.0-0.0-13.9","46","<p><img class= 'stimulus' src='images/baseline/05264v.jpg'></img></p>","null","","1551404644261","","","","","","",""
"null","","html-keyboard-response","496","478096","0.0-8.0-0.0-14.9","46","<p><img class= 'stimulus' src='images/baseline/Lake 3.jpg'></img></p>","null","","1551404644359","14","","","","","",""
"null","","html-keyboard-response","497","478195","0.0-8.0-0.0-15.9","46","<p><img class= 'stimulus' src='images/baseline/04300v.jpg'></img></p>","null","","1551404644459","","","","","","",""
"null","","html-keyboard-response","498","478296","0.0-8.0-0.0-16.9","46","<p><img class= 'stimulus' src='images/baseline/pexels-photo-534164.jpeg'></img></p>","null","","1551404644561","","","","","","",""
"null","","html-keyboard-response","499","478414","0.0-8.0-0.0-17.9","46","<p><img class= 'stimulus' src='images/baseline/building5.jpg'></img></p>","null","","1551404644660","","","","","","",""
"1394.2999999853782","","html-button-response","500","480812","0.0-8.0-0.0-18.9","46","<div class = ""response_question"">WAS THE IMAGE ROTATED...</div>","","2","","","null","null","null","null","test","null"
"1710.399999981746","","html-button-response","501","482524","0.0-8.0-0.0-0.10","46","","","0","","","","","","","",""
"null","","html-keyboard-response","502","482596","0.0-8.0-0.0-1.10","46","<p><img class= 'stimulus' src='images/baseline/geese-flying-over-lake-at-dusk.jpg'></img></p>","null","","1551404648859","","","","","","",""
"null","","html-keyboard-response","503","482696","0.0-8.0-0.0-2.10","46","<p><img class= 'stimulus' src='images/baseline/04162v.jpg'></img></p>","null","","1551404648960","","","","","","",""
"null","","html-keyboard-response","504","482796","0.0-8.0-0.0-3.10","46","<p><img class= 'stimulus' src='images/baseline/pexels-photo-568236.jpeg'></img></p>","null","","1551404649060","","","","","","",""
"null","","html-keyboard-response","505","482896","0.0-8.0-0.0-4.10","46","<p><img class= 'stimulus' src='images/neutral/Crow 1.jpg'></img></p>","null","","1551404649159","4","","","","","",""
"null","","html-keyboard-response","506","482996","0.0-8.0-0.0-5.10","46","<p><img class= 'stimulus' src='images/baseline/05280v.jpg'></img></p>","null","","1551404649259","","","","","","",""
"null","","html-keyboard-response","507","483097","0.0-8.0-0.0-6.10","46","<p><img class= 'stimulus' src='images/baseline/Kocherbaumwald-01.jpg'></img></p>","null","","1551404649360","6","","","","","",""
"null","","html-keyboard-response","508","483197","0.0-8.0-0.0-7.10","46","<p><img class= 'stimulus' src='images/baseline/hills 3.jpg'></img></p>","null","","1551404649461","","","","","","",""
"null","","html-keyboard-response","509","483296","0.0-8.0-0.0-8.10","46","<p><img class= 'stimulus' src='images/baseline/04201v.jpg'></img></p>","null","","1551404649560","8","","","","","",""
