"rt","responses","trial_type","trial_index","time_elapsed","internal_node_id","participant_id","stimulus","key_press","button_pressed","stim_onset","sequence_position","distractor_position","target_lag","distractor_type","target_orientation","phase","correct"
"15414.199999999255","{""Q0"":""31""}","survey-text","0","15419","0.0-0.0","31","","","","","","","","","","",""
"918456.6999999806","","html-keyboard-response","1","933885","0.0-1.0","31","Welcome to the experiment.","67","","","","","","","","",""
"17495.300000009593","","html-button-response","2","951383","0.0-2.0","31","<p>Several images will be presented sequentially.        Each image will only be on the screen for about 100 milliseconds.</p>        <p> One of the images may be rotated 90 degrees right or left.        Watch for this image and remember if it is rotated right or left.</p>               <p>Images of people and animals will appear, and sometimes they will be unpleasant.        These will never be the rotated target image.</p>","","0","","","","","","","",""
"4702.199999999721","","html-button-response","3","956087","0.0-3.0","31","<p><img class=""stimulus left-rotate"" src=""images/target/house-estate-1100x733.jpg""></img></p><p>This is an example of an image rotated to the left.</p>","","0","","","","","","","",""
"5854.799999971874","","html-button-response","4","961942","0.0-4.0","31","<p><img class=""stimulus"" src=""images/target/pexels-photo-932328.jpeg""></img></p><p>This is an example of an image rotated to the right.</p>","","0","","","","","","","",""
"14038.999999989755","","html-button-response","5","975982","0.0-5.0","31","<p>We will now begin a short practice session.</p>         <p>A + symbol will appear in the middle of the screen. Please fix your gaze on the center of the +, and then click the mouse button to begin the image sequence.</p>         <p>Please avoid blinking or eye movements while the images are on the screen.</p>        <p>The image sequence will start relatively slow. After a few sequences, it will speed up.</p>","","0","","","","","","","",""
"5630.800000042655","","html-button-response","6","981614","0.0-6.0-0.0","31","","","0","","","","","","","",""
"null","","html-keyboard-response","7","981796","0.0-6.0-1.0","31","<p><img class= 'stimulus' src='images/baseline/hills 1.jpg'></img></p>","null","","1550798708611","","","","","","",""
"null","","html-keyboard-response","8","981996","0.0-6.0-2.0","31","<p><img class= 'stimulus' src='images/baseline/Sidewalk 4.jpg'></img></p>","null","","1550798708811","","","","","","",""
"null","","html-keyboard-response","9","982196","0.0-6.0-3.0","31","<p><img class= 'stimulus' src='images/baseline/pexels-photo-1287089.jpeg'></img></p>","null","","1550798709011","","","","","","",""
"null","","html-keyboard-response","10","982397","0.0-6.0-4.0","31","<p><img class= 'stimulus' src='images/baseline/landscape36.jpg'></img></p>","null","","1550798709211","4","","","","","",""
"null","","html-keyboard-response","11","982597","0.0-6.0-5.0","31","<p><img class= 'stimulus' src='images/baseline/pexels-photo-221125.jpeg'></img></p>","null","","1550798709410","","","","","","",""
"null","","html-keyboard-response","12","982796","0.0-6.0-6.0","31","<p><img class= 'stimulus' src='images/baseline/sun-through-winter-tree-branches1.jpg'></img></p>","null","","1550798709612","6","","","","","",""
"null","","html-keyboard-response","13","982997","0.0-6.0-7.0","31","<p><img class= 'stimulus' src='images/baseline/landscape13.jpg'></img></p>","null","","1550798709810","","","","","","",""
"null","","html-keyboard-response","14","983197","0.0-6.0-8.0","31","<p><img class= 'stimulus' src='images/baseline/field 4.jpg'></img></p>","null","","1550798710011","8","","","","","",""
"null","","html-keyboard-response","15","983396","0.0-6.0-9.0","31","<p><img class= 'stimulus' src='images/baseline/landscape7.jpg'></img></p>","null","","1550798710211","","","","","","",""
"null","","html-keyboard-response","16","983596","0.0-6.0-10.0","31","<p><img class= 'stimulus' src='images/baseline/pexels-photo-59321.jpeg'></img></p>","null","","1550798710412","","","","","","",""
"null","","html-keyboard-response","17","983797","0.0-6.0-11.0","31","<p><img class= 'stimulus' src='images/baseline/valley 2.jpg'></img></p>","null","","1550798710610","","","","","","",""
"null","","html-keyboard-response","18","983997","0.0-6.0-12.0","31","<p><img class= 'stimulus' src='images/baseline/building4.jpg'></img></p>","null","","1550798710811","12","","","","","",""
"null","","html-keyboard-response","19","984199","0.0-6.0-13.0","31","<p><img class= 'stimulus' src='images/baseline/farmhouse1.jpg'></img></p>","null","","1550798711012","","","","","","",""
"null","","html-keyboard-response","20","984398","0.0-6.0-14.0","31","<p><img class= 'stimulus' src='images/target/adventure-desert-landscape-6778.jpg'></img></p>","null","","1550798711214","14","","","","","",""
"null","","html-keyboard-response","21","984599","0.0-6.0-15.0","31","<p><img class= 'stimulus' src='images/baseline/landscape17.jpg'></img></p>","null","","1550798711413","","","","","","",""
"null","","html-keyboard-response","22","984800","0.0-6.0-16.0","31","<p><img class= 'stimulus' src='images/baseline/pexels-photo-750108.jpeg'></img></p>","null","","1550798711613","","","","","","",""
"null","","html-keyboard-response","23","985015","0.0-6.0-17.0","31","<p><img class= 'stimulus' src='images/baseline/autumn-in-red-rocks-park.jpg'></img></p>","null","","1550798711813","","","","","","",""
"4354.5000000158325","","html-button-response","24","990375","0.0-6.0-18.0","31","<div class = ""response_question"">WAS THE IMAGE ROTATED...</div>","","3","","","6","8","bas","right","practice","true"
"3510.000000009313","","html-button-response","25","993886","0.0-6.0-0.1","31","","","0","","","","","","","",""
"null","","html-keyboard-response","26","994064","0.0-6.0-1.1","31","<p><img class= 'stimulus' src='images/baseline/landscape22.jpg'></img></p>","null","","1550798720878","","","","","","",""
"null","","html-keyboard-response","27","994264","0.0-6.0-2.1","31","<p><img class= 'stimulus' src='images/baseline/Dock 1.jpg'></img></p>","null","","1550798721077","","","","","","",""
"null","","html-keyboard-response","28","994464","0.0-6.0-3.1","31","<p><img class= 'stimulus' src='images/baseline/architecture-956332_1280.jpg'></img></p>","null","","1550798721279","","","","","","",""
"null","","html-keyboard-response","29","994664","0.0-6.0-4.1","31","<p><img class= 'stimulus' src='images/baseline/landscape1.jpg'></img></p>","null","","1550798721479","4","","","","","",""
"null","","html-keyboard-response","30","994865","0.0-6.0-5.1","31","<p><img class= 'stimulus' src='images/baseline/sunny-landscape-with-dry-brush-and-mountain-background.jpg'></img></p>","null","","1550798721678","","","","","","",""
"null","","html-keyboard-response","31","995064","0.0-6.0-6.1","31","<p><img class= 'stimulus left-rotate' src='images/target/chicago-673558_640.jpg'></img></p>","null","","1550798721878","6","","","","","",""
"null","","html-keyboard-response","32","995264","0.0-6.0-7.1","31","<p><img class= 'stimulus' src='images/baseline/03201v.jpg'></img></p>","null","","1550798722079","","","","","","",""
"null","","html-keyboard-response","33","995464","0.0-6.0-8.1","31","<p><img class= 'stimulus' src='images/baseline/Lake 3.jpg'></img></p>","null","","1550798722279","8","","","","","",""
"null","","html-keyboard-response","34","995664","0.0-6.0-9.1","31","<p><img class= 'stimulus' src='images/baseline/landscape11.jpg'></img></p>","null","","1550798722479","","","","","","",""
"null","","html-keyboard-response","35","995864","0.0-6.0-10.1","31","<p><img class= 'stimulus' src='images/baseline/Beach 2.jpg'></img></p>","null","","1550798722680","","","","","","",""
"null","","html-keyboard-response","36","996064","0.0-6.0-11.1","31","<p><img class= 'stimulus' src='images/baseline/lookout_tower.jpg'></img></p>","null","","1550798722879","","","","","","",""
"null","","html-keyboard-response","37","996264","0.0-6.0-12.1","31","<p><img class= 'stimulus' src='images/baseline/landscape4.jpg'></img></p>","null","","1550798723079","12","","","","","",""
"null","","html-keyboard-response","38","996464","0.0-6.0-13.1","31","<p><img class= 'stimulus' src='images/baseline/Bahia_Onelli_Parque_Nacional_Los_Glaciares_Patagonia_Argentina_Luca_Galuzzi_2005.jpg'></img></p>","null","","1550798723280","","","","","","",""
"null","","html-keyboard-response","39","996666","0.0-6.0-14.1","31","<p><img class= 'stimulus' src='images/baseline/4k-wallpaper-agriculture-clouds-842711.jpg'></img></p>","null","","1550798723479","14","","","","","",""
"null","","html-keyboard-response","40","996866","0.0-6.0-15.1","31","<p><img class= 'stimulus' src='images/baseline/05131v.jpg'></img></p>","null","","1550798723679","","","","","","",""
"null","","html-keyboard-response","41","997065","0.0-6.0-16.1","31","<p><img class= 'stimulus' src='images/baseline/03056v.jpg'></img></p>","null","","1550798723880","","","","","","",""
"null","","html-keyboard-response","42","997282","0.0-6.0-17.1","31","<p><img class= 'stimulus' src='images/baseline/05203v.jpg'></img></p>","null","","1550798724080","","","","","","",""
"5047.299999976531","","html-button-response","43","1003335","0.0-6.0-18.1","31","<div class = ""response_question"">WAS THE IMAGE ROTATED...</div>","","0","","","4","2","bas","left","practice","true"
"1782.3999999673106","","html-button-response","44","1005119","0.0-6.0-0.2","31","","","0","","","","","","","",""
"null","","html-keyboard-response","45","1005299","0.0-6.0-1.2","31","<p><img class= 'stimulus' src='images/baseline/05255v.jpg'></img></p>","null","","1550798732111","","","","","","",""
"null","","html-keyboard-response","46","1005498","0.0-6.0-2.2","31","<p><img class= 'stimulus' src='images/baseline/Nature 1.jpg'></img></p>","null","","1550798732313","","","","","","",""
"null","","html-keyboard-response","47","1005698","0.0-6.0-3.2","31","<p><img class= 'stimulus' src='images/baseline/04010v.jpg'></img></p>","null","","1550798732513","","","","","","",""
"null","","html-keyboard-response","48","1005899","0.0-6.0-4.2","31","<p><img class= 'stimulus' src='images/baseline/trees 23.jpg'></img></p>","null","","1550798732713","4","","","","","",""
"null","","html-keyboard-response","49","1006099","0.0-6.0-5.2","31","<p><img class= 'stimulus' src='images/baseline/house1.jpg'></img></p>","null","","1550798732913","","","","","","",""
"null","","html-keyboard-response","50","1006300","0.0-6.0-6.2","31","<p><img class= 'stimulus' src='images/baseline/sunset-over-the-lake.jpg'></img></p>","null","","1550798733114","6","","","","","",""
"null","","html-keyboard-response","51","1006499","0.0-6.0-7.2","31","<p><img class= 'stimulus' src='images/baseline/farmhouse7.jpg'></img></p>","null","","1550798733313","","","","","","",""
"null","","html-keyboard-response","52","1006699","0.0-6.0-8.2","31","<p><img class= 'stimulus' src='images/baseline/03045v.jpg'></img></p>","null","","1550798733513","8","","","","","",""
"null","","html-keyboard-response","53","1006900","0.0-6.0-9.2","31","<p><img class= 'stimulus' src='images/baseline/Camping 10.jpg'></img></p>","null","","1550798733713","","","","","","",""
"null","","html-keyboard-response","54","1007099","0.0-6.0-10.2","31","<p><img class= 'stimulus' src='images/baseline/building9.jpg'></img></p>","null","","1550798733914","","","","","","",""
"null","","html-keyboard-response","55","1007299","0.0-6.0-11.2","31","<p><img class= 'stimulus' src='images/baseline/farmhouse4.jpg'></img></p>","null","","1550798734113","","","","","","",""
"null","","html-keyboard-response","56","1007499","0.0-6.0-12.2","31","<p><img class= 'stimulus' src='images/baseline/05198v.jpg'></img></p>","null","","1550798734314","12","","","","","",""
"null","","html-keyboard-response","57","1007699","0.0-6.0-13.2","31","<p><img class= 'stimulus' src='images/baseline/dirt-road-or-trail-through-park.jpg'></img></p>","null","","1550798734513","","","","","","",""
"null","","html-keyboard-response","58","1007899","0.0-6.0-14.2","31","<p><img class= 'stimulus left-rotate' src='images/target/buildin5.jpg'></img></p>","null","","1550798734713","14","","","","","",""
"null","","html-keyboard-response","59","1008098","0.0-6.0-15.2","31","<p><img class= 'stimulus' src='images/baseline/pexels-photo-414491.jpeg'></img></p>","null","","1550798734913","","","","","","",""
"null","","html-keyboard-response","60","1008299","0.0-6.0-16.2","31","<p><img class= 'stimulus' src='images/baseline/cranes 1.jpg'></img></p>","null","","1550798735114","","","","","","",""
"null","","html-keyboard-response","61","1008515","0.0-6.0-17.2","31","<p><img class= 'stimulus' src='images/baseline/scenic-mountain-landscape.jpg'></img></p>","null","","1550798735312","","","","","","",""
"3494.5999999763444","","html-button-response","62","1013008","0.0-6.0-18.2","31","<div class = ""response_question"">WAS THE IMAGE ROTATED...</div>","","0","","","6","8","bas","left","practice","true"
"6406.59999998752","","html-button-response","63","1019416","0.0-6.0-0.3","31","","","0","","","","","","","",""
"null","","html-keyboard-response","64","1019590","0.0-6.0-1.3","31","<p><img class= 'stimulus' src='images/baseline/pexels-photo-459203.jpeg'></img></p>","null","","1550798746404","","","","","","",""
"null","","html-keyboard-response","65","1019790","0.0-6.0-2.3","31","<p><img class= 'stimulus' src='images/baseline/Niinsaare_jarv.jpg'></img></p>","null","","1550798746605","","","","","","",""
"null","","html-keyboard-response","66","1019991","0.0-6.0-3.3","31","<p><img class= 'stimulus' src='images/baseline/pexels-photo-1837621.jpeg'></img></p>","null","","1550798746804","","","","","","",""
"null","","html-keyboard-response","67","1020191","0.0-6.0-4.3","31","<p><img class= 'stimulus' src='images/baseline/grand-teton-mountains.jpg'></img></p>","null","","1550798747005","4","","","","","",""
"null","","html-keyboard-response","68","1020391","0.0-6.0-5.3","31","<p><img class= 'stimulus' src='images/baseline/agriculture-countryside-crop-259280.jpg'></img></p>","null","","1550798747205","","","","","","",""
"null","","html-keyboard-response","69","1020592","0.0-6.0-6.3","31","<p><img class= 'stimulus' src='images/baseline/house7.jpg'></img></p>","null","","1550798747405","6","","","","","",""
"null","","html-keyboard-response","70","1020792","0.0-6.0-7.3","31","<p><img class= 'stimulus' src='images/baseline/landscape16.jpg'></img></p>","null","","1550798747605","","","","","","",""
"null","","html-keyboard-response","71","1020990","0.0-6.0-8.3","31","<p><img class= 'stimulus' src='images/target/lone-tree.png'></img></p>","null","","1550798747806","8","","","","","",""
"null","","html-keyboard-response","72","1021191","0.0-6.0-9.3","31","<p><img class= 'stimulus' src='images/baseline/horse_statue.jpg'></img></p>","null","","1550798748006","","","","","","",""
"null","","html-keyboard-response","73","1021391","0.0-6.0-10.3","31","<p><img class= 'stimulus' src='images/baseline/05247v.jpg'></img></p>","null","","1550798748205","","","","","","",""
"null","","html-keyboard-response","74","1021591","0.0-6.0-11.3","31","<p><img class= 'stimulus' src='images/baseline/field 3.jpg'></img></p>","null","","1550798748405","","","","","","",""
"null","","html-keyboard-response","75","1021792","0.0-6.0-12.3","31","<p><img class= 'stimulus' src='images/baseline/building6.jpg'></img></p>","null","","1550798748606","12","","","","","",""
"null","","html-keyboard-response","76","1021993","0.0-6.0-13.3","31","<p><img class= 'stimulus' src='images/baseline/05279v.jpg'></img></p>","null","","1550798748807","","","","","","",""
"null","","html-keyboard-response","77","1022192","0.0-6.0-14.3","31","<p><img class= 'stimulus' src='images/baseline/Sunset 4.jpg'></img></p>","null","","1550798749007","14","","","","","",""
"null","","html-keyboard-response","78","1022392","0.0-6.0-15.3","31","<p><img class= 'stimulus' src='images/baseline/03204v.jpg'></img></p>","null","","1550798749207","","","","","","",""
"null","","html-keyboard-response","79","1022591","0.0-6.0-16.3","31","<p><img class= 'stimulus' src='images/baseline/03148v.jpg'></img></p>","null","","1550798749406","","","","","","",""
"null","","html-keyboard-response","80","1022808","0.0-6.0-17.3","31","<p><img class= 'stimulus' src='images/baseline/landscape31.jpg'></img></p>","null","","1550798749607","","","","","","",""
"2737.4999999883585","","html-button-response","81","1026551","0.0-6.0-18.3","31","<div class = ""response_question"">WAS THE IMAGE ROTATED...</div>","","3","","","6","2","bas","right","practice","true"
"2422.199999971781","","html-button-response","82","1028975","0.0-6.0-0.4","31","","","0","","","","","","","",""
"null","","html-keyboard-response","83","1029109","0.0-6.0-1.4","31","<p><img class= 'stimulus' src='images/baseline/landscape37.jpg'></img></p>","null","","1550798755972","","","","","","",""
"null","","html-keyboard-response","84","1029259","0.0-6.0-2.4","31","<p><img class= 'stimulus' src='images/baseline/landscape19.jpg'></img></p>","null","","1550798756124","","","","","","",""
"null","","html-keyboard-response","85","1029409","0.0-6.0-3.4","31","<p><img class= 'stimulus' src='images/baseline/Freudenberg_sg_Switzerland.jpg'></img></p>","null","","1550798756274","","","","","","",""
"null","","html-keyboard-response","86","1029559","0.0-6.0-4.4","31","<p><img class= 'stimulus' src='images/baseline/lake 1.jpg'></img></p>","null","","1550798756423","4","","","","","",""
"null","","html-keyboard-response","87","1029708","0.0-6.0-5.4","31","<p><img class= 'stimulus' src='images/baseline/landscape29.jpg'></img></p>","null","","1550798756573","","","","","","",""
"null","","html-keyboard-response","88","1029858","0.0-6.0-6.4","31","<p><img class= 'stimulus' src='images/target/torrotito-375925_640.jpg'></img></p>","null","","1550798756723","6","","","","","",""
"null","","html-keyboard-response","89","1030008","0.0-6.0-7.4","31","<p><img class= 'stimulus' src='images/baseline/Skyscraper 2.jpg'></img></p>","null","","1550798756873","","","","","","",""
"null","","html-keyboard-response","90","1030158","0.0-6.0-8.4","31","<p><img class= 'stimulus' src='images/baseline/04086v.jpg'></img></p>","null","","1550798757022","8","","","","","",""
"null","","html-keyboard-response","91","1030308","0.0-6.0-9.4","31","<p><img class= 'stimulus' src='images/baseline/05179v.jpg'></img></p>","null","","1550798757173","","","","","","",""
"null","","html-keyboard-response","92","1030457","0.0-6.0-10.4","31","<p><img class= 'stimulus' src='images/baseline/05158v.jpg'></img></p>","null","","1550798757323","","","","","","",""
"null","","html-keyboard-response","93","1030608","0.0-6.0-11.4","31","<p><img class= 'stimulus' src='images/baseline/04085v.jpg'></img></p>","null","","1550798757471","","","","","","",""
"null","","html-keyboard-response","94","1030759","0.0-6.0-12.4","31","<p><img class= 'stimulus' src='images/baseline/city-silhouette-at-sunset-871291580819Esw.jpg'></img></p>","null","","1550798757622","12","","","","","",""
"null","","html-keyboard-response","95","1030907","0.0-6.0-13.4","31","<p><img class= 'stimulus' src='images/baseline/Street 4.jpg'></img></p>","null","","1550798757772","","","","","","",""
"null","","html-keyboard-response","96","1031058","0.0-6.0-14.4","31","<p><img class= 'stimulus' src='images/baseline/03041v.jpg'></img></p>","null","","1550798757922","14","","","","","",""
"null","","html-keyboard-response","97","1031208","0.0-6.0-15.4","31","<p><img class= 'stimulus' src='images/baseline/geese-flying-over-lake-at-dusk.jpg'></img></p>","null","","1550798758072","","","","","","",""
"null","","html-keyboard-response","98","1031358","0.0-6.0-16.4","31","<p><img class= 'stimulus' src='images/baseline/river 1.jpg'></img></p>","null","","1550798758221","","","","","","",""
"null","","html-keyboard-response","99","1031524","0.0-6.0-17.4","31","<p><img class= 'stimulus' src='images/baseline/house6.jpg'></img></p>","null","","1550798758372","","","","","","",""
"5592.599999974482","","html-button-response","100","1038127","0.0-6.0-18.4","31","<div class = ""response_question"">WAS THE IMAGE ROTATED...</div>","","4","","","4","2","bas","right","practice","true"
"2278.4000000101514","","html-button-response","101","1040407","0.0-6.0-0.5","31","","","0","","","","","","","",""
"null","","html-keyboard-response","102","1040541","0.0-6.0-1.5","31","<p><img class= 'stimulus' src='images/baseline/cyrillic.jpg'></img></p>","null","","1550798767405","","","","","","",""
"null","","html-keyboard-response","103","1040690","0.0-6.0-2.5","31","<p><img class= 'stimulus' src='images/baseline/farmhouse9.jpg'></img></p>","null","","1550798767556","","","","","","",""
"null","","html-keyboard-response","104","1040840","0.0-6.0-3.5","31","<p><img class= 'stimulus' src='images/baseline/landscape12.jpg'></img></p>","null","","1550798767705","","","","","","",""
"null","","html-keyboard-response","105","1040990","0.0-6.0-4.5","31","<p><img class= 'stimulus' src='images/baseline/meadow-with-mountain-in-background.jpg'></img></p>","null","","1550798767855","4","","","","","",""
"null","","html-keyboard-response","106","1041140","0.0-6.0-5.5","31","<p><img class= 'stimulus' src='images/baseline/pexels-photo-1054289.jpeg'></img></p>","null","","1550798768005","","","","","","",""
"null","","html-keyboard-response","107","1041290","0.0-6.0-6.5","31","<p><img class= 'stimulus' src='images/baseline/05303v.jpg'></img></p>","null","","1550798768155","6","","","","","",""
"null","","html-keyboard-response","108","1041441","0.0-6.0-7.5","31","<p><img class= 'stimulus' src='images/baseline/Lake 15.jpg'></img></p>","null","","1550798768304","","","","","","",""
"null","","html-keyboard-response","109","1041590","0.0-6.0-8.5","31","<p><img class= 'stimulus' src='images/baseline/house8.jpg'></img></p>","null","","1550798768456","8","","","","","",""
"null","","html-keyboard-response","110","1041739","0.0-6.0-9.5","31","<p><img class= 'stimulus' src='images/baseline/pexels-photo-440731.jpeg'></img></p>","null","","1550798768606","","","","","","",""
"null","","html-keyboard-response","111","1041891","0.0-6.0-10.5","31","<p><img class= 'stimulus' src='images/baseline/landscape3.jpg'></img></p>","null","","1550798768754","","","","","","",""
"null","","html-keyboard-response","112","1042039","0.0-6.0-11.5","31","<p><img class= 'stimulus' src='images/baseline/Skijump 1.jpg'></img></p>","null","","1550798768904","","","","","","",""
"null","","html-keyboard-response","113","1042190","0.0-6.0-12.5","31","<p><img class= 'stimulus left-rotate' src='images/target/pexels-photo-210683.jpeg'></img></p>","null","","1550798769054","12","","","","","",""
"null","","html-keyboard-response","114","1042340","0.0-6.0-13.5","31","<p><img class= 'stimulus' src='images/baseline/04284v.jpg'></img></p>","null","","1550798769204","","","","","","",""
"null","","html-keyboard-response","115","1042490","0.0-6.0-14.5","31","<p><img class= 'stimulus' src='images/baseline/04063v.jpg'></img></p>","null","","1550798769355","14","","","","","",""
"null","","html-keyboard-response","116","1042641","0.0-6.0-15.5","31","<p><img class= 'stimulus' src='images/baseline/04064v.jpg'></img></p>","null","","1550798769506","","","","","","",""
"null","","html-keyboard-response","117","1042790","0.0-6.0-16.5","31","<p><img class= 'stimulus' src='images/baseline/landscape40.jpg'></img></p>","null","","1550798769655","","","","","","",""
"null","","html-keyboard-response","118","1042957","0.0-6.0-17.5","31","<p><img class= 'stimulus' src='images/baseline/04196v.jpg'></img></p>","null","","1550798769806","","","","","","",""
"3018.400000000838","","html-button-response","119","1046991","0.0-6.0-18.5","31","<div class = ""response_question"">WAS THE IMAGE ROTATED...</div>","","0","","","4","8","bas","left","practice","true"
"2078.6000000080094","","html-button-response","120","1049071","0.0-6.0-0.6","31","","","0","","","","","","","",""
"null","","html-keyboard-response","121","1049208","0.0-6.0-1.6","31","<p><img class= 'stimulus' src='images/baseline/Grass 6.jpg'></img></p>","null","","1550798776071","","","","","","",""
"null","","html-keyboard-response","122","1049357","0.0-6.0-2.6","31","<p><img class= 'stimulus' src='images/baseline/pexels-photo-427676.jpeg'></img></p>","null","","1550798776222","","","","","","",""
"null","","html-keyboard-response","123","1049507","0.0-6.0-3.6","31","<p><img class= 'stimulus' src='images/baseline/04300v.jpg'></img></p>","null","","1550798776371","","","","","","",""
"null","","html-keyboard-response","124","1049656","0.0-6.0-4.6","31","<p><img class= 'stimulus' src='images/baseline/Lake 13.jpg'></img></p>","null","","1550798776521","4","","","","","",""
"null","","html-keyboard-response","125","1049807","0.0-6.0-5.6","31","<p><img class= 'stimulus' src='images/baseline/03162v.jpg'></img></p>","null","","1550798776672","","","","","","",""
"null","","html-keyboard-response","126","1049956","0.0-6.0-6.6","31","<p><img class= 'stimulus' src='images/baseline/building12.jpg'></img></p>","null","","1550798776823","6","","","","","",""
"null","","html-keyboard-response","127","1050106","0.0-6.0-7.6","31","<p><img class= 'stimulus' src='images/baseline/03220v.jpg'></img></p>","null","","1550798776970","","","","","","",""
"null","","html-keyboard-response","128","1050256","0.0-6.0-8.6","31","<p><img class= 'stimulus left-rotate' src='images/target/landscape1.jpg'></img></p>","null","","1550798777121","8","","","","","",""
"null","","html-keyboard-response","129","1050407","0.0-6.0-9.6","31","<p><img class= 'stimulus' src='images/baseline/Sunset 5.jpg'></img></p>","null","","1550798777272","","","","","","",""
"null","","html-keyboard-response","130","1050557","0.0-6.0-10.6","31","<p><img class= 'stimulus' src='images/baseline/agriculture-cereal-clouds-175389.jpg'></img></p>","null","","1550798777421","","","","","","",""
"null","","html-keyboard-response","131","1050707","0.0-6.0-11.6","31","<p><img class= 'stimulus' src='images/baseline/03212v.jpg'></img></p>","null","","1550798777571","","","","","","",""
"null","","html-keyboard-response","132","1050857","0.0-6.0-12.6","31","<p><img class= 'stimulus' src='images/baseline/05186v.jpg'></img></p>","null","","1550798777721","12","","","","","",""
"null","","html-keyboard-response","133","1051007","0.0-6.0-13.6","31","<p><img class= 'stimulus' src='images/baseline/05139v.jpg'></img></p>","null","","1550798777872","","","","","","",""
"null","","html-keyboard-response","134","1051156","0.0-6.0-14.6","31","<p><img class= 'stimulus' src='images/baseline/Paysage_enneige_02.jpg'></img></p>","null","","1550798778021","14","","","","","",""
"null","","html-keyboard-response","135","1051307","0.0-6.0-15.6","31","<p><img class= 'stimulus' src='images/baseline/building16.jpg'></img></p>","null","","1550798778170","","","","","","",""
"null","","html-keyboard-response","136","1051456","0.0-6.0-16.6","31","<p><img class= 'stimulus' src='images/baseline/Sunset 3.jpg'></img></p>","null","","1550798778322","","","","","","",""
"null","","html-keyboard-response","137","1051624","0.0-6.0-17.6","31","<p><img class= 'stimulus' src='images/baseline/pexels-photo-351264.jpeg'></img></p>","null","","1550798778470","","","","","","",""
"2683.099999965634","","html-button-response","138","1055312","0.0-6.0-18.6","31","<div class = ""response_question"">WAS THE IMAGE ROTATED...</div>","","0","","","6","2","bas","left","practice","true"
"1958.5000000079162","","html-button-response","139","1057271","0.0-6.0-0.7","31","","","0","","","","","","","",""
"null","","html-keyboard-response","140","1057406","0.0-6.0-1.7","31","<p><img class= 'stimulus' src='images/baseline/05145v.jpg'></img></p>","null","","1550798784271","","","","","","",""
"null","","html-keyboard-response","141","1057556","0.0-6.0-2.7","31","<p><img class= 'stimulus' src='images/baseline/farmhouse3.jpg'></img></p>","null","","1550798784421","","","","","","",""
"null","","html-keyboard-response","142","1057707","0.0-6.0-3.7","31","<p><img class= 'stimulus' src='images/baseline/05189v.jpg'></img></p>","null","","1550798784571","","","","","","",""
"null","","html-keyboard-response","143","1057857","0.0-6.0-4.7","31","<p><img class= 'stimulus' src='images/baseline/Lake 5.jpg'></img></p>","null","","1550798784722","4","","","","","",""
"null","","html-keyboard-response","144","1058007","0.0-6.0-5.7","31","<p><img class= 'stimulus' src='images/baseline/building2.jpg'></img></p>","null","","1550798784871","","","","","","",""
"null","","html-keyboard-response","145","1058157","0.0-6.0-6.7","31","<p><img class= 'stimulus' src='images/baseline/04201v.jpg'></img></p>","null","","1550798785021","6","","","","","",""
"null","","html-keyboard-response","146","1058306","0.0-6.0-7.7","31","<p><img class= 'stimulus' src='images/baseline/03180v.jpg'></img></p>","null","","1550798785172","","","","","","",""
"null","","html-keyboard-response","147","1058456","0.0-6.0-8.7","31","<p><img class= 'stimulus' src='images/baseline/04179v.jpg'></img></p>","null","","1550798785321","8","","","","","",""
"null","","html-keyboard-response","148","1058606","0.0-6.0-9.7","31","<p><img class= 'stimulus' src='images/baseline/__08_-_ITALY_-_Forli_under_snow_-_winter_landscape_of_city_(christmas).jpg'></img></p>","null","","1550798785471","","","","","","",""
"null","","html-keyboard-response","149","1058757","0.0-6.0-10.7","31","<p><img class= 'stimulus' src='images/baseline/Road 1.jpg'></img></p>","null","","1550798785622","","","","","","",""
"null","","html-keyboard-response","150","1058907","0.0-6.0-11.7","31","<p><img class= 'stimulus' src='images/baseline/04162v.jpg'></img></p>","null","","1550798785771","","","","","","",""
"null","","html-keyboard-response","151","1059057","0.0-6.0-12.7","31","<p><img class= 'stimulus' src='images/target/building15.jpg'></img></p>","null","","1550798785920","12","","","","","",""
"null","","html-keyboard-response","152","1059207","0.0-6.0-13.7","31","<p><img class= 'stimulus' src='images/baseline/Paysage_karabagh_02.jpg'></img></p>","null","","1550798786071","","","","","","",""
"null","","html-keyboard-response","153","1059357","0.0-6.0-14.7","31","<p><img class= 'stimulus' src='images/baseline/lone-old-cottonwood-tree.jpg'></img></p>","null","","1550798786221","14","","","","","",""
"null","","html-keyboard-response","154","1059506","0.0-6.0-15.7","31","<p><img class= 'stimulus' src='images/baseline/house11.jpg'></img></p>","null","","1550798786372","","","","","","",""
"null","","html-keyboard-response","155","1059657","0.0-6.0-16.7","31","<p><img class= 'stimulus' src='images/baseline/04158v.jpg'></img></p>","null","","1550798786520","","","","","","",""
"null","","html-keyboard-response","156","1059823","0.0-6.0-17.7","31","<p><img class= 'stimulus' src='images/baseline/house2.jpg'></img></p>","null","","1550798786671","","","","","","",""
"6587.100000004284","","html-button-response","157","1067415","0.0-6.0-18.7","31","<div class = ""response_question"">WAS THE IMAGE ROTATED...</div>","","4","","","4","8","bas","right","practice","true"
"2214.5000000018626","","html-button-response","158","1069631","0.0-6.0-0.8","31","","","0","","","","","","","",""
"null","","html-keyboard-response","159","1069706","0.0-6.0-1.8","31","<p><img class= 'stimulus' src='images/baseline/04031v.jpg'></img></p>","null","","1550798796622","","","","","","",""
"null","","html-keyboard-response","160","1069807","0.0-6.0-2.8","31","<p><img class= 'stimulus' src='images/baseline/architecture-1314416_1920.jpg'></img></p>","null","","1550798796721","","","","","","",""
"null","","html-keyboard-response","161","1069907","0.0-6.0-3.8","31","<p><img class= 'stimulus' src='images/baseline/pexels-photo-808465.jpeg'></img></p>","null","","1550798796822","","","","","","",""
"null","","html-keyboard-response","162","1070007","0.0-6.0-4.8","31","<p><img class= 'stimulus' src='images/baseline/Path 1.jpg'></img></p>","null","","1550798796921","4","","","","","",""
"null","","html-keyboard-response","163","1070107","0.0-6.0-5.8","31","<p><img class= 'stimulus' src='images/baseline/05161v.jpg'></img></p>","null","","1550798797021","","","","","","",""
"null","","html-keyboard-response","164","1070207","0.0-6.0-6.8","31","<p><img class= 'stimulus' src='images/baseline/Sky 1.jpg'></img></p>","null","","1550798797121","6","","","","","",""
"null","","html-keyboard-response","165","1070307","0.0-6.0-7.8","31","<p><img class= 'stimulus' src='images/baseline/03112v.jpg'></img></p>","null","","1550798797221","","","","","","",""
"null","","html-keyboard-response","166","1070407","0.0-6.0-8.8","31","<p><img class= 'stimulus' src='images/baseline/pexels-photo-1048039.jpeg'></img></p>","null","","1550798797321","8","","","","","",""
"null","","html-keyboard-response","167","1070508","0.0-6.0-9.8","31","<p><img class= 'stimulus' src='images/baseline/lake3.jpg'></img></p>","null","","1550798797421","","","","","","",""
"null","","html-keyboard-response","168","1070606","0.0-6.0-10.8","31","<p><img class= 'stimulus' src='images/baseline/town-square-in-wroclaw-1539098440MZy.jpg'></img></p>","null","","1550798797522","","","","","","",""
"null","","html-keyboard-response","169","1070707","0.0-6.0-11.8","31","<p><img class= 'stimulus' src='images/baseline/04040v.jpg'></img></p>","null","","1550798797622","","","","","","",""
"null","","html-keyboard-response","170","1070806","0.0-6.0-12.8","31","<p><img class= 'stimulus' src='images/baseline/04021v.jpg'></img></p>","null","","1550798797722","12","","","","","",""
"null","","html-keyboard-response","171","1070907","0.0-6.0-13.8","31","<p><img class= 'stimulus' src='images/baseline/bird-flying-at-sunset.jpg'></img></p>","null","","1550798797821","","","","","","",""
"null","","html-keyboard-response","172","1071007","0.0-6.0-14.8","31","<p><img class= 'stimulus left-rotate' src='images/target/building3.jpg'></img></p>","null","","1550798797921","14","","","","","",""
"null","","html-keyboard-response","173","1071107","0.0-6.0-15.8","31","<p><img class= 'stimulus' src='images/baseline/05280v.jpg'></img></p>","null","","1550798798021","","","","","","",""
"null","","html-keyboard-response","174","1071207","0.0-6.0-16.8","31","<p><img class= 'stimulus' src='images/baseline/Kocherbaumwald-01.jpg'></img></p>","null","","1550798798121","","","","","","",""
"null","","html-keyboard-response","175","1071323","0.0-6.0-17.8","31","<p><img class= 'stimulus' src='images/baseline/hills 3.jpg'></img></p>","null","","1550798798221","","","","","","",""
"7175.000000046566","","html-button-response","176","1079505","0.0-6.0-18.8","31","<div class = ""response_question"">WAS THE IMAGE ROTATED...</div>","","1","","","6","8","bas","left","practice","true"
"2198.6000000033528","","html-button-response","177","1081704","0.0-6.0-0.9","31","","","0","","","","","","","",""
"null","","html-keyboard-response","178","1081791","0.0-6.0-1.9","31","<p><img class= 'stimulus' src='images/baseline/Waterfall 1.jpg'></img></p>","null","","1550798808705","","","","","","",""
"null","","html-keyboard-response","179","1081892","0.0-6.0-2.9","31","<p><img class= 'stimulus' src='images/baseline/04117v.jpg'></img></p>","null","","1550798808805","","","","","","",""
"null","","html-keyboard-response","180","1081992","0.0-6.0-3.9","31","<p><img class= 'stimulus' src='images/baseline/03114v.jpg'></img></p>","null","","1550798808905","","","","","","",""
"null","","html-keyboard-response","181","1082091","0.0-6.0-4.9","31","<p><img class= 'stimulus' src='images/baseline/road 1(1).jpg'></img></p>","null","","1550798809007","4","","","","","",""
"null","","html-keyboard-response","182","1082191","0.0-6.0-5.9","31","<p><img class= 'stimulus' src='images/baseline/02960v.jpg'></img></p>","null","","1550798809106","","","","","","",""
"null","","html-keyboard-response","183","1082291","0.0-6.0-6.9","31","<p><img class= 'stimulus' src='images/baseline/autumn-landscape-with-lake-fall-trees-mountains.jpg'></img></p>","null","","1550798809205","6","","","","","",""
"null","","html-keyboard-response","184","1082391","0.0-6.0-7.9","31","<p><img class= 'stimulus' src='images/baseline/road.jpg'></img></p>","null","","1550798809305","","","","","","",""
"null","","html-keyboard-response","185","1082491","0.0-6.0-8.9","31","<p><img class= 'stimulus left-rotate' src='images/target/Wild-West-South-West-Usa-Landscape-America-1663497.jpg'></img></p>","null","","1550798809405","8","","","","","",""
"null","","html-keyboard-response","186","1082591","0.0-6.0-9.9","31","<p><img class= 'stimulus' src='images/baseline/02962v.jpg'></img></p>","null","","1550798809506","","","","","","",""
"null","","html-keyboard-response","187","1082692","0.0-6.0-10.9","31","<p><img class= 'stimulus' src='images/baseline/Dirt 2.jpg'></img></p>","null","","1550798809606","","","","","","",""
"null","","html-keyboard-response","188","1082791","0.0-6.0-11.9","31","<p><img class= 'stimulus' src='images/baseline/pexels-photo-568236.jpeg'></img></p>","null","","1550798809706","","","","","","",""
"null","","html-keyboard-response","189","1082890","0.0-6.0-12.9","31","<p><img class= 'stimulus' src='images/baseline/farmhouse2.jpg'></img></p>","null","","1550798809806","12","","","","","",""
"null","","html-keyboard-response","190","1082991","0.0-6.0-13.9","31","<p><img class= 'stimulus' src='images/baseline/Lake 16.jpg'></img></p>","null","","1550798809906","","","","","","",""
"null","","html-keyboard-response","191","1083092","0.0-6.0-14.9","31","<p><img class= 'stimulus' src='images/baseline/landscape39.jpg'></img></p>","null","","1550798810006","14","","","","","",""
"null","","html-keyboard-response","192","1083191","0.0-6.0-15.9","31","<p><img class= 'stimulus' src='images/baseline/04130v.jpg'></img></p>","null","","1550798810106","","","","","","",""
"null","","html-keyboard-response","193","1083291","0.0-6.0-16.9","31","<p><img class= 'stimulus' src='images/baseline/hiking-trail.jpg'></img></p>","null","","1550798810206","","","","","","",""
"null","","html-keyboard-response","194","1083408","0.0-6.0-17.9","31","<p><img class= 'stimulus' src='images/baseline/02988v.jpg'></img></p>","null","","1550798810305","","","","","","",""
"3329.3999999877997","","html-button-response","195","1087745","0.0-6.0-18.9","31","<div class = ""response_question"">WAS THE IMAGE ROTATED...</div>","","2","","","6","2","bas","left","practice","false"
"2310.60000002617","","html-button-response","196","1090057","0.0-6.0-0.10","31","","","0","","","","","","","",""
"null","","html-keyboard-response","197","1090141","0.0-6.0-1.10","31","<p><img class= 'stimulus' src='images/baseline/lake 2.jpg'></img></p>","null","","1550798817056","","","","","","",""
"null","","html-keyboard-response","198","1090241","0.0-6.0-2.10","31","<p><img class= 'stimulus' src='images/baseline/Cold 7.jpg'></img></p>","null","","1550798817156","","","","","","",""
"null","","html-keyboard-response","199","1090342","0.0-6.0-3.10","31","<p><img class= 'stimulus' src='images/baseline/agriculture-bright-clouds-440731.jpg'></img></p>","null","","1550798817257","","","","","","",""
"null","","html-keyboard-response","200","1090441","0.0-6.0-4.10","31","<p><img class= 'stimulus' src='images/baseline/kokkari-1523011968Xfr.jpg'></img></p>","null","","1550798817356","4","","","","","",""
"null","","html-keyboard-response","201","1090542","0.0-6.0-5.10","31","<p><img class= 'stimulus' src='images/baseline/04060v.jpg'></img></p>","null","","1550798817456","","","","","","",""
"null","","html-keyboard-response","202","1090641","0.0-6.0-6.10","31","<p><img class= 'stimulus' src='images/baseline/Peyto_Lake-Banff_NP-Canada.jpg'></img></p>","null","","1550798817555","6","","","","","",""
"null","","html-keyboard-response","203","1090741","0.0-6.0-7.10","31","<p><img class= 'stimulus' src='images/baseline/05240v.jpg'></img></p>","null","","1550798817655","","","","","","",""
"null","","html-keyboard-response","204","1090841","0.0-6.0-8.10","31","<p><img class= 'stimulus' src='images/target/landscape_1.jpg'></img></p>","null","","1550798817756","8","","","","","",""
"null","","html-keyboard-response","205","1090942","0.0-6.0-9.10","31","<p><img class= 'stimulus' src='images/baseline/building8.jpg'></img></p>","null","","1550798817855","","","","","","",""
"null","","html-keyboard-response","206","1091042","0.0-6.0-10.10","31","<p><img class= 'stimulus' src='images/baseline/04229v.jpg'></img></p>","null","","1550798817955","","","","","","",""
"null","","html-keyboard-response","207","1091142","0.0-6.0-11.10","31","<p><img class= 'stimulus' src='images/baseline/Nature 2.jpg'></img></p>","null","","1550798818056","","","","","","",""
"null","","html-keyboard-response","208","1091241","0.0-6.0-12.10","31","<p><img class= 'stimulus' src='images/baseline/pexels-photo-1261728.jpeg'></img></p>","null","","1550798818156","12","","","","","",""
"null","","html-keyboard-response","209","1091341","0.0-6.0-13.10","31","<p><img class= 'stimulus' src='images/baseline/landscape34.jpg'></img></p>","null","","1550798818255","","","","","","",""
"null","","html-keyboard-response","210","1091441","0.0-6.0-14.10","31","<p><img class= 'stimulus' src='images/baseline/building3.jpg'></img></p>","null","","1550798818357","14","","","","","",""
"null","","html-keyboard-response","211","1091540","0.0-6.0-15.10","31","<p><img class= 'stimulus' src='images/baseline/Street 3.jpg'></img></p>","null","","1550798818456","","","","","","",""
"null","","html-keyboard-response","212","1091641","0.0-6.0-16.10","31","<p><img class= 'stimulus' src='images/baseline/Beach 8.jpg'></img></p>","null","","1550798818556","","","","","","",""
"null","","html-keyboard-response","213","1091758","0.0-6.0-17.10","31","<p><img class= 'stimulus' src='images/baseline/04193v.jpg'></img></p>","null","","1550798818655","","","","","","",""
"5018.899999966379","","html-button-response","214","1097785","0.0-6.0-18.10","31","<div class = ""response_question"">WAS THE IMAGE ROTATED...</div>","","4","","","6","2","bas","right","practice","true"
"1678.5999999847263","","html-button-response","215","1099464","0.0-6.0-0.11","31","","","0","","","","","","","",""
"null","","html-keyboard-response","216","1099542","0.0-6.0-1.11","31","<p><img class= 'stimulus' src='images/baseline/red-rocks-park.jpg'></img></p>","null","","1550798826457","","","","","","",""
"null","","html-keyboard-response","217","1099641","0.0-6.0-2.11","31","<p><img class= 'stimulus' src='images/baseline/landscape15.jpg'></img></p>","null","","1550798826556","","","","","","",""
"null","","html-keyboard-response","218","1099742","0.0-6.0-3.11","31","<p><img class= 'stimulus' src='images/baseline/flooded-bridge.jpg'></img></p>","null","","1550798826657","","","","","","",""
"null","","html-keyboard-response","219","1099840","0.0-6.0-4.11","31","<p><img class= 'stimulus' src='images/baseline/Lake 14.jpg'></img></p>","null","","1550798826756","4","","","","","",""
"null","","html-keyboard-response","220","1099942","0.0-6.0-5.11","31","<p><img class= 'stimulus' src='images/baseline/Aletschgletscher-Eggishorn.jpg'></img></p>","null","","1550798826856","","","","","","",""
"null","","html-keyboard-response","221","1100041","0.0-6.0-6.11","31","<p><img class= 'stimulus' src='images/baseline/landscape14.jpg'></img></p>","null","","1550798826956","6","","","","","",""
"null","","html-keyboard-response","222","1100141","0.0-6.0-7.11","31","<p><img class= 'stimulus' src='images/baseline/02971v.jpg'></img></p>","null","","1550798827057","","","","","","",""
"null","","html-keyboard-response","223","1100242","0.0-6.0-8.11","31","<p><img class= 'stimulus' src='images/baseline/Linden,_paysage.jpg'></img></p>","null","","1550798827156","8","","","","","",""
"null","","html-keyboard-response","224","1100341","0.0-6.0-9.11","31","<p><img class= 'stimulus' src='images/baseline/empire-state-building.jpg'></img></p>","null","","1550798827257","","","","","","",""
"null","","html-keyboard-response","225","1100441","0.0-6.0-10.11","31","<p><img class= 'stimulus' src='images/baseline/04014v.jpg'></img></p>","null","","1550798827356","","","","","","",""
"null","","html-keyboard-response","226","1100541","0.0-6.0-11.11","31","<p><img class= 'stimulus' src='images/baseline/building_at_national_conservation.jpg'></img></p>","null","","1550798827457","","","","","","",""
"null","","html-keyboard-response","227","1100642","0.0-6.0-12.11","31","<p><img class= 'stimulus' src='images/target/petronas-towers-433081_1920.jpg'></img></p>","null","","1550798827557","12","","","","","",""
"null","","html-keyboard-response","228","1100741","0.0-6.0-13.11","31","<p><img class= 'stimulus' src='images/baseline/04222v.jpg'></img></p>","null","","1550798827657","","","","","","",""
"null","","html-keyboard-response","229","1100841","0.0-6.0-14.11","31","<p><img class= 'stimulus' src='images/baseline/church-silhouette-8712964986014Kb.jpg'></img></p>","null","","1550798827757","14","","","","","",""
"null","","html-keyboard-response","230","1100940","0.0-6.0-15.11","31","<p><img class= 'stimulus' src='images/baseline/02945v.jpg'></img></p>","null","","1550798827856","","","","","","",""
"null","","html-keyboard-response","231","1101042","0.0-6.0-16.11","31","<p><img class= 'stimulus' src='images/baseline/Sunset 6.jpg'></img></p>","null","","1550798827957","","","","","","",""
"null","","html-keyboard-response","232","1101159","0.0-6.0-17.11","31","<p><img class= 'stimulus' src='images/baseline/vintage-art-deco-storefront.jpg'></img></p>","null","","1550798828056","","","","","","",""
"2365.300000004936","","html-button-response","233","1104529","0.0-6.0-18.11","31","<div class = ""response_question"">WAS THE IMAGE ROTATED...</div>","","3","","","4","8","bas","right","practice","true"
"1670.200000051409","","html-button-response","234","1106200","0.0-6.0-0.12","31","","","0","","","","","","","",""
"null","","html-keyboard-response","235","1106274","0.0-6.0-1.12","31","<p><img class= 'stimulus' src='images/baseline/landscape38.jpg'></img></p>","null","","1550798833189","","","","","","",""
"null","","html-keyboard-response","236","1106375","0.0-6.0-2.12","31","<p><img class= 'stimulus' src='images/baseline/03066v.jpg'></img></p>","null","","1550798833289","","","","","","",""
"null","","html-keyboard-response","237","1106475","0.0-6.0-3.12","31","<p><img class= 'stimulus' src='images/baseline/pexels-photo-534164.jpeg'></img></p>","null","","1550798833390","","","","","","",""
"null","","html-keyboard-response","238","1106574","0.0-6.0-4.12","31","<p><img class= 'stimulus' src='images/baseline/building5.jpg'></img></p>","null","","1550798833489","4","","","","","",""
"null","","html-keyboard-response","239","1106675","0.0-6.0-5.12","31","<p><img class= 'stimulus' src='images/baseline/farmhouse11.jpg'></img></p>","null","","1550798833589","","","","","","",""
"null","","html-keyboard-response","240","1106775","0.0-6.0-6.12","31","<p><img class= 'stimulus' src='images/target/buildin2.png'></img></p>","null","","1550798833689","6","","","","","",""
"null","","html-keyboard-response","241","1106875","0.0-6.0-7.12","31","<p><img class= 'stimulus' src='images/baseline/snowy tree.jpg'></img></p>","null","","1550798833790","","","","","","",""
"null","","html-keyboard-response","242","1106975","0.0-6.0-8.12","31","<p><img class= 'stimulus' src='images/baseline/house10.jpg'></img></p>","null","","1550798833890","8","","","","","",""
"null","","html-keyboard-response","243","1107075","0.0-6.0-9.12","31","<p><img class= 'stimulus' src='images/baseline/Sailing 3.jpg'></img></p>","null","","1550798833989","","","","","","",""
"null","","html-keyboard-response","244","1107174","0.0-6.0-10.12","31","<p><img class= 'stimulus' src='images/baseline/Street 2.jpg'></img></p>","null","","1550798834090","","","","","","",""
"null","","html-keyboard-response","245","1107275","0.0-6.0-11.12","31","<p><img class= 'stimulus' src='images/baseline/Lake 7.jpg'></img></p>","null","","1550798834189","","","","","","",""
"null","","html-keyboard-response","246","1107376","0.0-6.0-12.12","31","<p><img class= 'stimulus' src='images/baseline/pexels-photo-541101.jpeg'></img></p>","null","","1550798834289","12","","","","","",""
"null","","html-keyboard-response","247","1107474","0.0-6.0-13.12","31","<p><img class= 'stimulus' src='images/baseline/pexels-photo-210617.jpeg'></img></p>","null","","1550798834390","","","","","","",""
"null","","html-keyboard-response","248","1107575","0.0-6.0-14.12","31","<p><img class= 'stimulus' src='images/baseline/landscape23.jpg'></img></p>","null","","1550798834489","14","","","","","",""
"null","","html-keyboard-response","249","1107675","0.0-6.0-15.12","31","<p><img class= 'stimulus' src='images/baseline/farmhouse8.jpg'></img></p>","null","","1550798834589","","","","","","",""
"null","","html-keyboard-response","250","1107775","0.0-6.0-16.12","31","<p><img class= 'stimulus' src='images/baseline/valley 1.jpg'></img></p>","null","","1550798834689","","","","","","",""
"null","","html-keyboard-response","251","1107892","0.0-6.0-17.12","31","<p><img class= 'stimulus' src='images/baseline/Lake 8.jpg'></img></p>","null","","1550798834789","","","","","","",""
"2503.7000000011176","","html-button-response","252","1111401","0.0-6.0-18.12","31","<div class = ""response_question"">WAS THE IMAGE ROTATED...</div>","","4","","","4","2","bas","right","practice","true"
"1638.199999986682","","html-button-response","253","1113041","0.0-6.0-0.13","31","","","0","","","","","","","",""
"null","","html-keyboard-response","254","1113125","0.0-6.0-1.13","31","<p><img class= 'stimulus' src='images/baseline/pexels-photo-1840893.jpeg'></img></p>","null","","1550798840040","","","","","","",""
"null","","html-keyboard-response","255","1113225","0.0-6.0-2.13","31","<p><img class= 'stimulus' src='images/baseline/pexels-photo-280222.jpeg'></img></p>","null","","1550798840139","","","","","","",""
"null","","html-keyboard-response","256","1113325","0.0-6.0-3.13","31","<p><img class= 'stimulus' src='images/baseline/Skyscraper 1.jpg'></img></p>","null","","1550798840240","","","","","","",""
"null","","html-keyboard-response","257","1113424","0.0-6.0-4.13","31","<p><img class= 'stimulus' src='images/baseline/landscape35.jpg'></img></p>","null","","1550798840338","4","","","","","",""
"null","","html-keyboard-response","258","1113525","0.0-6.0-5.13","31","<p><img class= 'stimulus' src='images/baseline/05252v.jpg'></img></p>","null","","1550798840439","","","","","","",""
"null","","html-keyboard-response","259","1113625","0.0-6.0-6.13","31","<p><img class= 'stimulus left-rotate' src='images/target/building2.jpg'></img></p>","null","","1550798840539","6","","","","","",""
"null","","html-keyboard-response","260","1113725","0.0-6.0-7.13","31","<p><img class= 'stimulus' src='images/baseline/pexels-photo-894312.jpeg'></img></p>","null","","1550798840639","","","","","","",""
"null","","html-keyboard-response","261","1113825","0.0-6.0-8.13","31","<p><img class= 'stimulus' src='images/baseline/foreclosed_home.jpg'></img></p>","null","","1550798840739","8","","","","","",""
"null","","html-keyboard-response","262","1113925","0.0-6.0-9.13","31","<p><img class= 'stimulus' src='images/baseline/landscape6.jpg'></img></p>","null","","1550798840839","","","","","","",""
"null","","html-keyboard-response","263","1114024","0.0-6.0-10.13","31","<p><img class= 'stimulus' src='images/baseline/05264v.jpg'></img></p>","null","","1550798840939","","","","","","",""
"null","","html-keyboard-response","264","1114124","0.0-6.0-11.13","31","<p><img class= 'stimulus' src='images/baseline/farmhouse6.jpg'></img></p>","null","","1550798841040","","","","","","",""
"null","","html-keyboard-response","265","1114226","0.0-6.0-12.13","31","<p><img class= 'stimulus' src='images/baseline/Street 5.jpg'></img></p>","null","","1550798841140","12","","","","","",""
"null","","html-keyboard-response","266","1114324","0.0-6.0-13.13","31","<p><img class= 'stimulus' src='images/baseline/03217v.jpg'></img></p>","null","","1550798841240","","","","","","",""
"null","","html-keyboard-response","267","1114425","0.0-6.0-14.13","31","<p><img class= 'stimulus' src='images/baseline/99_-_Machu_Picchu_-_Juin_2009.edit3.jpg'></img></p>","null","","1550798841340","14","","","","","",""
"null","","html-keyboard-response","268","1114524","0.0-6.0-15.13","31","<p><img class= 'stimulus' src='images/baseline/05242v.jpg'></img></p>","null","","1550798841439","","","","","","",""
"null","","html-keyboard-response","269","1114625","0.0-6.0-16.13","31","<p><img class= 'stimulus' src='images/baseline/pexels-photo-259280.jpeg'></img></p>","null","","1550798841539","","","","","","",""
"null","","html-keyboard-response","270","1114741","0.0-6.0-17.13","31","<p><img class= 'stimulus' src='images/baseline/Beach 3.jpg'></img></p>","null","","1550798841639","","","","","","",""
"1570.2000000164844","","html-button-response","271","1117320","0.0-6.0-18.13","31","<div class = ""response_question"">WAS THE IMAGE ROTATED...</div>","","0","","","4","2","bas","left","practice","true"
"1094.699999957811","","html-button-response","272","1118417","0.0-6.0-0.14","31","","","0","","","","","","","",""
"null","","html-keyboard-response","273","1118491","0.0-6.0-1.14","31","<p><img class= 'stimulus' src='images/baseline/03063v.jpg'></img></p>","null","","1550798845406","","","","","","",""
"null","","html-keyboard-response","274","1118591","0.0-6.0-2.14","31","<p><img class= 'stimulus' src='images/baseline/landscape2.jpg'></img></p>","null","","1550798845506","","","","","","",""
"null","","html-keyboard-response","275","1118691","0.0-6.0-3.14","31","<p><img class= 'stimulus' src='images/baseline/05167v.jpg'></img></p>","null","","1550798845607","","","","","","",""
"null","","html-keyboard-response","276","1118791","0.0-6.0-4.14","31","<p><img class= 'stimulus' src='images/baseline/house3.jpg'></img></p>","null","","1550798845706","4","","","","","",""
"null","","html-keyboard-response","277","1118892","0.0-6.0-5.14","31","<p><img class= 'stimulus' src='images/baseline/landscape33.jpg'></img></p>","null","","1550798845806","","","","","","",""
"null","","html-keyboard-response","278","1118991","0.0-6.0-6.14","31","<p><img class= 'stimulus' src='images/baseline/field 1.jpg'></img></p>","null","","1550798845906","6","","","","","",""
"null","","html-keyboard-response","279","1119092","0.0-6.0-7.14","31","<p><img class= 'stimulus' src='images/baseline/landscape8.jpg'></img></p>","null","","1550798846006","","","","","","",""
"null","","html-keyboard-response","280","1119192","0.0-6.0-8.14","31","<p><img class= 'stimulus' src='images/baseline/03098v.jpg'></img></p>","null","","1550798846106","8","","","","","",""
"null","","html-keyboard-response","281","1119291","0.0-6.0-9.14","31","<p><img class= 'stimulus' src='images/baseline/Happy pose 3.jpg'></img></p>","null","","1550798846206","","","","","","",""
"null","","html-keyboard-response","282","1119391","0.0-6.0-10.14","31","<p><img class= 'stimulus' src='images/baseline/tennis-court-net-buried-in-snow.jpg'></img></p>","null","","1550798846307","","","","","","",""
"null","","html-keyboard-response","283","1119491","0.0-6.0-11.14","31","<p><img class= 'stimulus' src='images/baseline/04098v.jpg'></img></p>","null","","1550798846405","","","","","","",""
"null","","html-keyboard-response","284","1119591","0.0-6.0-12.14","31","<p><img class= 'stimulus left-rotate' src='images/target/tree.jpeg'></img></p>","null","","1550798846506","12","","","","","",""
"null","","html-keyboard-response","285","1119691","0.0-6.0-13.14","31","<p><img class= 'stimulus' src='images/baseline/chicago-skyline-at-night-1476869511p8U.jpg'></img></p>","null","","1550798846605","","","","","","",""
"null","","html-keyboard-response","286","1119791","0.0-6.0-14.14","31","<p><img class= 'stimulus' src='images/baseline/05292v.jpg'></img></p>","null","","1550798846705","14","","","","","",""
"null","","html-keyboard-response","287","1119891","0.0-6.0-15.14","31","<p><img class= 'stimulus' src='images/baseline/02947v.jpg'></img></p>","null","","1550798846805","","","","","","",""
"null","","html-keyboard-response","288","1119992","0.0-6.0-16.14","31","<p><img class= 'stimulus' src='images/baseline/Street 1.jpg'></img></p>","null","","1550798846907","","","","","","",""
"null","","html-keyboard-response","289","1120108","0.0-6.0-17.14","31","<p><img class= 'stimulus' src='images/baseline/02977v.jpg'></img></p>","null","","1550798847006","","","","","","",""
"3937.2999999905005","","html-button-response","290","1125057","0.0-6.0-18.14","31","<div class = ""response_question"">WAS THE IMAGE ROTATED...</div>","","1","","","4","8","bas","left","practice","true"
"2462.0999999460764","","html-button-response","291","1127520","0.0-6.0-0.15","31","","","0","","","","","","","",""
"null","","html-keyboard-response","292","1127609","0.0-6.0-1.15","31","<p><img class= 'stimulus' src='images/baseline/Desert_View_Indian_Wells.jpg'></img></p>","null","","1550798854523","","","","","","",""
"null","","html-keyboard-response","293","1127709","0.0-6.0-2.15","31","<p><img class= 'stimulus' src='images/baseline/hills 4.jpg'></img></p>","null","","1550798854624","","","","","","",""
"null","","html-keyboard-response","294","1127808","0.0-6.0-3.15","31","<p><img class= 'stimulus' src='images/baseline/seoul-410266_1920.jpg'></img></p>","null","","1550798854723","","","","","","",""
"null","","html-keyboard-response","295","1127909","0.0-6.0-4.15","31","<p><img class= 'stimulus' src='images/baseline/04062v.jpg'></img></p>","null","","1550798854823","4","","","","","",""
"null","","html-keyboard-response","296","1128008","0.0-6.0-5.15","31","<p><img class= 'stimulus' src='images/baseline/red rocks from afar.jpg'></img></p>","null","","1550798854923","","","","","","",""
"null","","html-keyboard-response","297","1128109","0.0-6.0-6.15","31","<p><img class= 'stimulus' src='images/baseline/field 2.jpg'></img></p>","null","","1550798855023","6","","","","","",""
"null","","html-keyboard-response","298","1128209","0.0-6.0-7.15","31","<p><img class= 'stimulus' src='images/baseline/Bridge 1.jpg'></img></p>","null","","1550798855123","","","","","","",""
"null","","html-keyboard-response","299","1128308","0.0-6.0-8.15","31","<p><img class= 'stimulus' src='images/baseline/architecture_modern_architecture_852928.jpg'></img></p>","null","","1550798855224","8","","","","","",""
"null","","html-keyboard-response","300","1128408","0.0-6.0-9.15","31","<p><img class= 'stimulus' src='images/baseline/Lake 9.jpg'></img></p>","null","","1550798855322","","","","","","",""
"null","","html-keyboard-response","301","1128508","0.0-6.0-10.15","31","<p><img class= 'stimulus' src='images/baseline/03075v.jpg'></img></p>","null","","1550798855423","","","","","","",""
"null","","html-keyboard-response","302","1128608","0.0-6.0-11.15","31","<p><img class= 'stimulus' src='images/baseline/Lake 4.jpg'></img></p>","null","","1550798855523","","","","","","",""
"null","","html-keyboard-response","303","1128708","0.0-6.0-12.15","31","<p><img class= 'stimulus' src='images/baseline/02982v.jpg'></img></p>","null","","1550798855622","12","","","","","",""
"null","","html-keyboard-response","304","1128808","0.0-6.0-13.15","31","<p><img class= 'stimulus' src='images/baseline/__08_-_ITALY_-_Forli_under_snow_-_winter_landscape_of_city_(christmas).jpg'></img></p>","null","","1550798855723","","","","","","",""
"null","","html-keyboard-response","305","1128909","0.0-6.0-14.15","31","<p><img class= 'stimulus' src='images/target/landscape3.jpg'></img></p>","null","","1550798855823","14","","","","","",""
"null","","html-keyboard-response","306","1129008","0.0-6.0-15.15","31","<p><img class= 'stimulus' src='images/baseline/03098v.jpg'></img></p>","null","","1550798855922","","","","","","",""
"null","","html-keyboard-response","307","1129107","0.0-6.0-16.15","31","<p><img class= 'stimulus' src='images/baseline/landscape19.jpg'></img></p>","null","","1550798856023","","","","","","",""
"null","","html-keyboard-response","308","1129225","0.0-6.0-17.15","31","<p><img class= 'stimulus' src='images/baseline/hills 4.jpg'></img></p>","null","","1550798856123","","","","","","",""
"2250.400000018999","","html-button-response","309","1132481","0.0-6.0-18.15","31","<div class = ""response_question"">WAS THE IMAGE ROTATED...</div>","","3","","","6","8","bas","right","practice","true"
"47870.10000000009","","html-button-response","310","1180363","0.0-7.0","31","<p>You have now completed the practice phase. We will now begin the real trials.         This is a reminder that you will be searching for a rotated image among the series of upright images.</p>         <p>Remember, please do not blink or move your eyes while the images are on the screen.</p>         <p>At the end of the experiment, the experimenter will be able to show you how accurate you were.</p>","","0","","","","","","","",""
"2534.700000018347","","html-button-response","311","1182898","0.0-8.0-0.0-0.0","31","","","0","","","","","","","",""
"null","","html-keyboard-response","312","1182985","0.0-8.0-0.0-1.0","31","<p><img class= 'stimulus' src='images/baseline/05131v.jpg'></img></p>","null","","1550798909899","","","","","","",""
"null","","html-keyboard-response","313","1183085","0.0-8.0-0.0-2.0","31","<p><img class= 'stimulus' src='images/baseline/03056v.jpg'></img></p>","null","","1550798910000","","","","","","",""
"null","","html-keyboard-response","314","1183186","0.0-8.0-0.0-3.0","31","<p><img class= 'stimulus' src='images/baseline/house6.jpg'></img></p>","null","","1550798910100","","","","","","",""
"null","","html-keyboard-response","315","1183286","0.0-8.0-0.0-4.0","31","<p><img class= 'stimulus' src='images/baseline/02982v.jpg'></img></p>","null","","1550798910200","4","","","","","",""
"null","","html-keyboard-response","316","1183386","0.0-8.0-0.0-5.0","31","<p><img class= 'stimulus' src='images/baseline/cyrillic.jpg'></img></p>","null","","1550798910301","","","","","","",""
"null","","html-keyboard-response","317","1183486","0.0-8.0-0.0-6.0","31","<p><img class= 'stimulus' src='images/negative/Shark 4.jpg'></img></p>","null","","1550798910400","6","","","","","",""
"null","","html-keyboard-response","318","1183585","0.0-8.0-0.0-7.0","31","<p><img class= 'stimulus' src='images/baseline/landscape3.jpg'></img></p>","null","","1550798910500","","","","","","",""
"null","","html-keyboard-response","319","1183686","0.0-8.0-0.0-8.0","31","<p><img class= 'stimulus' src='images/target/oak-1913194_640.jpg'></img></p>","null","","1550798910601","8","","","","","",""
"null","","html-keyboard-response","320","1183787","0.0-8.0-0.0-9.0","31","<p><img class= 'stimulus' src='images/baseline/building_at_national_conservation.jpg'></img></p>","null","","1550798910701","","","","","","",""
"null","","html-keyboard-response","321","1183885","0.0-8.0-0.0-10.0","31","<p><img class= 'stimulus' src='images/baseline/agriculture-cereal-clouds-175389.jpg'></img></p>","null","","1550798910800","","","","","","",""
"null","","html-keyboard-response","322","1183985","0.0-8.0-0.0-11.0","31","<p><img class= 'stimulus' src='images/baseline/agriculture-bright-clouds-440731.jpg'></img></p>","null","","1550798910902","","","","","","",""
"null","","html-keyboard-response","323","1184085","0.0-8.0-0.0-12.0","31","<p><img class= 'stimulus' src='images/baseline/02947v.jpg'></img></p>","null","","1550798910999","12","","","","","",""
"null","","html-keyboard-response","324","1184186","0.0-8.0-0.0-13.0","31","<p><img class= 'stimulus' src='images/baseline/Street 5.jpg'></img></p>","null","","1550798911099","","","","","","",""
"null","","html-keyboard-response","325","1184286","0.0-8.0-0.0-14.0","31","<p><img class= 'stimulus' src='images/baseline/Beach 2.jpg'></img></p>","null","","1550798911199","14","","","","","",""
"null","","html-keyboard-response","326","1184385","0.0-8.0-0.0-15.0","31","<p><img class= 'stimulus' src='images/baseline/05242v.jpg'></img></p>","null","","1550798911300","","","","","","",""
"null","","html-keyboard-response","327","1184486","0.0-8.0-0.0-16.0","31","<p><img class= 'stimulus' src='images/baseline/04284v.jpg'></img></p>","null","","1550798911400","","","","","","",""
"null","","html-keyboard-response","328","1184602","0.0-8.0-0.0-17.0","31","<p><img class= 'stimulus' src='images/baseline/cranes 1.jpg'></img></p>","null","","1550798911500","","","","","","",""
"1620.4000000143424","","html-button-response","329","1187234","0.0-8.0-0.0-18.0","31","<div class = ""response_question"">WAS THE IMAGE ROTATED...</div>","","3","","","6","2","neg","right","test","true"
"2286.2000000313856","","html-button-response","330","1189523","0.0-8.0-0.0-0.1","31","","","0","","","","","","","",""
"null","","html-keyboard-response","331","1189604","0.0-8.0-0.0-1.1","31","<p><img class= 'stimulus' src='images/baseline/lake3.jpg'></img></p>","null","","1550798916517","","","","","","",""
"null","","html-keyboard-response","332","1189703","0.0-8.0-0.0-2.1","31","<p><img class= 'stimulus' src='images/baseline/kokkari-1523011968Xfr.jpg'></img></p>","null","","1550798916618","","","","","","",""
"null","","html-keyboard-response","333","1189804","0.0-8.0-0.0-3.1","31","<p><img class= 'stimulus' src='images/baseline/landscape15.jpg'></img></p>","null","","1550798916718","","","","","","",""
"null","","html-keyboard-response","334","1189903","0.0-8.0-0.0-4.1","31","<p><img class= 'stimulus' src='images/baseline/02977v.jpg'></img></p>","null","","1550798916818","4","","","","","",""
"null","","html-keyboard-response","335","1190003","0.0-8.0-0.0-5.1","31","<p><img class= 'stimulus' src='images/baseline/lake 2.jpg'></img></p>","null","","1550798916918","","","","","","",""
"null","","html-keyboard-response","336","1190103","0.0-8.0-0.0-6.1","31","<p><img class= 'stimulus' src='images/baseline/Lake 16.jpg'></img></p>","null","","1550798917018","6","","","","","",""
"null","","html-keyboard-response","337","1190203","0.0-8.0-0.0-7.1","31","<p><img class= 'stimulus' src='images/baseline/Bahia_Onelli_Parque_Nacional_Los_Glaciares_Patagonia_Argentina_Luca_Galuzzi_2005.jpg'></img></p>","null","","1550798917117","","","","","","",""
"null","","html-keyboard-response","338","1190303","0.0-8.0-0.0-8.1","31","<p><img class= 'stimulus' src='images/baseline/foreclosed_home.jpg'></img></p>","null","","1550798917219","8","","","","","",""
"null","","html-keyboard-response","339","1190403","0.0-8.0-0.0-9.1","31","<p><img class= 'stimulus' src='images/baseline/Lake 8.jpg'></img></p>","null","","1550798917317","","","","","","",""
"null","","html-keyboard-response","340","1190502","0.0-8.0-0.0-10.1","31","<p><img class= 'stimulus' src='images/baseline/03045v.jpg'></img></p>","null","","1550798917418","","","","","","",""
"null","","html-keyboard-response","341","1190602","0.0-8.0-0.0-11.1","31","<p><img class= 'stimulus' src='images/baseline/landscape17.jpg'></img></p>","null","","1550798917518","","","","","","",""
"null","","html-keyboard-response","342","1190702","0.0-8.0-0.0-12.1","31","<p><img class= 'stimulus' src='images/target/tree-197536_640.jpg'></img></p>","null","","1550798917617","12","","","","","",""
"null","","html-keyboard-response","343","1190802","0.0-8.0-0.0-13.1","31","<p><img class= 'stimulus' src='images/baseline/05167v.jpg'></img></p>","null","","1550798917716","","","","","","",""
"null","","html-keyboard-response","344","1190903","0.0-8.0-0.0-14.1","31","<p><img class= 'stimulus' src='images/baseline/flooded-bridge.jpg'></img></p>","null","","1550798917818","14","","","","","",""
"null","","html-keyboard-response","345","1191003","0.0-8.0-0.0-15.1","31","<p><img class= 'stimulus' src='images/baseline/pexels-photo-427676.jpeg'></img></p>","null","","1550798917918","","","","","","",""
"null","","html-keyboard-response","346","1191103","0.0-8.0-0.0-16.1","31","<p><img class= 'stimulus' src='images/baseline/chicago-skyline-at-night-1476869511p8U.jpg'></img></p>","null","","1550798918016","","","","","","",""
"null","","html-keyboard-response","347","1191219","0.0-8.0-0.0-17.1","31","<p><img class= 'stimulus' src='images/baseline/field 4.jpg'></img></p>","null","","1550798918117","","","","","","",""
"1599.6000000159256","","html-button-response","348","1193827","0.0-8.0-0.0-18.1","31","<div class = ""response_question"">WAS THE IMAGE ROTATED...</div>","","3","","","4","8","bas","right","test","true"
"2102.400000032503","","html-button-response","349","1195930","0.0-8.0-0.0-0.2","31","","","0","","","","","","","",""
"null","","html-keyboard-response","350","1196003","0.0-8.0-0.0-1.2","31","<p><img class= 'stimulus' src='images/baseline/city-silhouette-at-sunset-871291580819Esw.jpg'></img></p>","null","","1550798922916","","","","","","",""
"null","","html-keyboard-response","351","1196103","0.0-8.0-0.0-2.2","31","<p><img class= 'stimulus' src='images/baseline/Linden,_paysage.jpg'></img></p>","null","","1550798923017","","","","","","",""
"null","","html-keyboard-response","352","1196203","0.0-8.0-0.0-3.2","31","<p><img class= 'stimulus' src='images/baseline/tennis-court-net-buried-in-snow.jpg'></img></p>","null","","1550798923118","","","","","","",""
"null","","html-keyboard-response","353","1196302","0.0-8.0-0.0-4.2","31","<p><img class= 'stimulus' src='images/negative/Cockroach 3.jpg'></img></p>","null","","1550798923217","4","","","","","",""
"null","","html-keyboard-response","354","1196403","0.0-8.0-0.0-5.2","31","<p><img class= 'stimulus' src='images/baseline/04196v.jpg'></img></p>","null","","1550798923317","","","","","","",""
"null","","html-keyboard-response","355","1196503","0.0-8.0-0.0-6.2","31","<p><img class= 'stimulus' src='images/target/pexels-photo-1123982.jpeg'></img></p>","null","","1550798923417","6","","","","","",""
"null","","html-keyboard-response","356","1196602","0.0-8.0-0.0-7.2","31","<p><img class= 'stimulus' src='images/baseline/landscape12.jpg'></img></p>","null","","1550798923517","","","","","","",""
"null","","html-keyboard-response","357","1196702","0.0-8.0-0.0-8.2","31","<p><img class= 'stimulus' src='images/baseline/05303v.jpg'></img></p>","null","","1550798923617","8","","","","","",""
"null","","html-keyboard-response","358","1196802","0.0-8.0-0.0-9.2","31","<p><img class= 'stimulus' src='images/baseline/03063v.jpg'></img></p>","null","","1550798923717","","","","","","",""
"null","","html-keyboard-response","359","1196903","0.0-8.0-0.0-10.2","31","<p><img class= 'stimulus' src='images/baseline/red rocks from afar.jpg'></img></p>","null","","1550798923818","","","","","","",""
"null","","html-keyboard-response","360","1197002","0.0-8.0-0.0-11.2","31","<p><img class= 'stimulus' src='images/baseline/valley 1.jpg'></img></p>","null","","1550798923916","","","","","","",""
"null","","html-keyboard-response","361","1197103","0.0-8.0-0.0-12.2","31","<p><img class= 'stimulus' src='images/baseline/04193v.jpg'></img></p>","null","","1550798924017","12","","","","","",""
"null","","html-keyboard-response","362","1197204","0.0-8.0-0.0-13.2","31","<p><img class= 'stimulus' src='images/baseline/05186v.jpg'></img></p>","null","","1550798924117","","","","","","",""
"null","","html-keyboard-response","363","1197303","0.0-8.0-0.0-14.2","31","<p><img class= 'stimulus' src='images/baseline/landscape22.jpg'></img></p>","null","","1550798924217","14","","","","","",""
"null","","html-keyboard-response","364","1197402","0.0-8.0-0.0-15.2","31","<p><img class= 'stimulus' src='images/baseline/02988v.jpg'></img></p>","null","","1550798924317","","","","","","",""
"null","","html-keyboard-response","365","1197503","0.0-8.0-0.0-16.2","31","<p><img class= 'stimulus' src='images/baseline/building12.jpg'></img></p>","null","","1550798924417","","","","","","",""
"null","","html-keyboard-response","366","1197619","0.0-8.0-0.0-17.2","31","<p><img class= 'stimulus' src='images/baseline/05252v.jpg'></img></p>","null","","1550798924517","","","","","","",""
"906.9000000017695","","html-button-response","367","1199531","0.0-8.0-0.0-18.2","31","<div class = ""response_question"">WAS THE IMAGE ROTATED...</div>","","4","","","4","2","neg","right","test","true"
"1462.100000004284","","html-button-response","368","1200994","0.0-8.0-0.0-0.3","31","","","0","","","","","","","",""
"null","","html-keyboard-response","369","1201069","0.0-8.0-0.0-1.3","31","<p><img class= 'stimulus' src='images/baseline/03114v.jpg'></img></p>","null","","1550798927984","","","","","","",""
"null","","html-keyboard-response","370","1201170","0.0-8.0-0.0-2.3","31","<p><img class= 'stimulus' src='images/baseline/sun-through-winter-tree-branches1.jpg'></img></p>","null","","1550798928083","","","","","","",""
"null","","html-keyboard-response","371","1201270","0.0-8.0-0.0-3.3","31","<p><img class= 'stimulus' src='images/baseline/landscape13.jpg'></img></p>","null","","1550798928183","","","","","","",""
"null","","html-keyboard-response","372","1201370","0.0-8.0-0.0-4.3","31","<p><img class= 'stimulus' src='images/baseline/04062v.jpg'></img></p>","null","","1550798928283","4","","","","","",""
"null","","html-keyboard-response","373","1201469","0.0-8.0-0.0-5.3","31","<p><img class= 'stimulus' src='images/baseline/Sunset 5.jpg'></img></p>","null","","1550798928384","","","","","","",""
"null","","html-keyboard-response","374","1201569","0.0-8.0-0.0-6.3","31","<p><img class= 'stimulus' src='images/baseline/Sunset 3.jpg'></img></p>","null","","1550798928484","6","","","","","",""
"null","","html-keyboard-response","375","1201669","0.0-8.0-0.0-7.3","31","<p><img class= 'stimulus' src='images/baseline/04130v.jpg'></img></p>","null","","1550798928584","","","","","","",""
"null","","html-keyboard-response","376","1201769","0.0-8.0-0.0-8.3","31","<p><img class= 'stimulus' src='images/baseline/04060v.jpg'></img></p>","null","","1550798928684","8","","","","","",""
"null","","html-keyboard-response","377","1201869","0.0-8.0-0.0-9.3","31","<p><img class= 'stimulus' src='images/baseline/Lake 9.jpg'></img></p>","null","","1550798928784","","","","","","",""
"null","","html-keyboard-response","378","1201969","0.0-8.0-0.0-10.3","31","<p><img class= 'stimulus' src='images/baseline/town-square-in-wroclaw-1539098440MZy.jpg'></img></p>","null","","1550798928883","","","","","","",""
"null","","html-keyboard-response","379","1202069","0.0-8.0-0.0-11.3","31","<p><img class= 'stimulus' src='images/baseline/04063v.jpg'></img></p>","null","","1550798928985","","","","","","",""
"null","","html-keyboard-response","380","1202169","0.0-8.0-0.0-12.3","31","<p><img class= 'stimulus' src='images/target/landscape32.jpg'></img></p>","null","","1550798929084","12","","","","","",""
"null","","html-keyboard-response","381","1202269","0.0-8.0-0.0-13.3","31","<p><img class= 'stimulus' src='images/baseline/autumn-in-red-rocks-park.jpg'></img></p>","null","","1550798929183","","","","","","",""
"null","","html-keyboard-response","382","1202369","0.0-8.0-0.0-14.3","31","<p><img class= 'stimulus' src='images/baseline/landscape38.jpg'></img></p>","null","","1550798929284","14","","","","","",""
"null","","html-keyboard-response","383","1202469","0.0-8.0-0.0-15.3","31","<p><img class= 'stimulus' src='images/baseline/Lake 5.jpg'></img></p>","null","","1550798929383","","","","","","",""
"null","","html-keyboard-response","384","1202570","0.0-8.0-0.0-16.3","31","<p><img class= 'stimulus' src='images/baseline/valley 2.jpg'></img></p>","null","","1550798929484","","","","","","",""
"null","","html-keyboard-response","385","1202685","0.0-8.0-0.0-17.3","31","<p><img class= 'stimulus' src='images/baseline/pexels-photo-541101.jpeg'></img></p>","null","","1550798929584","","","","","","",""
"8007.199999992736","","html-button-response","386","1211699","0.0-8.0-0.0-18.3","31","<div class = ""response_question"">WAS THE IMAGE ROTATED...</div>","","4","","","4","8","bas","right","test","true"
"2438.099999970291","","html-button-response","387","1214138","0.0-8.0-0.0-0.4","31","","","0","","","","","","","",""
"null","","html-keyboard-response","388","1214220","0.0-8.0-0.0-1.4","31","<p><img class= 'stimulus' src='images/baseline/building5.jpg'></img></p>","null","","1550798941133","","","","","","",""
"null","","html-keyboard-response","389","1214319","0.0-8.0-0.0-2.4","31","<p><img class= 'stimulus' src='images/baseline/Dirt 2.jpg'></img></p>","null","","1550798941233","","","","","","",""
"null","","html-keyboard-response","390","1214418","0.0-8.0-0.0-3.4","31","<p><img class= 'stimulus' src='images/baseline/Nature 1.jpg'></img></p>","null","","1550798941333","","","","","","",""
"null","","html-keyboard-response","391","1214520","0.0-8.0-0.0-4.4","31","<p><img class= 'stimulus' src='images/baseline/05139v.jpg'></img></p>","null","","1550798941433","4","","","","","",""
"null","","html-keyboard-response","392","1214619","0.0-8.0-0.0-5.4","31","<p><img class= 'stimulus' src='images/baseline/landscape33.jpg'></img></p>","null","","1550798941534","","","","","","",""
"null","","html-keyboard-response","393","1214719","0.0-8.0-0.0-6.4","31","<p><img class= 'stimulus' src='images/baseline/05198v.jpg'></img></p>","null","","1550798941634","6","","","","","",""
"null","","html-keyboard-response","394","1214819","0.0-8.0-0.0-7.4","31","<p><img class= 'stimulus' src='images/baseline/Skijump 1.jpg'></img></p>","null","","1550798941734","","","","","","",""
"null","","html-keyboard-response","395","1214919","0.0-8.0-0.0-8.4","31","<p><img class= 'stimulus' src='images/baseline/pexels-photo-1840893.jpeg'></img></p>","null","","1550798941833","8","","","","","",""
"null","","html-keyboard-response","396","1215019","0.0-8.0-0.0-9.4","31","<p><img class= 'stimulus' src='images/baseline/snowy tree.jpg'></img></p>","null","","1550798941933","","","","","","",""
"null","","html-keyboard-response","397","1215119","0.0-8.0-0.0-10.4","31","<p><img class= 'stimulus' src='images/baseline/Paysage_karabagh_02.jpg'></img></p>","null","","1550798942034","","","","","","",""
"null","","html-keyboard-response","398","1215220","0.0-8.0-0.0-11.4","31","<p><img class= 'stimulus' src='images/baseline/Cold 7.jpg'></img></p>","null","","1550798942134","","","","","","",""
"null","","html-keyboard-response","399","1215319","0.0-8.0-0.0-12.4","31","<p><img class= 'stimulus' src='images/baseline/Beach 3.jpg'></img></p>","null","","1550798942233","12","","","","","",""
"null","","html-keyboard-response","400","1215419","0.0-8.0-0.0-13.4","31","<p><img class= 'stimulus' src='images/baseline/05255v.jpg'></img></p>","null","","1550798942334","","","","","","",""
"null","","html-keyboard-response","401","1215518","0.0-8.0-0.0-14.4","31","<p><img class= 'stimulus left-rotate' src='images/target/tree spring.jpeg'></img></p>","null","","1550798942433","14","","","","","",""
"null","","html-keyboard-response","402","1215619","0.0-8.0-0.0-15.4","31","<p><img class= 'stimulus' src='images/baseline/04162v.jpg'></img></p>","null","","1550798942535","","","","","","",""
"null","","html-keyboard-response","403","1215719","0.0-8.0-0.0-16.4","31","<p><img class= 'stimulus' src='images/baseline/church-silhouette-8712964986014Kb.jpg'></img></p>","null","","1550798942635","","","","","","",""
"null","","html-keyboard-response","404","1215836","0.0-8.0-0.0-17.4","31","<p><img class= 'stimulus' src='images/baseline/04201v.jpg'></img></p>","null","","1550798942735","","","","","","",""
"3620.8999999798834","","html-button-response","405","1220474","0.0-8.0-0.0-18.4","31","<div class = ""response_question"">WAS THE IMAGE ROTATED...</div>","","0","","","6","8","bas","left","test","true"
"4486.499999999069","","html-button-response","406","1224962","0.0-8.0-0.0-0.5","31","","","0","","","","","","","",""
"null","","html-keyboard-response","407","1225036","0.0-8.0-0.0-1.5","31","<p><img class= 'stimulus' src='images/baseline/05179v.jpg'></img></p>","null","","1550798951949","","","","","","",""
"null","","html-keyboard-response","408","1225135","0.0-8.0-0.0-2.5","31","<p><img class= 'stimulus' src='images/baseline/road.jpg'></img></p>","null","","1550798952051","","","","","","",""
"null","","html-keyboard-response","409","1225236","0.0-8.0-0.0-3.5","31","<p><img class= 'stimulus' src='images/baseline/house2.jpg'></img></p>","null","","1550798952151","","","","","","",""
"null","","html-keyboard-response","410","1225335","0.0-8.0-0.0-4.5","31","<p><img class= 'stimulus' src='images/baseline/river 1.jpg'></img></p>","null","","1550798952250","4","","","","","",""
"null","","html-keyboard-response","411","1225436","0.0-8.0-0.0-5.5","31","<p><img class= 'stimulus' src='images/baseline/Street 2.jpg'></img></p>","null","","1550798952350","","","","","","",""
"null","","html-keyboard-response","412","1225535","0.0-8.0-0.0-6.5","31","<p><img class= 'stimulus' src='images/negative/Cockroach 4.jpg'></img></p>","null","","1550798952450","6","","","","","",""
"null","","html-keyboard-response","413","1225636","0.0-8.0-0.0-7.5","31","<p><img class= 'stimulus' src='images/baseline/vintage-art-deco-storefront.jpg'></img></p>","null","","1550798952550","","","","","","",""
"null","","html-keyboard-response","414","1225736","0.0-8.0-0.0-8.5","31","<p><img class= 'stimulus' src='images/baseline/Lake 3.jpg'></img></p>","null","","1550798952650","8","","","","","",""
"null","","html-keyboard-response","415","1225836","0.0-8.0-0.0-9.5","31","<p><img class= 'stimulus' src='images/baseline/Street 1.jpg'></img></p>","null","","1550798952750","","","","","","",""
"null","","html-keyboard-response","416","1225936","0.0-8.0-0.0-10.5","31","<p><img class= 'stimulus' src='images/baseline/Bridge 1.jpg'></img></p>","null","","1550798952850","","","","","","",""
"null","","html-keyboard-response","417","1226037","0.0-8.0-0.0-11.5","31","<p><img class= 'stimulus' src='images/baseline/03212v.jpg'></img></p>","null","","1550798952950","","","","","","",""
"null","","html-keyboard-response","418","1226136","0.0-8.0-0.0-12.5","31","<p><img class= 'stimulus' src='images/baseline/trees 23.jpg'></img></p>","null","","1550798953050","12","","","","","",""
"null","","html-keyboard-response","419","1226235","0.0-8.0-0.0-13.5","31","<p><img class= 'stimulus' src='images/baseline/04085v.jpg'></img></p>","null","","1550798953151","","","","","","",""
"null","","html-keyboard-response","420","1226337","0.0-8.0-0.0-14.5","31","<p><img class= 'stimulus' src='images/target/tree_2.jpg'></img></p>","null","","1550798953250","14","","","","","",""
"null","","html-keyboard-response","421","1226436","0.0-8.0-0.0-15.5","31","<p><img class= 'stimulus' src='images/baseline/landscape31.jpg'></img></p>","null","","1550798953351","","","","","","",""
"null","","html-keyboard-response","422","1226536","0.0-8.0-0.0-16.5","31","<p><img class= 'stimulus' src='images/baseline/house10.jpg'></img></p>","null","","1550798953451","","","","","","",""
"null","","html-keyboard-response","423","1226653","0.0-8.0-0.0-17.5","31","<p><img class= 'stimulus' src='images/baseline/landscape2.jpg'></img></p>","null","","1550798953550","","","","","","",""
"2271.999999997206","","html-button-response","424","1229931","0.0-8.0-0.0-18.5","31","<div class = ""response_question"">WAS THE IMAGE ROTATED...</div>","","5","","","6","8","neg","right","test","false"
"3550.100000051316","","html-button-response","425","1233482","0.0-8.0-0.0-0.6","31","","","0","","","","","","","",""
"null","","html-keyboard-response","426","1233569","0.0-8.0-0.0-1.6","31","<p><img class= 'stimulus' src='images/baseline/Sunset 4.jpg'></img></p>","null","","1550798960483","","","","","","",""
"null","","html-keyboard-response","427","1233669","0.0-8.0-0.0-2.6","31","<p><img class= 'stimulus' src='images/baseline/Dock 1.jpg'></img></p>","null","","1550798960583","","","","","","",""
"null","","html-keyboard-response","428","1233769","0.0-8.0-0.0-3.6","31","<p><img class= 'stimulus' src='images/baseline/scenic-mountain-landscape.jpg'></img></p>","null","","1550798960684","","","","","","",""
"null","","html-keyboard-response","429","1233870","0.0-8.0-0.0-4.6","31","<p><img class= 'stimulus' src='images/baseline/04021v.jpg'></img></p>","null","","1550798960784","4","","","","","",""
"null","","html-keyboard-response","430","1233970","0.0-8.0-0.0-5.6","31","<p><img class= 'stimulus' src='images/baseline/05264v.jpg'></img></p>","null","","1550798960884","","","","","","",""
"null","","html-keyboard-response","431","1234069","0.0-8.0-0.0-6.6","31","<p><img class= 'stimulus' src='images/target/dubai-1113262_640.jpg'></img></p>","null","","1550798960984","6","","","","","",""
"null","","html-keyboard-response","432","1234169","0.0-8.0-0.0-7.6","31","<p><img class= 'stimulus' src='images/baseline/Paysage_enneige_02.jpg'></img></p>","null","","1550798961085","","","","","","",""
"null","","html-keyboard-response","433","1234269","0.0-8.0-0.0-8.6","31","<p><img class= 'stimulus' src='images/baseline/Sunset 6.jpg'></img></p>","null","","1550798961185","8","","","","","",""
"null","","html-keyboard-response","434","1234369","0.0-8.0-0.0-9.6","31","<p><img class= 'stimulus' src='images/baseline/Niinsaare_jarv.jpg'></img></p>","null","","1550798961284","","","","","","",""
"null","","html-keyboard-response","435","1234469","0.0-8.0-0.0-10.6","31","<p><img class= 'stimulus' src='images/baseline/house1.jpg'></img></p>","null","","1550798961385","","","","","","",""
"null","","html-keyboard-response","436","1234570","0.0-8.0-0.0-11.6","31","<p><img class= 'stimulus' src='images/baseline/05280v.jpg'></img></p>","null","","1550798961483","","","","","","",""
"null","","html-keyboard-response","437","1234670","0.0-8.0-0.0-12.6","31","<p><img class= 'stimulus' src='images/baseline/hiking-trail.jpg'></img></p>","null","","1550798961583","12","","","","","",""
"null","","html-keyboard-response","438","1234769","0.0-8.0-0.0-13.6","31","<p><img class= 'stimulus' src='images/baseline/04222v.jpg'></img></p>","null","","1550798961684","","","","","","",""
"null","","html-keyboard-response","439","1234870","0.0-8.0-0.0-14.6","31","<p><img class= 'stimulus' src='images/baseline/pexels-photo-1048039.jpeg'></img></p>","null","","1550798961783","14","","","","","",""
"null","","html-keyboard-response","440","1234970","0.0-8.0-0.0-15.6","31","<p><img class= 'stimulus' src='images/baseline/agriculture-countryside-crop-259280.jpg'></img></p>","null","","1550798961885","","","","","","",""
"null","","html-keyboard-response","441","1235069","0.0-8.0-0.0-16.6","31","<p><img class= 'stimulus' src='images/baseline/hills 1.jpg'></img></p>","null","","1550798961984","","","","","","",""
"null","","html-keyboard-response","442","1235186","0.0-8.0-0.0-17.6","31","<p><img class= 'stimulus' src='images/baseline/pexels-photo-351264.jpeg'></img></p>","null","","1550798962084","","","","","","",""
"3937.6000000047497","","html-button-response","443","1240131","0.0-8.0-0.0-18.6","31","<div class = ""response_question"">WAS THE IMAGE ROTATED...</div>","","4","","","4","2","bas","right","test","true"
"3814.3000000272878","","html-button-response","444","1243946","0.0-8.0-0.0-0.7","31","","","0","","","","","","","",""
"null","","html-keyboard-response","445","1244019","0.0-8.0-0.0-1.7","31","<p><img class= 'stimulus' src='images/baseline/04098v.jpg'></img></p>","null","","1550798970934","","","","","","",""
"null","","html-keyboard-response","446","1244120","0.0-8.0-0.0-2.7","31","<p><img class= 'stimulus' src='images/baseline/house11.jpg'></img></p>","null","","1550798971033","","","","","","",""
"null","","html-keyboard-response","447","1244219","0.0-8.0-0.0-3.7","31","<p><img class= 'stimulus' src='images/baseline/04300v.jpg'></img></p>","null","","1550798971133","","","","","","",""
"null","","html-keyboard-response","448","1244319","0.0-8.0-0.0-4.7","31","<p><img class= 'stimulus' src='images/baseline/landscape1.jpg'></img></p>","null","","1550798971233","4","","","","","",""
"null","","html-keyboard-response","449","1244419","0.0-8.0-0.0-5.7","31","<p><img class= 'stimulus' src='images/baseline/field 2.jpg'></img></p>","null","","1550798971333","","","","","","",""
"null","","html-keyboard-response","450","1244520","0.0-8.0-0.0-6.7","31","<p><img class= 'stimulus' src='images/neutral/Zebra 1.jpg'></img></p>","null","","1550798971434","6","","","","","",""
"null","","html-keyboard-response","451","1244619","0.0-8.0-0.0-7.7","31","<p><img class= 'stimulus' src='images/baseline/03148v.jpg'></img></p>","null","","1550798971535","","","","","","",""
"null","","html-keyboard-response","452","1244719","0.0-8.0-0.0-8.7","31","<p><img class= 'stimulus' src='images/baseline/pexels-photo-750108.jpeg'></img></p>","null","","1550798971634","8","","","","","",""
"null","","html-keyboard-response","453","1244820","0.0-8.0-0.0-9.7","31","<p><img class= 'stimulus' src='images/baseline/02971v.jpg'></img></p>","null","","1550798971735","","","","","","",""
"null","","html-keyboard-response","454","1244920","0.0-8.0-0.0-10.7","31","<p><img class= 'stimulus' src='images/baseline/Skyscraper 1.jpg'></img></p>","null","","1550798971835","","","","","","",""
"null","","html-keyboard-response","455","1245020","0.0-8.0-0.0-11.7","31","<p><img class= 'stimulus' src='images/baseline/geese-flying-over-lake-at-dusk.jpg'></img></p>","null","","1550798971934","","","","","","",""
"null","","html-keyboard-response","456","1245119","0.0-8.0-0.0-12.7","31","<p><img class= 'stimulus' src='images/baseline/03112v.jpg'></img></p>","null","","1550798972034","12","","","","","",""
"null","","html-keyboard-response","457","1245220","0.0-8.0-0.0-13.7","31","<p><img class= 'stimulus' src='images/baseline/05292v.jpg'></img></p>","null","","1550798972134","","","","","","",""
"null","","html-keyboard-response","458","1245319","0.0-8.0-0.0-14.7","31","<p><img class= 'stimulus left-rotate' src='images/target/lone-tree-1934897_640.jpg'></img></p>","null","","1550798972233","14","","","","","",""
"null","","html-keyboard-response","459","1245419","0.0-8.0-0.0-15.7","31","<p><img class= 'stimulus' src='images/baseline/04158v.jpg'></img></p>","null","","1550798972334","","","","","","",""
"null","","html-keyboard-response","460","1245520","0.0-8.0-0.0-16.7","31","<p><img class= 'stimulus' src='images/baseline/Street 4.jpg'></img></p>","null","","1550798972434","","","","","","",""
"null","","html-keyboard-response","461","1245637","0.0-8.0-0.0-17.7","31","<p><img class= 'stimulus' src='images/baseline/sunny-landscape-with-dry-brush-and-mountain-background.jpg'></img></p>","null","","1550798972535","","","","","","",""
"1856.7000000039116","","html-button-response","462","1248498","0.0-8.0-0.0-18.7","31","<div class = ""response_question"">WAS THE IMAGE ROTATED...</div>","","0","","","6","8","neu","left","test","true"
"1614.5000000251457","","html-button-response","463","1250115","0.0-8.0-0.0-0.8","31","","","0","","","","","","","",""
"null","","html-keyboard-response","464","1250186","0.0-8.0-0.0-1.8","31","<p><img class= 'stimulus' src='images/baseline/building8.jpg'></img></p>","null","","1550798977100","","","","","","",""
"null","","html-keyboard-response","465","1250286","0.0-8.0-0.0-2.8","31","<p><img class= 'stimulus' src='images/baseline/lake 1.jpg'></img></p>","null","","1550798977200","","","","","","",""
"null","","html-keyboard-response","466","1250386","0.0-8.0-0.0-3.8","31","<p><img class= 'stimulus' src='images/baseline/pexels-photo-568236.jpeg'></img></p>","null","","1550798977300","","","","","","",""
"null","","html-keyboard-response","467","1250485","0.0-8.0-0.0-4.8","31","<p><img class= 'stimulus' src='images/baseline/landscape39.jpg'></img></p>","null","","1550798977401","4","","","","","",""
"null","","html-keyboard-response","468","1250587","0.0-8.0-0.0-5.8","31","<p><img class= 'stimulus' src='images/baseline/04179v.jpg'></img></p>","null","","1550798977501","","","","","","",""
"null","","html-keyboard-response","469","1250686","0.0-8.0-0.0-6.8","31","<p><img class= 'stimulus' src='images/negative/Cockroach 1.jpg'></img></p>","null","","1550798977601","6","","","","","",""
"null","","html-keyboard-response","470","1250786","0.0-8.0-0.0-7.8","31","<p><img class= 'stimulus' src='images/baseline/Lake 13.jpg'></img></p>","null","","1550798977701","","","","","","",""
"null","","html-keyboard-response","471","1250886","0.0-8.0-0.0-8.8","31","<p><img class= 'stimulus left-rotate' src='images/target/tree-740901_1280.jpg'></img></p>","null","","1550798977801","8","","","","","",""
"null","","html-keyboard-response","472","1250986","0.0-8.0-0.0-9.8","31","<p><img class= 'stimulus' src='images/baseline/02960v.jpg'></img></p>","null","","1550798977900","","","","","","",""
"null","","html-keyboard-response","473","1251086","0.0-8.0-0.0-10.8","31","<p><img class= 'stimulus' src='images/baseline/pexels-photo-459203.jpeg'></img></p>","null","","1550798978000","","","","","","",""
"null","","html-keyboard-response","474","1251187","0.0-8.0-0.0-11.8","31","<p><img class= 'stimulus' src='images/baseline/landscape7.jpg'></img></p>","null","","1550798978100","","","","","","",""
"null","","html-keyboard-response","475","1251287","0.0-8.0-0.0-12.8","31","<p><img class= 'stimulus' src='images/baseline/04117v.jpg'></img></p>","null","","1550798978201","12","","","","","",""
"null","","html-keyboard-response","476","1251386","0.0-8.0-0.0-13.8","31","<p><img class= 'stimulus' src='images/baseline/field 1.jpg'></img></p>","null","","1550798978301","","","","","","",""
"null","","html-keyboard-response","477","1251487","0.0-8.0-0.0-14.8","31","<p><img class= 'stimulus' src='images/baseline/farmhouse9.jpg'></img></p>","null","","1550798978400","14","","","","","",""
"null","","html-keyboard-response","478","1251585","0.0-8.0-0.0-15.8","31","<p><img class= 'stimulus' src='images/baseline/04064v.jpg'></img></p>","null","","1550798978500","","","","","","",""
"null","","html-keyboard-response","479","1251685","0.0-8.0-0.0-16.8","31","<p><img class= 'stimulus' src='images/baseline/Lake 7.jpg'></img></p>","null","","1550798978601","","","","","","",""
"null","","html-keyboard-response","480","1251803","0.0-8.0-0.0-17.8","31","<p><img class= 'stimulus' src='images/baseline/Freudenberg_sg_Switzerland.jpg'></img></p>","null","","1550798978700","","","","","","",""
"1131.8999999784864","","html-button-response","481","1253938","0.0-8.0-0.0-18.8","31","<div class = ""response_question"">WAS THE IMAGE ROTATED...</div>","","0","","","6","2","neg","left","test","true"
"5166.399999987334","","html-button-response","482","1259107","0.0-8.0-0.0-0.9","31","","","0","","","","","","","",""
"null","","html-keyboard-response","483","1259187","0.0-8.0-0.0-1.9","31","<p><img class= 'stimulus' src='images/baseline/05240v.jpg'></img></p>","null","","1550798986100","","","","","","",""
"null","","html-keyboard-response","484","1259287","0.0-8.0-0.0-2.9","31","<p><img class= 'stimulus' src='images/baseline/03180v.jpg'></img></p>","null","","1550798986200","","","","","","",""
"null","","html-keyboard-response","485","1259387","0.0-8.0-0.0-3.9","31","<p><img class= 'stimulus' src='images/baseline/landscape29.jpg'></img></p>","null","","1550798986300","","","","","","",""
"null","","html-keyboard-response","486","1259487","0.0-8.0-0.0-4.9","31","<p><img class= 'stimulus' src='images/baseline/4k-wallpaper-agriculture-clouds-842711.jpg'></img></p>","null","","1550798986401","4","","","","","",""
"null","","html-keyboard-response","487","1259586","0.0-8.0-0.0-5.9","31","<p><img class= 'stimulus' src='images/baseline/03066v.jpg'></img></p>","null","","1550798986501","","","","","","",""
"null","","html-keyboard-response","488","1259686","0.0-8.0-0.0-6.9","31","<p><img class= 'stimulus' src='images/baseline/Grass 6.jpg'></img></p>","null","","1550798986601","6","","","","","",""
"null","","html-keyboard-response","489","1259786","0.0-8.0-0.0-7.9","31","<p><img class= 'stimulus' src='images/baseline/pexels-photo-1261728.jpeg'></img></p>","null","","1550798986701","","","","","","",""
"null","","html-keyboard-response","490","1259885","0.0-8.0-0.0-8.9","31","<p><img class= 'stimulus' src='images/baseline/pexels-photo-440731.jpeg'></img></p>","null","","1550798986802","8","","","","","",""
"null","","html-keyboard-response","491","1259986","0.0-8.0-0.0-9.9","31","<p><img class= 'stimulus' src='images/baseline/Aletschgletscher-Eggishorn.jpg'></img></p>","null","","1550798986900","","","","","","",""
"null","","html-keyboard-response","492","1260086","0.0-8.0-0.0-10.9","31","<p><img class= 'stimulus' src='images/baseline/05279v.jpg'></img></p>","null","","1550798987001","","","","","","",""
"null","","html-keyboard-response","493","1260186","0.0-8.0-0.0-11.9","31","<p><img class= 'stimulus' src='images/baseline/05189v.jpg'></img></p>","null","","1550798987101","","","","","","",""
"null","","html-keyboard-response","494","1260286","0.0-8.0-0.0-12.9","31","<p><img class= 'stimulus left-rotate' src='images/target/building19.jpg'></img></p>","null","","1550798987200","12","","","","","",""
"null","","html-keyboard-response","495","1260386","0.0-8.0-0.0-13.9","31","<p><img class= 'stimulus' src='images/baseline/Nature 2.jpg'></img></p>","null","","1550798987301","","","","","","",""
"null","","html-keyboard-response","496","1260486","0.0-8.0-0.0-14.9","31","<p><img class= 'stimulus' src='images/baseline/Lake 15.jpg'></img></p>","null","","1550798987401","14","","","","","",""
"null","","html-keyboard-response","497","1260587","0.0-8.0-0.0-15.9","31","<p><img class= 'stimulus' src='images/baseline/pexels-photo-1054289.jpeg'></img></p>","null","","1550798987500","","","","","","",""
"null","","html-keyboard-response","498","1260686","0.0-8.0-0.0-16.9","31","<p><img class= 'stimulus' src='images/baseline/building2.jpg'></img></p>","null","","1550798987601","","","","","","",""
"null","","html-keyboard-response","499","1260803","0.0-8.0-0.0-17.9","31","<p><img class= 'stimulus' src='images/baseline/Happy pose 3.jpg'></img></p>","null","","1550798987701","","","","","","",""
"2562.2999999905005","","html-button-response","500","1264361","0.0-8.0-0.0-18.9","31","<div class = ""response_question"">WAS THE IMAGE ROTATED...</div>","","0","","","4","8","bas","left","test","true"
"10230.500000005122","","html-button-response","501","1274593","0.0-8.0-0.0-0.10","31","","","0","","","","","","","",""
"null","","html-keyboard-response","502","1274677","0.0-8.0-0.0-1.10","31","<p><img class= 'stimulus' src='images/baseline/lone-old-cottonwood-tree.jpg'></img></p>","null","","1550799001591","","","","","","",""
"null","","html-keyboard-response","503","1274777","0.0-8.0-0.0-2.10","31","<p><img class= 'stimulus' src='images/baseline/02962v.jpg'></img></p>","null","","1550799001691","","","","","","",""
"null","","html-keyboard-response","504","1274877","0.0-8.0-0.0-3.10","31","<p><img class= 'stimulus' src='images/baseline/grand-teton-mountains.jpg'></img></p>","null","","1550799001791","","","","","","",""
"null","","html-keyboard-response","505","1274977","0.0-8.0-0.0-4.10","31","<p><img class= 'stimulus' src='images/baseline/05161v.jpg'></img></p>","null","","1550799001891","4","","","","","",""
