"rt","responses","trial_type","trial_index","time_elapsed","internal_node_id","participant_id","stimulus","key_press","button_pressed","stim_onset","sequence_position","distractor_position","target_lag","distractor_type","target_orientation","phase","correct"
"9324.800000002142","{""Q0"":""29""}","survey-text","0","9328","0.0-0.0","29","","","","","","","","","","",""
"2550720.100000035","","html-keyboard-response","1","2560059","0.0-1.0","29","Welcome to the experiment.","67","","","","","","","","",""
"13559.999999997206","","html-button-response","2","2573624","0.0-2.0","29","<p>Several images will be presented sequentially.        Each image will only be on the screen for about 100 milliseconds.</p>        <p> One of the images may be rotated 90 degrees right or left.        Watch for this image and remember if it is rotated right or left.</p>               <p>Images of people and animals will appear, and sometimes they will be unpleasant.        These will never be the rotated target image.</p>","","0","","","","","","","",""
"7470.499999995343","","html-button-response","3","2581096","0.0-3.0","29","<p><img class=""stimulus left-rotate"" src=""images/target/cactus1.jpg""></img></p><p>This is an example of an image rotated to the left.</p>","","0","","","","","","","",""
"1398.700000019744","","html-button-response","4","2582495","0.0-4.0","29","<p><img class=""stimulus"" src=""images/target/lone-tree.png""></img></p><p>This is an example of an image rotated to the right.</p>","","0","","","","","","","",""
"15150.900000007823","","html-button-response","5","2597648","0.0-5.0","29","<p>We will now begin a short practice session.</p>         <p>A + symbol will appear in the middle of the screen. Please fix your gaze on the center of the +, and then click the mouse button to begin the image sequence.</p>         <p>Please avoid blinking or eye movements while the images are on the screen.</p>        <p>The image sequence will start relatively slow. After a few sequences, it will speed up.</p>","","0","","","","","","","",""
"9950.699999986216","","html-button-response","6","2607600","0.0-6.0-0.0","29","","","0","","","","","","","",""
"null","","html-keyboard-response","7","2607788","0.0-6.0-1.0","29","<p><img class= 'stimulus' src='images/baseline/architecture_modern_architecture_852928.jpg'></img></p>","null","","1550781856437","","","","","","",""
"null","","html-keyboard-response","8","2607988","0.0-6.0-2.0","29","<p><img class= 'stimulus' src='images/baseline/04063v.jpg'></img></p>","null","","1550781856636","","","","","","",""
"null","","html-keyboard-response","9","2608188","0.0-6.0-3.0","29","<p><img class= 'stimulus' src='images/baseline/vintage-art-deco-storefront.jpg'></img></p>","null","","1550781856836","","","","","","",""
"null","","html-keyboard-response","10","2608387","0.0-6.0-4.0","29","<p><img class= 'stimulus' src='images/baseline/landscape11.jpg'></img></p>","null","","1550781857036","4","","","","","",""
"null","","html-keyboard-response","11","2608587","0.0-6.0-5.0","29","<p><img class= 'stimulus' src='images/baseline/chicago-skyline-at-night-1476869511p8U.jpg'></img></p>","null","","1550781857236","","","","","","",""
"null","","html-keyboard-response","12","2608788","0.0-6.0-6.0","29","<p><img class= 'stimulus' src='images/target/landscape_1.jpg'></img></p>","null","","1550781857435","6","","","","","",""
"null","","html-keyboard-response","13","2608988","0.0-6.0-7.0","29","<p><img class= 'stimulus' src='images/baseline/04021v.jpg'></img></p>","null","","1550781857636","","","","","","",""
"null","","html-keyboard-response","14","2609188","0.0-6.0-8.0","29","<p><img class= 'stimulus' src='images/baseline/house1.jpg'></img></p>","null","","1550781857835","8","","","","","",""
"null","","html-keyboard-response","15","2609387","0.0-6.0-9.0","29","<p><img class= 'stimulus' src='images/baseline/03148v.jpg'></img></p>","null","","1550781858036","","","","","","",""
"null","","html-keyboard-response","16","2609588","0.0-6.0-10.0","29","<p><img class= 'stimulus' src='images/baseline/04086v.jpg'></img></p>","null","","1550781858236","","","","","","",""
"null","","html-keyboard-response","17","2609788","0.0-6.0-11.0","29","<p><img class= 'stimulus' src='images/baseline/house10.jpg'></img></p>","null","","1550781858436","","","","","","",""
"null","","html-keyboard-response","18","2609988","0.0-6.0-12.0","29","<p><img class= 'stimulus' src='images/baseline/Lake 15.jpg'></img></p>","null","","1550781858636","12","","","","","",""
"null","","html-keyboard-response","19","2610188","0.0-6.0-13.0","29","<p><img class= 'stimulus' src='images/baseline/landscape8.jpg'></img></p>","null","","1550781858837","","","","","","",""
"null","","html-keyboard-response","20","2610388","0.0-6.0-14.0","29","<p><img class= 'stimulus' src='images/baseline/building9.jpg'></img></p>","null","","1550781859037","14","","","","","",""
"null","","html-keyboard-response","21","2610588","0.0-6.0-15.0","29","<p><img class= 'stimulus' src='images/baseline/pexels-photo-1048039.jpeg'></img></p>","null","","1550781859237","","","","","","",""
"null","","html-keyboard-response","22","2610788","0.0-6.0-16.0","29","<p><img class= 'stimulus' src='images/baseline/red-rocks-park.jpg'></img></p>","null","","1550781859437","","","","","","",""
"null","","html-keyboard-response","23","2611006","0.0-6.0-17.0","29","<p><img class= 'stimulus' src='images/baseline/valley 2.jpg'></img></p>","null","","1550781859637","","","","","","",""
"10380.10000000894","","html-button-response","24","2622393","0.0-6.0-18.0","29","<div class = ""response_question"">WAS THE IMAGE ROTATED...</div>","","2","","","4","2","bas","right","practice","false"
"1413.299999956973","","html-button-response","25","2623808","0.0-6.0-0.1","29","","","0","","","","","","","",""
"null","","html-keyboard-response","26","2623987","0.0-6.0-1.1","29","<p><img class= 'stimulus' src='images/baseline/cranes 1.jpg'></img></p>","null","","1550781872636","","","","","","",""
"null","","html-keyboard-response","27","2624188","0.0-6.0-2.1","29","<p><img class= 'stimulus' src='images/baseline/02982v.jpg'></img></p>","null","","1550781872836","","","","","","",""
"null","","html-keyboard-response","28","2624388","0.0-6.0-3.1","29","<p><img class= 'stimulus' src='images/baseline/05247v.jpg'></img></p>","null","","1550781873037","","","","","","",""
"null","","html-keyboard-response","29","2624588","0.0-6.0-4.1","29","<p><img class= 'stimulus' src='images/baseline/05179v.jpg'></img></p>","null","","1550781873237","4","","","","","",""
"null","","html-keyboard-response","30","2624789","0.0-6.0-5.1","29","<p><img class= 'stimulus' src='images/baseline/hiking-trail.jpg'></img></p>","null","","1550781873436","","","","","","",""
"null","","html-keyboard-response","31","2624989","0.0-6.0-6.1","29","<p><img class= 'stimulus' src='images/baseline/foreclosed_home.jpg'></img></p>","null","","1550781873636","6","","","","","",""
"null","","html-keyboard-response","32","2625189","0.0-6.0-7.1","29","<p><img class= 'stimulus' src='images/baseline/architecture-1314416_1920.jpg'></img></p>","null","","1550781873836","","","","","","",""
"null","","html-keyboard-response","33","2625389","0.0-6.0-8.1","29","<p><img class= 'stimulus' src='images/baseline/river 1.jpg'></img></p>","null","","1550781874036","8","","","","","",""
"null","","html-keyboard-response","34","2625589","0.0-6.0-9.1","29","<p><img class= 'stimulus' src='images/baseline/house11.jpg'></img></p>","null","","1550781874237","","","","","","",""
"null","","html-keyboard-response","35","2625788","0.0-6.0-10.1","29","<p><img class= 'stimulus' src='images/baseline/05255v.jpg'></img></p>","null","","1550781874437","","","","","","",""
"null","","html-keyboard-response","36","2625988","0.0-6.0-11.1","29","<p><img class= 'stimulus' src='images/baseline/Dock 1.jpg'></img></p>","null","","1550781874638","","","","","","",""
"null","","html-keyboard-response","37","2626188","0.0-6.0-12.1","29","<p><img class= 'stimulus' src='images/baseline/03098v.jpg'></img></p>","null","","1550781874836","12","","","","","",""
"null","","html-keyboard-response","38","2626390","0.0-6.0-13.1","29","<p><img class= 'stimulus' src='images/baseline/__08_-_ITALY_-_Forli_under_snow_-_winter_landscape_of_city_(christmas).jpg'></img></p>","null","","1550781875036","","","","","","",""
"null","","html-keyboard-response","39","2626588","0.0-6.0-14.1","29","<p><img class= 'stimulus' src='images/target/skyscraper-3855012_640.jpg'></img></p>","null","","1550781875237","14","","","","","",""
"null","","html-keyboard-response","40","2626789","0.0-6.0-15.1","29","<p><img class= 'stimulus' src='images/baseline/Street 5.jpg'></img></p>","null","","1550781875437","","","","","","",""
"null","","html-keyboard-response","41","2626989","0.0-6.0-16.1","29","<p><img class= 'stimulus' src='images/baseline/landscape6.jpg'></img></p>","null","","1550781875639","","","","","","",""
"null","","html-keyboard-response","42","2627206","0.0-6.0-17.1","29","<p><img class= 'stimulus' src='images/baseline/hills 3.jpg'></img></p>","null","","1550781875837","","","","","","",""
"4509.199999971315","","html-button-response","43","2632721","0.0-6.0-18.1","29","<div class = ""response_question"">WAS THE IMAGE ROTATED...</div>","","3","","","6","8","bas","right","practice","true"
"2742.199999978766","","html-button-response","44","2635464","0.0-6.0-0.2","29","","","0","","","","","","","",""
"null","","html-keyboard-response","45","2635639","0.0-6.0-1.2","29","<p><img class= 'stimulus' src='images/baseline/03212v.jpg'></img></p>","null","","1550781884289","","","","","","",""
"null","","html-keyboard-response","46","2635839","0.0-6.0-2.2","29","<p><img class= 'stimulus' src='images/baseline/04300v.jpg'></img></p>","null","","1550781884488","","","","","","",""
"null","","html-keyboard-response","47","2636040","0.0-6.0-3.2","29","<p><img class= 'stimulus' src='images/baseline/tennis-court-net-buried-in-snow.jpg'></img></p>","null","","1550781884687","","","","","","",""
"null","","html-keyboard-response","48","2636240","0.0-6.0-4.2","29","<p><img class= 'stimulus' src='images/baseline/Grass 6.jpg'></img></p>","null","","1550781884888","4","","","","","",""
"null","","html-keyboard-response","49","2636440","0.0-6.0-5.2","29","<p><img class= 'stimulus' src='images/baseline/Paysage_enneige_02.jpg'></img></p>","null","","1550781885088","","","","","","",""
"null","","html-keyboard-response","50","2636640","0.0-6.0-6.2","29","<p><img class= 'stimulus' src='images/baseline/04060v.jpg'></img></p>","null","","1550781885289","6","","","","","",""
"null","","html-keyboard-response","51","2636841","0.0-6.0-7.2","29","<p><img class= 'stimulus' src='images/baseline/empire-state-building.jpg'></img></p>","null","","1550781885489","","","","","","",""
"null","","html-keyboard-response","52","2637042","0.0-6.0-8.2","29","<p><img class= 'stimulus' src='images/baseline/Beach 8.jpg'></img></p>","null","","1550781885689","8","","","","","",""
"null","","html-keyboard-response","53","2637241","0.0-6.0-9.2","29","<p><img class= 'stimulus' src='images/baseline/04031v.jpg'></img></p>","null","","1550781885889","","","","","","",""
"null","","html-keyboard-response","54","2637440","0.0-6.0-10.2","29","<p><img class= 'stimulus' src='images/baseline/sun-through-winter-tree-branches1.jpg'></img></p>","null","","1550781886089","","","","","","",""
"null","","html-keyboard-response","55","2637640","0.0-6.0-11.2","29","<p><img class= 'stimulus' src='images/baseline/autumn-in-red-rocks-park.jpg'></img></p>","null","","1550781886290","","","","","","",""
"null","","html-keyboard-response","56","2637842","0.0-6.0-12.2","29","<p><img class= 'stimulus' src='images/baseline/sunny-landscape-with-dry-brush-and-mountain-background.jpg'></img></p>","null","","1550781886490","12","","","","","",""
"null","","html-keyboard-response","57","2638042","0.0-6.0-13.2","29","<p><img class= 'stimulus' src='images/baseline/farmhouse7.jpg'></img></p>","null","","1550781886690","","","","","","",""
"null","","html-keyboard-response","58","2638242","0.0-6.0-14.2","29","<p><img class= 'stimulus left-rotate' src='images/target/lone-tree.png'></img></p>","null","","1550781886890","14","","","","","",""
"null","","html-keyboard-response","59","2638442","0.0-6.0-15.2","29","<p><img class= 'stimulus' src='images/baseline/Nature 2.jpg'></img></p>","null","","1550781887090","","","","","","",""
"null","","html-keyboard-response","60","2638641","0.0-6.0-16.2","29","<p><img class= 'stimulus' src='images/baseline/03114v.jpg'></img></p>","null","","1550781887291","","","","","","",""
"null","","html-keyboard-response","61","2638858","0.0-6.0-17.2","29","<p><img class= 'stimulus' src='images/baseline/scenic-mountain-landscape.jpg'></img></p>","null","","1550781887490","","","","","","",""
"2196.500000020489","","html-button-response","62","2642072","0.0-6.0-18.2","29","<div class = ""response_question"">WAS THE IMAGE ROTATED...</div>","","0","","","6","8","bas","left","practice","true"
"3838.7999999681488","","html-button-response","63","2645912","0.0-6.0-0.3","29","","","0","","","","","","","",""
"null","","html-keyboard-response","64","2646090","0.0-6.0-1.3","29","<p><img class= 'stimulus' src='images/baseline/geese-flying-over-lake-at-dusk.jpg'></img></p>","null","","1550781894738","","","","","","",""
"null","","html-keyboard-response","65","2646290","0.0-6.0-2.3","29","<p><img class= 'stimulus' src='images/baseline/04062v.jpg'></img></p>","null","","1550781894938","","","","","","",""
"null","","html-keyboard-response","66","2646490","0.0-6.0-3.3","29","<p><img class= 'stimulus' src='images/baseline/farmhouse4.jpg'></img></p>","null","","1550781895139","","","","","","",""
"null","","html-keyboard-response","67","2646689","0.0-6.0-4.3","29","<p><img class= 'stimulus' src='images/baseline/architecture-956332_1280.jpg'></img></p>","null","","1550781895339","4","","","","","",""
"null","","html-keyboard-response","68","2646890","0.0-6.0-5.3","29","<p><img class= 'stimulus' src='images/baseline/pexels-photo-459203.jpeg'></img></p>","null","","1550781895539","","","","","","",""
"null","","html-keyboard-response","69","2647090","0.0-6.0-6.3","29","<p><img class= 'stimulus left-rotate' src='images/target/pexels-photo-602607.jpeg'></img></p>","null","","1550781895738","6","","","","","",""
"null","","html-keyboard-response","70","2647290","0.0-6.0-7.3","29","<p><img class= 'stimulus' src='images/baseline/church-silhouette-8712964986014Kb.jpg'></img></p>","null","","1550781895939","","","","","","",""
"null","","html-keyboard-response","71","2647490","0.0-6.0-8.3","29","<p><img class= 'stimulus' src='images/baseline/landscape37.jpg'></img></p>","null","","1550781896138","8","","","","","",""
"null","","html-keyboard-response","72","2647690","0.0-6.0-9.3","29","<p><img class= 'stimulus' src='images/baseline/Skyscraper 2.jpg'></img></p>","null","","1550781896339","","","","","","",""
"null","","html-keyboard-response","73","2647889","0.0-6.0-10.3","29","<p><img class= 'stimulus' src='images/baseline/farmhouse6.jpg'></img></p>","null","","1550781896539","","","","","","",""
"null","","html-keyboard-response","74","2648090","0.0-6.0-11.3","29","<p><img class= 'stimulus' src='images/baseline/04162v.jpg'></img></p>","null","","1550781896738","","","","","","",""
"null","","html-keyboard-response","75","2648290","0.0-6.0-12.3","29","<p><img class= 'stimulus' src='images/baseline/house3.jpg'></img></p>","null","","1550781896938","12","","","","","",""
"null","","html-keyboard-response","76","2648491","0.0-6.0-13.3","29","<p><img class= 'stimulus' src='images/baseline/landscape19.jpg'></img></p>","null","","1550781897138","","","","","","",""
"null","","html-keyboard-response","77","2648690","0.0-6.0-14.3","29","<p><img class= 'stimulus' src='images/baseline/landscape29.jpg'></img></p>","null","","1550781897338","14","","","","","",""
"null","","html-keyboard-response","78","2648889","0.0-6.0-15.3","29","<p><img class= 'stimulus' src='images/baseline/bird-flying-at-sunset.jpg'></img></p>","null","","1550781897539","","","","","","",""
"null","","html-keyboard-response","79","2649090","0.0-6.0-16.3","29","<p><img class= 'stimulus' src='images/baseline/Beach 2.jpg'></img></p>","null","","1550781897739","","","","","","",""
"null","","html-keyboard-response","80","2649307","0.0-6.0-17.3","29","<p><img class= 'stimulus' src='images/baseline/trees 23.jpg'></img></p>","null","","1550781897938","","","","","","",""
"816.4000000106171","","html-button-response","81","2651128","0.0-6.0-18.3","29","<div class = ""response_question"">WAS THE IMAGE ROTATED...</div>","","1","","","4","2","bas","left","practice","true"
"4318.599999998696","","html-button-response","82","2655448","0.0-6.0-0.4","29","","","0","","","","","","","",""
"null","","html-keyboard-response","83","2655572","0.0-6.0-1.4","29","<p><img class= 'stimulus' src='images/baseline/05145v.jpg'></img></p>","null","","1550781904271","","","","","","",""
"null","","html-keyboard-response","84","2655721","0.0-6.0-2.4","29","<p><img class= 'stimulus' src='images/baseline/town-square-in-wroclaw-1539098440MZy.jpg'></img></p>","null","","1550781904420","","","","","","",""
"null","","html-keyboard-response","85","2655872","0.0-6.0-3.4","29","<p><img class= 'stimulus' src='images/baseline/landscape39.jpg'></img></p>","null","","1550781904571","","","","","","",""
"null","","html-keyboard-response","86","2656022","0.0-6.0-4.4","29","<p><img class= 'stimulus' src='images/baseline/04130v.jpg'></img></p>","null","","1550781904722","4","","","","","",""
"null","","html-keyboard-response","87","2656172","0.0-6.0-5.4","29","<p><img class= 'stimulus' src='images/baseline/03162v.jpg'></img></p>","null","","1550781904870","","","","","","",""
"null","","html-keyboard-response","88","2656322","0.0-6.0-6.4","29","<p><img class= 'stimulus' src='images/baseline/farmhouse1.jpg'></img></p>","null","","1550781905020","6","","","","","",""
"null","","html-keyboard-response","89","2656471","0.0-6.0-7.4","29","<p><img class= 'stimulus' src='images/baseline/house2.jpg'></img></p>","null","","1550781905171","","","","","","",""
"null","","html-keyboard-response","90","2656621","0.0-6.0-8.4","29","<p><img class= 'stimulus' src='images/baseline/building8.jpg'></img></p>","null","","1550781905321","8","","","","","",""
"null","","html-keyboard-response","91","2656771","0.0-6.0-9.4","29","<p><img class= 'stimulus' src='images/baseline/04193v.jpg'></img></p>","null","","1550781905471","","","","","","",""
"null","","html-keyboard-response","92","2656922","0.0-6.0-10.4","29","<p><img class= 'stimulus' src='images/baseline/04229v.jpg'></img></p>","null","","1550781905620","","","","","","",""
"null","","html-keyboard-response","93","2657072","0.0-6.0-11.4","29","<p><img class= 'stimulus' src='images/baseline/landscape4.jpg'></img></p>","null","","1550781905771","","","","","","",""
"null","","html-keyboard-response","94","2657222","0.0-6.0-12.4","29","<p><img class= 'stimulus' src='images/target/palm-trees-1209125_640.jpg'></img></p>","null","","1550781905920","12","","","","","",""
"null","","html-keyboard-response","95","2657372","0.0-6.0-13.4","29","<p><img class= 'stimulus' src='images/baseline/pexels-photo-210617.jpeg'></img></p>","null","","1550781906070","","","","","","",""
"null","","html-keyboard-response","96","2657522","0.0-6.0-14.4","29","<p><img class= 'stimulus' src='images/baseline/landscape34.jpg'></img></p>","null","","1550781906220","14","","","","","",""
"null","","html-keyboard-response","97","2657672","0.0-6.0-15.4","29","<p><img class= 'stimulus' src='images/baseline/house8.jpg'></img></p>","null","","1550781906369","","","","","","",""
"null","","html-keyboard-response","98","2657822","0.0-6.0-16.4","29","<p><img class= 'stimulus' src='images/baseline/Lake 3.jpg'></img></p>","null","","1550781906520","","","","","","",""
"null","","html-keyboard-response","99","2657988","0.0-6.0-17.4","29","<p><img class= 'stimulus' src='images/baseline/pexels-photo-750108.jpeg'></img></p>","null","","1550781906670","","","","","","",""
"2095.3999999910593","","html-button-response","100","2661089","0.0-6.0-18.4","29","<div class = ""response_question"">WAS THE IMAGE ROTATED...</div>","","3","","","4","8","bas","right","practice","true"
"3709.900000016205","","html-button-response","101","2664800","0.0-6.0-0.5","29","","","0","","","","","","","",""
"null","","html-keyboard-response","102","2664937","0.0-6.0-1.5","29","<p><img class= 'stimulus' src='images/baseline/05252v.jpg'></img></p>","null","","1550781913637","","","","","","",""
"null","","html-keyboard-response","103","2665088","0.0-6.0-2.5","29","<p><img class= 'stimulus' src='images/baseline/pexels-photo-1054289.jpeg'></img></p>","null","","1550781913787","","","","","","",""
"null","","html-keyboard-response","104","2665238","0.0-6.0-3.5","29","<p><img class= 'stimulus' src='images/baseline/seoul-410266_1920.jpg'></img></p>","null","","1550781913936","","","","","","",""
"null","","html-keyboard-response","105","2665388","0.0-6.0-4.5","29","<p><img class= 'stimulus' src='images/baseline/cyrillic.jpg'></img></p>","null","","1550781914087","4","","","","","",""
"null","","html-keyboard-response","106","2665538","0.0-6.0-5.5","29","<p><img class= 'stimulus' src='images/baseline/Sailing 3.jpg'></img></p>","null","","1550781914236","","","","","","",""
"null","","html-keyboard-response","107","2665688","0.0-6.0-6.5","29","<p><img class= 'stimulus' src='images/baseline/Lake 8.jpg'></img></p>","null","","1550781914386","6","","","","","",""
"null","","html-keyboard-response","108","2665839","0.0-6.0-7.5","29","<p><img class= 'stimulus' src='images/baseline/Sunset 6.jpg'></img></p>","null","","1550781914536","","","","","","",""
"null","","html-keyboard-response","109","2665987","0.0-6.0-8.5","29","<p><img class= 'stimulus' src='images/baseline/house7.jpg'></img></p>","null","","1550781914686","8","","","","","",""
"null","","html-keyboard-response","110","2666137","0.0-6.0-9.5","29","<p><img class= 'stimulus' src='images/baseline/landscape16.jpg'></img></p>","null","","1550781914836","","","","","","",""
"null","","html-keyboard-response","111","2666288","0.0-6.0-10.5","29","<p><img class= 'stimulus' src='images/baseline/field 2.jpg'></img></p>","null","","1550781914987","","","","","","",""
"null","","html-keyboard-response","112","2666438","0.0-6.0-11.5","29","<p><img class= 'stimulus' src='images/baseline/Sunset 3.jpg'></img></p>","null","","1550781915137","","","","","","",""
"null","","html-keyboard-response","113","2666588","0.0-6.0-12.5","29","<p><img class= 'stimulus left-rotate' src='images/target/pexels-photo-210683.jpeg'></img></p>","null","","1550781915286","12","","","","","",""
"null","","html-keyboard-response","114","2666738","0.0-6.0-13.5","29","<p><img class= 'stimulus' src='images/baseline/house6.jpg'></img></p>","null","","1550781915436","","","","","","",""
"null","","html-keyboard-response","115","2666888","0.0-6.0-14.5","29","<p><img class= 'stimulus' src='images/baseline/pexels-photo-59321.jpeg'></img></p>","null","","1550781915588","14","","","","","",""
"null","","html-keyboard-response","116","2667038","0.0-6.0-15.5","29","<p><img class= 'stimulus' src='images/baseline/Dirt 2.jpg'></img></p>","null","","1550781915737","","","","","","",""
"null","","html-keyboard-response","117","2667187","0.0-6.0-16.5","29","<p><img class= 'stimulus' src='images/baseline/Waterfall 1.jpg'></img></p>","null","","1550781915886","","","","","","",""
"null","","html-keyboard-response","118","2667354","0.0-6.0-17.5","29","<p><img class= 'stimulus' src='images/baseline/Sky 1.jpg'></img></p>","null","","1550781916038","","","","","","",""
"985.2999999998137","","html-button-response","119","2669345","0.0-6.0-18.5","29","<div class = ""response_question"">WAS THE IMAGE ROTATED...</div>","","2","","","4","8","bas","left","practice","false"
"3062.2999999905005","","html-button-response","120","2672408","0.0-6.0-0.6","29","","","0","","","","","","","",""
"null","","html-keyboard-response","121","2672538","0.0-6.0-1.6","29","<p><img class= 'stimulus' src='images/baseline/02971v.jpg'></img></p>","null","","1550781921238","","","","","","",""
"null","","html-keyboard-response","122","2672688","0.0-6.0-2.6","29","<p><img class= 'stimulus' src='images/baseline/04040v.jpg'></img></p>","null","","1550781921387","","","","","","",""
"null","","html-keyboard-response","123","2672837","0.0-6.0-3.6","29","<p><img class= 'stimulus' src='images/baseline/Nature 1.jpg'></img></p>","null","","1550781921536","","","","","","",""
"null","","html-keyboard-response","124","2672988","0.0-6.0-4.6","29","<p><img class= 'stimulus' src='images/baseline/Paysage_karabagh_02.jpg'></img></p>","null","","1550781921685","4","","","","","",""
"null","","html-keyboard-response","125","2673138","0.0-6.0-5.6","29","<p><img class= 'stimulus' src='images/baseline/05131v.jpg'></img></p>","null","","1550781921836","","","","","","",""
"null","","html-keyboard-response","126","2673288","0.0-6.0-6.6","29","<p><img class= 'stimulus' src='images/baseline/Beach 3.jpg'></img></p>","null","","1550781921986","6","","","","","",""
"null","","html-keyboard-response","127","2673437","0.0-6.0-7.6","29","<p><img class= 'stimulus' src='images/baseline/04064v.jpg'></img></p>","null","","1550781922136","","","","","","",""
"null","","html-keyboard-response","128","2673589","0.0-6.0-8.6","29","<p><img class= 'stimulus' src='images/target/mitre peak.jpg'></img></p>","null","","1550781922287","8","","","","","",""
"null","","html-keyboard-response","129","2673738","0.0-6.0-9.6","29","<p><img class= 'stimulus' src='images/baseline/05303v.jpg'></img></p>","null","","1550781922438","","","","","","",""
"null","","html-keyboard-response","130","2673887","0.0-6.0-10.6","29","<p><img class= 'stimulus' src='images/baseline/Linden,_paysage.jpg'></img></p>","null","","1550781922586","","","","","","",""
"null","","html-keyboard-response","131","2674037","0.0-6.0-11.6","29","<p><img class= 'stimulus' src='images/baseline/lone-old-cottonwood-tree.jpg'></img></p>","null","","1550781922736","","","","","","",""
"null","","html-keyboard-response","132","2674188","0.0-6.0-12.6","29","<p><img class= 'stimulus' src='images/baseline/Street 4.jpg'></img></p>","null","","1550781922886","12","","","","","",""
"null","","html-keyboard-response","133","2674338","0.0-6.0-13.6","29","<p><img class= 'stimulus' src='images/baseline/pexels-photo-414491.jpeg'></img></p>","null","","1550781923036","","","","","","",""
"null","","html-keyboard-response","134","2674488","0.0-6.0-14.6","29","<p><img class= 'stimulus' src='images/baseline/Road 1.jpg'></img></p>","null","","1550781923187","14","","","","","",""
"null","","html-keyboard-response","135","2674639","0.0-6.0-15.6","29","<p><img class= 'stimulus' src='images/baseline/building12.jpg'></img></p>","null","","1550781923337","","","","","","",""
"null","","html-keyboard-response","136","2674788","0.0-6.0-16.6","29","<p><img class= 'stimulus' src='images/baseline/Path 1.jpg'></img></p>","null","","1550781923486","","","","","","",""
"null","","html-keyboard-response","137","2674954","0.0-6.0-17.6","29","<p><img class= 'stimulus' src='images/baseline/pexels-photo-534164.jpeg'></img></p>","null","","1550781923637","","","","","","",""
"839.7000000113621","","html-button-response","138","2676800","0.0-6.0-18.6","29","<div class = ""response_question"">WAS THE IMAGE ROTATED...</div>","","3","","","6","2","bas","right","practice","true"
"1414.299999945797","","html-button-response","139","2678216","0.0-6.0-0.7","29","","","0","","","","","","","",""
"null","","html-keyboard-response","140","2678354","0.0-6.0-1.7","29","<p><img class= 'stimulus' src='images/baseline/road.jpg'></img></p>","null","","1550781927053","","","","","","",""
"null","","html-keyboard-response","141","2678504","0.0-6.0-2.7","29","<p><img class= 'stimulus' src='images/baseline/city-silhouette-at-sunset-871291580819Esw.jpg'></img></p>","null","","1550781927204","","","","","","",""
"null","","html-keyboard-response","142","2678655","0.0-6.0-3.7","29","<p><img class= 'stimulus' src='images/baseline/field 3.jpg'></img></p>","null","","1550781927353","","","","","","",""
"null","","html-keyboard-response","143","2678805","0.0-6.0-4.7","29","<p><img class= 'stimulus' src='images/baseline/landscape7.jpg'></img></p>","null","","1550781927502","4","","","","","",""
"null","","html-keyboard-response","144","2678955","0.0-6.0-5.7","29","<p><img class= 'stimulus' src='images/baseline/building2.jpg'></img></p>","null","","1550781927653","","","","","","",""
"null","","html-keyboard-response","145","2679104","0.0-6.0-6.7","29","<p><img class= 'stimulus' src='images/baseline/04222v.jpg'></img></p>","null","","1550781927803","6","","","","","",""
"null","","html-keyboard-response","146","2679254","0.0-6.0-7.7","29","<p><img class= 'stimulus' src='images/baseline/kokkari-1523011968Xfr.jpg'></img></p>","null","","1550781927954","","","","","","",""
"null","","html-keyboard-response","147","2679405","0.0-6.0-8.7","29","<p><img class= 'stimulus left-rotate' src='images/target/oak-456524_640.jpg'></img></p>","null","","1550781928104","8","","","","","",""
"null","","html-keyboard-response","148","2679554","0.0-6.0-9.7","29","<p><img class= 'stimulus' src='images/baseline/Lake 4.jpg'></img></p>","null","","1550781928254","","","","","","",""
"null","","html-keyboard-response","149","2679704","0.0-6.0-10.7","29","<p><img class= 'stimulus' src='images/baseline/03112v.jpg'></img></p>","null","","1550781928403","","","","","","",""
"null","","html-keyboard-response","150","2679855","0.0-6.0-11.7","29","<p><img class= 'stimulus' src='images/baseline/Street 3.jpg'></img></p>","null","","1550781928553","","","","","","",""
"null","","html-keyboard-response","151","2680005","0.0-6.0-12.7","29","<p><img class= 'stimulus' src='images/baseline/05280v.jpg'></img></p>","null","","1550781928704","12","","","","","",""
"null","","html-keyboard-response","152","2680155","0.0-6.0-13.7","29","<p><img class= 'stimulus' src='images/baseline/Kocherbaumwald-01.jpg'></img></p>","null","","1550781928852","","","","","","",""
"null","","html-keyboard-response","153","2680305","0.0-6.0-14.7","29","<p><img class= 'stimulus' src='images/baseline/pexels-photo-427676.jpeg'></img></p>","null","","1550781929003","14","","","","","",""
"null","","html-keyboard-response","154","2680454","0.0-6.0-15.7","29","<p><img class= 'stimulus' src='images/baseline/landscape38.jpg'></img></p>","null","","1550781929154","","","","","","",""
"null","","html-keyboard-response","155","2680604","0.0-6.0-16.7","29","<p><img class= 'stimulus' src='images/baseline/landscape36.jpg'></img></p>","null","","1550781929304","","","","","","",""
"null","","html-keyboard-response","156","2680771","0.0-6.0-17.7","29","<p><img class= 'stimulus' src='images/baseline/03217v.jpg'></img></p>","null","","1550781929453","","","","","","",""
"837.5000000232831","","html-button-response","157","2682616","0.0-6.0-18.7","29","<div class = ""response_question"">WAS THE IMAGE ROTATED...</div>","","5","","","6","2","bas","left","practice","false"
"1894.1000000340864","","html-button-response","158","2684512","0.0-6.0-0.8","29","","","0","","","","","","","",""
"null","","html-keyboard-response","159","2684604","0.0-6.0-1.8","29","<p><img class= 'stimulus' src='images/baseline/Lake 9.jpg'></img></p>","null","","1550781933353","","","","","","",""
"null","","html-keyboard-response","160","2684705","0.0-6.0-2.8","29","<p><img class= 'stimulus' src='images/baseline/04010v.jpg'></img></p>","null","","1550781933454","","","","","","",""
"null","","html-keyboard-response","161","2684805","0.0-6.0-3.8","29","<p><img class= 'stimulus' src='images/baseline/landscape33.jpg'></img></p>","null","","1550781933552","","","","","","",""
"null","","html-keyboard-response","162","2684904","0.0-6.0-4.8","29","<p><img class= 'stimulus' src='images/baseline/meadow-with-mountain-in-background.jpg'></img></p>","null","","1550781933653","4","","","","","",""
"null","","html-keyboard-response","163","2685005","0.0-6.0-5.8","29","<p><img class= 'stimulus' src='images/baseline/building_at_national_conservation.jpg'></img></p>","null","","1550781933754","","","","","","",""
"null","","html-keyboard-response","164","2685104","0.0-6.0-6.8","29","<p><img class= 'stimulus' src='images/target/dreifaltigkeitskirche_sandhausen_837699.jpg'></img></p>","null","","1550781933854","6","","","","","",""
"null","","html-keyboard-response","165","2685205","0.0-6.0-7.8","29","<p><img class= 'stimulus' src='images/baseline/building3.jpg'></img></p>","null","","1550781933954","","","","","","",""
"null","","html-keyboard-response","166","2685305","0.0-6.0-8.8","29","<p><img class= 'stimulus' src='images/baseline/landscape14.jpg'></img></p>","null","","1550781934053","8","","","","","",""
"null","","html-keyboard-response","167","2685404","0.0-6.0-9.8","29","<p><img class= 'stimulus' src='images/baseline/05242v.jpg'></img></p>","null","","1550781934153","","","","","","",""
"null","","html-keyboard-response","168","2685504","0.0-6.0-10.8","29","<p><img class= 'stimulus' src='images/baseline/horse_statue.jpg'></img></p>","null","","1550781934255","","","","","","",""
"null","","html-keyboard-response","169","2685605","0.0-6.0-11.8","29","<p><img class= 'stimulus' src='images/baseline/Street 2.jpg'></img></p>","null","","1550781934353","","","","","","",""
"null","","html-keyboard-response","170","2685706","0.0-6.0-12.8","29","<p><img class= 'stimulus' src='images/baseline/05198v.jpg'></img></p>","null","","1550781934452","12","","","","","",""
"null","","html-keyboard-response","171","2685804","0.0-6.0-13.8","29","<p><img class= 'stimulus' src='images/baseline/landscape22.jpg'></img></p>","null","","1550781934554","","","","","","",""
"null","","html-keyboard-response","172","2685906","0.0-6.0-14.8","29","<p><img class= 'stimulus' src='images/baseline/Lake 5.jpg'></img></p>","null","","1550781934653","14","","","","","",""
"null","","html-keyboard-response","173","2686005","0.0-6.0-15.8","29","<p><img class= 'stimulus' src='images/baseline/4k-wallpaper-agriculture-clouds-842711.jpg'></img></p>","null","","1550781934753","","","","","","",""
"null","","html-keyboard-response","174","2686105","0.0-6.0-16.8","29","<p><img class= 'stimulus' src='images/baseline/Desert_View_Indian_Wells.jpg'></img></p>","null","","1550781934854","","","","","","",""
"null","","html-keyboard-response","175","2686221","0.0-6.0-17.8","29","<p><img class= 'stimulus' src='images/baseline/02960v.jpg'></img></p>","null","","1550781934953","","","","","","",""
"847.7000000420958","","html-button-response","176","2688072","0.0-6.0-18.8","29","<div class = ""response_question"">WAS THE IMAGE ROTATED...</div>","","2","","","4","2","bas","right","practice","false"
"2718.500000016764","","html-button-response","177","2690792","0.0-6.0-0.9","29","","","0","","","","","","","",""
"null","","html-keyboard-response","178","2690872","0.0-6.0-1.9","29","<p><img class= 'stimulus' src='images/baseline/04085v.jpg'></img></p>","null","","1550781939620","","","","","","",""
"null","","html-keyboard-response","179","2690971","0.0-6.0-2.9","29","<p><img class= 'stimulus' src='images/baseline/03056v.jpg'></img></p>","null","","1550781939720","","","","","","",""
"null","","html-keyboard-response","180","2691072","0.0-6.0-3.9","29","<p><img class= 'stimulus' src='images/baseline/landscape3.jpg'></img></p>","null","","1550781939820","","","","","","",""
"null","","html-keyboard-response","181","2691172","0.0-6.0-4.9","29","<p><img class= 'stimulus' src='images/baseline/road 1(1).jpg'></img></p>","null","","1550781939920","4","","","","","",""
"null","","html-keyboard-response","182","2691270","0.0-6.0-5.9","29","<p><img class= 'stimulus' src='images/baseline/Skijump 1.jpg'></img></p>","null","","1550781940020","","","","","","",""
"null","","html-keyboard-response","183","2691372","0.0-6.0-6.9","29","<p><img class= 'stimulus' src='images/baseline/landscape17.jpg'></img></p>","null","","1550781940119","6","","","","","",""
"null","","html-keyboard-response","184","2691472","0.0-6.0-7.9","29","<p><img class= 'stimulus' src='images/baseline/05189v.jpg'></img></p>","null","","1550781940220","","","","","","",""
"null","","html-keyboard-response","185","2691572","0.0-6.0-8.9","29","<p><img class= 'stimulus' src='images/baseline/03075v.jpg'></img></p>","null","","1550781940321","8","","","","","",""
"null","","html-keyboard-response","186","2691671","0.0-6.0-9.9","29","<p><img class= 'stimulus' src='images/baseline/Skyscraper 1.jpg'></img></p>","null","","1550781940419","","","","","","",""
"null","","html-keyboard-response","187","2691772","0.0-6.0-10.9","29","<p><img class= 'stimulus' src='images/baseline/Lake 14.jpg'></img></p>","null","","1550781940519","","","","","","",""
"null","","html-keyboard-response","188","2691871","0.0-6.0-11.9","29","<p><img class= 'stimulus' src='images/baseline/building5.jpg'></img></p>","null","","1550781940619","","","","","","",""
"null","","html-keyboard-response","189","2691971","0.0-6.0-12.9","29","<p><img class= 'stimulus left-rotate' src='images/target/church-2306128_640.jpg'></img></p>","null","","1550781940721","12","","","","","",""
"null","","html-keyboard-response","190","2692072","0.0-6.0-13.9","29","<p><img class= 'stimulus' src='images/baseline/pexels-photo-221125.jpeg'></img></p>","null","","1550781940821","","","","","","",""
"null","","html-keyboard-response","191","2692172","0.0-6.0-14.9","29","<p><img class= 'stimulus' src='images/baseline/dirt-road-or-trail-through-park.jpg'></img></p>","null","","1550781940920","14","","","","","",""
"null","","html-keyboard-response","192","2692272","0.0-6.0-15.9","29","<p><img class= 'stimulus' src='images/baseline/farmhouse8.jpg'></img></p>","null","","1550781941019","","","","","","",""
"null","","html-keyboard-response","193","2692371","0.0-6.0-16.9","29","<p><img class= 'stimulus' src='images/baseline/05279v.jpg'></img></p>","null","","1550781941121","","","","","","",""
"null","","html-keyboard-response","194","2692488","0.0-6.0-17.9","29","<p><img class= 'stimulus' src='images/baseline/pexels-photo-894312.jpeg'></img></p>","null","","1550781941220","","","","","","",""
"1538.299999956973","","html-button-response","195","2695032","0.0-6.0-18.9","29","<div class = ""response_question"">WAS THE IMAGE ROTATED...</div>","","0","","","4","8","bas","left","practice","true"
"2006.4000000124797","","html-button-response","196","2697040","0.0-6.0-0.10","29","","","0","","","","","","","",""
"null","","html-keyboard-response","197","2697121","0.0-6.0-1.10","29","<p><img class= 'stimulus' src='images/baseline/05203v.jpg'></img></p>","null","","1550781945869","","","","","","",""
"null","","html-keyboard-response","198","2697222","0.0-6.0-2.10","29","<p><img class= 'stimulus' src='images/baseline/landscape40.jpg'></img></p>","null","","1550781945970","","","","","","",""
"null","","html-keyboard-response","199","2697322","0.0-6.0-3.10","29","<p><img class= 'stimulus' src='images/baseline/05167v.jpg'></img></p>","null","","1550781946070","","","","","","",""
"null","","html-keyboard-response","200","2697422","0.0-6.0-4.10","29","<p><img class= 'stimulus' src='images/baseline/landscape12.jpg'></img></p>","null","","1550781946169","4","","","","","",""
"null","","html-keyboard-response","201","2697521","0.0-6.0-5.10","29","<p><img class= 'stimulus' src='images/baseline/Happy pose 3.jpg'></img></p>","null","","1550781946270","","","","","","",""
"null","","html-keyboard-response","202","2697622","0.0-6.0-6.10","29","<p><img class= 'stimulus left-rotate' src='images/target/cactus2.jpg'></img></p>","null","","1550781946370","6","","","","","",""
"null","","html-keyboard-response","203","2697721","0.0-6.0-7.10","29","<p><img class= 'stimulus' src='images/baseline/02988v.jpg'></img></p>","null","","1550781946470","","","","","","",""
"null","","html-keyboard-response","204","2697823","0.0-6.0-8.10","29","<p><img class= 'stimulus' src='images/baseline/red rocks from afar.jpg'></img></p>","null","","1550781946570","8","","","","","",""
"null","","html-keyboard-response","205","2697922","0.0-6.0-9.10","29","<p><img class= 'stimulus' src='images/baseline/Lake 16.jpg'></img></p>","null","","1550781946670","","","","","","",""
"null","","html-keyboard-response","206","2698021","0.0-6.0-10.10","29","<p><img class= 'stimulus' src='images/baseline/03220v.jpg'></img></p>","null","","1550781946771","","","","","","",""
"null","","html-keyboard-response","207","2698121","0.0-6.0-11.10","29","<p><img class= 'stimulus' src='images/baseline/04098v.jpg'></img></p>","null","","1550781946870","","","","","","",""
"null","","html-keyboard-response","208","2698221","0.0-6.0-12.10","29","<p><img class= 'stimulus' src='images/baseline/landscape35.jpg'></img></p>","null","","1550781946969","12","","","","","",""
"null","","html-keyboard-response","209","2698321","0.0-6.0-13.10","29","<p><img class= 'stimulus' src='images/baseline/building16.jpg'></img></p>","null","","1550781947069","","","","","","",""
"null","","html-keyboard-response","210","2698421","0.0-6.0-14.10","29","<p><img class= 'stimulus' src='images/baseline/pexels-photo-1287089.jpeg'></img></p>","null","","1550781947171","14","","","","","",""
"null","","html-keyboard-response","211","2698522","0.0-6.0-15.10","29","<p><img class= 'stimulus' src='images/baseline/Lake 7.jpg'></img></p>","null","","1550781947269","","","","","","",""
"null","","html-keyboard-response","212","2698622","0.0-6.0-16.10","29","<p><img class= 'stimulus' src='images/baseline/lake3.jpg'></img></p>","null","","1550781947371","","","","","","",""
"null","","html-keyboard-response","213","2698737","0.0-6.0-17.10","29","<p><img class= 'stimulus' src='images/baseline/02977v.jpg'></img></p>","null","","1550781947470","","","","","","",""
"1454.1999999787658","","html-button-response","214","2701209","0.0-6.0-18.10","29","<div class = ""response_question"">WAS THE IMAGE ROTATED...</div>","","5","","","4","2","bas","left","practice","false"
"1590.6000000536442","","html-button-response","215","2702800","0.0-6.0-0.11","29","","","0","","","","","","","",""
"null","","html-keyboard-response","216","2702888","0.0-6.0-1.11","29","<p><img class= 'stimulus' src='images/baseline/field 1.jpg'></img></p>","null","","1550781951636","","","","","","",""
"null","","html-keyboard-response","217","2702989","0.0-6.0-2.11","29","<p><img class= 'stimulus' src='images/baseline/building6.jpg'></img></p>","null","","1550781951737","","","","","","",""
"null","","html-keyboard-response","218","2703089","0.0-6.0-3.11","29","<p><img class= 'stimulus' src='images/baseline/landscape1.jpg'></img></p>","null","","1550781951837","","","","","","",""
"null","","html-keyboard-response","219","2703187","0.0-6.0-4.11","29","<p><img class= 'stimulus' src='images/baseline/03041v.jpg'></img></p>","null","","1550781951937","4","","","","","",""
"null","","html-keyboard-response","220","2703288","0.0-6.0-5.11","29","<p><img class= 'stimulus' src='images/baseline/pexels-photo-568236.jpeg'></img></p>","null","","1550781952037","","","","","","",""
"null","","html-keyboard-response","221","2703388","0.0-6.0-6.11","29","<p><img class= 'stimulus' src='images/baseline/Street 1.jpg'></img></p>","null","","1550781952136","6","","","","","",""
"null","","html-keyboard-response","222","2703488","0.0-6.0-7.11","29","<p><img class= 'stimulus' src='images/baseline/05158v.jpg'></img></p>","null","","1550781952236","","","","","","",""
"null","","html-keyboard-response","223","2703588","0.0-6.0-8.11","29","<p><img class= 'stimulus' src='images/target/lone-tree-1934897_640.jpg'></img></p>","null","","1550781952336","8","","","","","",""
"null","","html-keyboard-response","224","2703688","0.0-6.0-9.11","29","<p><img class= 'stimulus' src='images/baseline/04014v.jpg'></img></p>","null","","1550781952436","","","","","","",""
"null","","html-keyboard-response","225","2703789","0.0-6.0-10.11","29","<p><img class= 'stimulus' src='images/baseline/farmhouse9.jpg'></img></p>","null","","1550781952537","","","","","","",""
"null","","html-keyboard-response","226","2703888","0.0-6.0-11.11","29","<p><img class= 'stimulus' src='images/baseline/lake 1.jpg'></img></p>","null","","1550781952636","","","","","","",""
"null","","html-keyboard-response","227","2703989","0.0-6.0-12.11","29","<p><img class= 'stimulus' src='images/baseline/autumn-landscape-with-lake-fall-trees-mountains.jpg'></img></p>","null","","1550781952737","12","","","","","",""
"null","","html-keyboard-response","228","2704087","0.0-6.0-13.11","29","<p><img class= 'stimulus' src='images/baseline/landscape15.jpg'></img></p>","null","","1550781952837","","","","","","",""
"null","","html-keyboard-response","229","2704189","0.0-6.0-14.11","29","<p><img class= 'stimulus' src='images/baseline/02962v.jpg'></img></p>","null","","1550781952936","14","","","","","",""
"null","","html-keyboard-response","230","2704288","0.0-6.0-15.11","29","<p><img class= 'stimulus' src='images/baseline/landscape13.jpg'></img></p>","null","","1550781953037","","","","","","",""
"null","","html-keyboard-response","231","2704388","0.0-6.0-16.11","29","<p><img class= 'stimulus' src='images/baseline/farmhouse3.jpg'></img></p>","null","","1550781953137","","","","","","",""
"null","","html-keyboard-response","232","2704505","0.0-6.0-17.11","29","<p><img class= 'stimulus' src='images/baseline/Aletschgletscher-Eggishorn.jpg'></img></p>","null","","1550781953237","","","","","","",""
"676.7000000113621","","html-button-response","233","2706184","0.0-6.0-18.11","29","<div class = ""response_question"">WAS THE IMAGE ROTATED...</div>","","3","","","6","2","bas","right","practice","true"
"1782.2000000160187","","html-button-response","234","2707968","0.0-6.0-0.12","29","","","0","","","","","","","",""
"null","","html-keyboard-response","235","2708054","0.0-6.0-1.12","29","<p><img class= 'stimulus' src='images/baseline/05240v.jpg'></img></p>","null","","1550781956804","","","","","","",""
"null","","html-keyboard-response","236","2708155","0.0-6.0-2.12","29","<p><img class= 'stimulus' src='images/baseline/02945v.jpg'></img></p>","null","","1550781956904","","","","","","",""
"null","","html-keyboard-response","237","2708255","0.0-6.0-3.12","29","<p><img class= 'stimulus' src='images/baseline/pexels-photo-440731.jpeg'></img></p>","null","","1550781957003","","","","","","",""
"null","","html-keyboard-response","238","2708354","0.0-6.0-4.12","29","<p><img class= 'stimulus' src='images/baseline/05186v.jpg'></img></p>","null","","1550781957103","4","","","","","",""
"null","","html-keyboard-response","239","2708455","0.0-6.0-5.12","29","<p><img class= 'stimulus' src='images/baseline/field 4.jpg'></img></p>","null","","1550781957203","","","","","","",""
"null","","html-keyboard-response","240","2708555","0.0-6.0-6.12","29","<p><img class= 'stimulus' src='images/baseline/04201v.jpg'></img></p>","null","","1550781957303","6","","","","","",""
"null","","html-keyboard-response","241","2708654","0.0-6.0-7.12","29","<p><img class= 'stimulus' src='images/baseline/pexels-photo-541101.jpeg'></img></p>","null","","1550781957403","","","","","","",""
"null","","html-keyboard-response","242","2708755","0.0-6.0-8.12","29","<p><img class= 'stimulus' src='images/baseline/agriculture-cereal-clouds-175389.jpg'></img></p>","null","","1550781957502","8","","","","","",""
"null","","html-keyboard-response","243","2708855","0.0-6.0-9.12","29","<p><img class= 'stimulus' src='images/baseline/04117v.jpg'></img></p>","null","","1550781957603","","","","","","",""
"null","","html-keyboard-response","244","2708955","0.0-6.0-10.12","29","<p><img class= 'stimulus' src='images/baseline/Peyto_Lake-Banff_NP-Canada.jpg'></img></p>","null","","1550781957704","","","","","","",""
"null","","html-keyboard-response","245","2709056","0.0-6.0-11.12","29","<p><img class= 'stimulus' src='images/baseline/sunset-over-the-lake.jpg'></img></p>","null","","1550781957804","","","","","","",""
"null","","html-keyboard-response","246","2709154","0.0-6.0-12.12","29","<p><img class= 'stimulus' src='images/target/building15.jpg'></img></p>","null","","1550781957904","12","","","","","",""
"null","","html-keyboard-response","247","2709256","0.0-6.0-13.12","29","<p><img class= 'stimulus' src='images/baseline/flooded-bridge.jpg'></img></p>","null","","1550781958003","","","","","","",""
"null","","html-keyboard-response","248","2709354","0.0-6.0-14.12","29","<p><img class= 'stimulus' src='images/baseline/Niinsaare_jarv.jpg'></img></p>","null","","1550781958103","14","","","","","",""
"null","","html-keyboard-response","249","2709455","0.0-6.0-15.12","29","<p><img class= 'stimulus' src='images/baseline/03066v.jpg'></img></p>","null","","1550781958203","","","","","","",""
"null","","html-keyboard-response","250","2709554","0.0-6.0-16.12","29","<p><img class= 'stimulus' src='images/baseline/Camping 10.jpg'></img></p>","null","","1550781958302","","","","","","",""
"null","","html-keyboard-response","251","2709672","0.0-6.0-17.12","29","<p><img class= 'stimulus' src='images/baseline/pexels-photo-259280.jpeg'></img></p>","null","","1550781958403","","","","","","",""
"701.2000000104308","","html-button-response","252","2711376","0.0-6.0-18.12","29","<div class = ""response_question"">WAS THE IMAGE ROTATED...</div>","","3","","","4","8","bas","right","practice","true"
"1422.7000000532717","","html-button-response","253","2712800","0.0-6.0-0.13","29","","","0","","","","","","","",""
"null","","html-keyboard-response","254","2712888","0.0-6.0-1.13","29","<p><img class= 'stimulus' src='images/baseline/05292v.jpg'></img></p>","null","","1550781961637","","","","","","",""
"null","","html-keyboard-response","255","2712988","0.0-6.0-2.13","29","<p><img class= 'stimulus' src='images/baseline/lake 2.jpg'></img></p>","null","","1550781961736","","","","","","",""
"null","","html-keyboard-response","256","2713090","0.0-6.0-3.13","29","<p><img class= 'stimulus' src='images/baseline/99_-_Machu_Picchu_-_Juin_2009.edit3.jpg'></img></p>","null","","1550781961837","","","","","","",""
"null","","html-keyboard-response","257","2713189","0.0-6.0-4.13","29","<p><img class= 'stimulus' src='images/baseline/05161v.jpg'></img></p>","null","","1550781961937","4","","","","","",""
"null","","html-keyboard-response","258","2713288","0.0-6.0-5.13","29","<p><img class= 'stimulus' src='images/baseline/Cold 7.jpg'></img></p>","null","","1550781962037","","","","","","",""
"null","","html-keyboard-response","259","2713388","0.0-6.0-6.13","29","<p><img class= 'stimulus' src='images/baseline/pexels-photo-1837621.jpeg'></img></p>","null","","1550781962137","6","","","","","",""
"null","","html-keyboard-response","260","2713488","0.0-6.0-7.13","29","<p><img class= 'stimulus' src='images/baseline/04196v.jpg'></img></p>","null","","1550781962237","","","","","","",""
"null","","html-keyboard-response","261","2713588","0.0-6.0-8.13","29","<p><img class= 'stimulus left-rotate' src='images/target/petronas-towers-433081_1920.jpg'></img></p>","null","","1550781962336","8","","","","","",""
"null","","html-keyboard-response","262","2713688","0.0-6.0-9.13","29","<p><img class= 'stimulus' src='images/baseline/farmhouse2.jpg'></img></p>","null","","1550781962437","","","","","","",""
"null","","html-keyboard-response","263","2713788","0.0-6.0-10.13","29","<p><img class= 'stimulus' src='images/baseline/pexels-photo-351264.jpeg'></img></p>","null","","1550781962537","","","","","","",""
"null","","html-keyboard-response","264","2713888","0.0-6.0-11.13","29","<p><img class= 'stimulus' src='images/baseline/agriculture-bright-clouds-440731.jpg'></img></p>","null","","1550781962636","","","","","","",""
"null","","html-keyboard-response","265","2713989","0.0-6.0-12.13","29","<p><img class= 'stimulus' src='images/baseline/03180v.jpg'></img></p>","null","","1550781962736","12","","","","","",""
"null","","html-keyboard-response","266","2714088","0.0-6.0-13.13","29","<p><img class= 'stimulus' src='images/baseline/Bridge 1.jpg'></img></p>","null","","1550781962836","","","","","","",""
"null","","html-keyboard-response","267","2714189","0.0-6.0-14.13","29","<p><img class= 'stimulus' src='images/baseline/hills 1.jpg'></img></p>","null","","1550781962937","14","","","","","",""
"null","","html-keyboard-response","268","2714289","0.0-6.0-15.13","29","<p><img class= 'stimulus' src='images/baseline/Lake 13.jpg'></img></p>","null","","1550781963037","","","","","","",""
"null","","html-keyboard-response","269","2714389","0.0-6.0-16.13","29","<p><img class= 'stimulus' src='images/baseline/03063v.jpg'></img></p>","null","","1550781963137","","","","","","",""
"null","","html-keyboard-response","270","2714505","0.0-6.0-17.13","29","<p><img class= 'stimulus' src='images/baseline/farmhouse11.jpg'></img></p>","null","","1550781963236","","","","","","",""
"771.3000000221655","","html-button-response","271","2716280","0.0-6.0-18.13","29","<div class = ""response_question"">WAS THE IMAGE ROTATED...</div>","","0","","","6","2","bas","left","practice","true"
"1158.3000000100583","","html-button-response","272","2717440","0.0-6.0-0.14","29","","","0","","","","","","","",""
"null","","html-keyboard-response","273","2717538","0.0-6.0-1.14","29","<p><img class= 'stimulus' src='images/baseline/pexels-photo-280222.jpeg'></img></p>","null","","1550781966286","","","","","","",""
"null","","html-keyboard-response","274","2717638","0.0-6.0-2.14","29","<p><img class= 'stimulus' src='images/baseline/03045v.jpg'></img></p>","null","","1550781966387","","","","","","",""
"null","","html-keyboard-response","275","2717739","0.0-6.0-3.14","29","<p><img class= 'stimulus' src='images/baseline/Sunset 4.jpg'></img></p>","null","","1550781966486","","","","","","",""
"null","","html-keyboard-response","276","2717838","0.0-6.0-4.14","29","<p><img class= 'stimulus' src='images/baseline/Bahia_Onelli_Parque_Nacional_Los_Glaciares_Patagonia_Argentina_Luca_Galuzzi_2005.jpg'></img></p>","null","","1550781966586","4","","","","","",""
"null","","html-keyboard-response","277","2717938","0.0-6.0-5.14","29","<p><img class= 'stimulus' src='images/baseline/snowy tree.jpg'></img></p>","null","","1550781966686","","","","","","",""
"null","","html-keyboard-response","278","2718039","0.0-6.0-6.14","29","<p><img class= 'stimulus' src='images/baseline/landscape23.jpg'></img></p>","null","","1550781966786","6","","","","","",""
"null","","html-keyboard-response","279","2718138","0.0-6.0-7.14","29","<p><img class= 'stimulus' src='images/baseline/Sunset 5.jpg'></img></p>","null","","1550781966887","","","","","","",""
"null","","html-keyboard-response","280","2718238","0.0-6.0-8.14","29","<p><img class= 'stimulus' src='images/baseline/pexels-photo-1261728.jpeg'></img></p>","null","","1550781966987","8","","","","","",""
"null","","html-keyboard-response","281","2718339","0.0-6.0-9.14","29","<p><img class= 'stimulus' src='images/baseline/agriculture-countryside-crop-259280.jpg'></img></p>","null","","1550781967087","","","","","","",""
"null","","html-keyboard-response","282","2718439","0.0-6.0-10.14","29","<p><img class= 'stimulus' src='images/baseline/04179v.jpg'></img></p>","null","","1550781967187","","","","","","",""
"null","","html-keyboard-response","283","2718538","0.0-6.0-11.14","29","<p><img class= 'stimulus' src='images/baseline/pexels-photo-1840893.jpeg'></img></p>","null","","1550781967288","","","","","","",""
"null","","html-keyboard-response","284","2718638","0.0-6.0-12.14","29","<p><img class= 'stimulus' src='images/baseline/valley 1.jpg'></img></p>","null","","1550781967386","12","","","","","",""
"null","","html-keyboard-response","285","2718739","0.0-6.0-13.14","29","<p><img class= 'stimulus' src='images/baseline/landscape31.jpg'></img></p>","null","","1550781967487","","","","","","",""
"null","","html-keyboard-response","286","2718838","0.0-6.0-14.14","29","<p><img class= 'stimulus left-rotate' src='images/target/adventure-desert-landscape-6778.jpg'></img></p>","null","","1550781967587","14","","","","","",""
"null","","html-keyboard-response","287","2718939","0.0-6.0-15.14","29","<p><img class= 'stimulus' src='images/baseline/04158v.jpg'></img></p>","null","","1550781967686","","","","","","",""
"null","","html-keyboard-response","288","2719038","0.0-6.0-16.14","29","<p><img class= 'stimulus' src='images/baseline/hills 4.jpg'></img></p>","null","","1550781967787","","","","","","",""
"null","","html-keyboard-response","289","2719156","0.0-6.0-17.14","29","<p><img class= 'stimulus' src='images/baseline/Freudenberg_sg_Switzerland.jpg'></img></p>","null","","1550781967886","","","","","","",""
"625.6000000284985","","html-button-response","290","2720784","0.0-6.0-18.14","29","<div class = ""response_question"">WAS THE IMAGE ROTATED...</div>","","0","","","6","8","bas","left","practice","true"
"1262.5000000111759","","html-button-response","291","2722048","0.0-6.0-0.15","29","","","0","","","","","","","",""
"null","","html-keyboard-response","292","2722122","0.0-6.0-1.15","29","<p><img class= 'stimulus' src='images/baseline/building4.jpg'></img></p>","null","","1550781970870","","","","","","",""
"null","","html-keyboard-response","293","2722222","0.0-6.0-2.15","29","<p><img class= 'stimulus' src='images/baseline/Sidewalk 4.jpg'></img></p>","null","","1550781970971","","","","","","",""
"null","","html-keyboard-response","294","2722321","0.0-6.0-3.15","29","<p><img class= 'stimulus' src='images/baseline/03204v.jpg'></img></p>","null","","1550781971071","","","","","","",""
"null","","html-keyboard-response","295","2722421","0.0-6.0-4.15","29","<p><img class= 'stimulus' src='images/baseline/grand-teton-mountains.jpg'></img></p>","null","","1550781971171","4","","","","","",""
"null","","html-keyboard-response","296","2722521","0.0-6.0-5.15","29","<p><img class= 'stimulus' src='images/baseline/02947v.jpg'></img></p>","null","","1550781971271","","","","","","",""
"null","","html-keyboard-response","297","2722622","0.0-6.0-6.15","29","<p><img class= 'stimulus' src='images/baseline/pexels-photo-808465.jpeg'></img></p>","null","","1550781971371","6","","","","","",""
"null","","html-keyboard-response","298","2722722","0.0-6.0-7.15","29","<p><img class= 'stimulus' src='images/baseline/landscape2.jpg'></img></p>","null","","1550781971470","","","","","","",""
"null","","html-keyboard-response","299","2722822","0.0-6.0-8.15","29","<p><img class= 'stimulus' src='images/baseline/04284v.jpg'></img></p>","null","","1550781971570","8","","","","","",""
"null","","html-keyboard-response","300","2722922","0.0-6.0-9.15","29","<p><img class= 'stimulus' src='images/baseline/lookout_tower.jpg'></img></p>","null","","1550781971670","","","","","","",""
"null","","html-keyboard-response","301","2723022","0.0-6.0-10.15","29","<p><img class= 'stimulus' src='images/baseline/05264v.jpg'></img></p>","null","","1550781971772","","","","","","",""
"null","","html-keyboard-response","302","2723122","0.0-6.0-11.15","29","<p><img class= 'stimulus' src='images/baseline/03201v.jpg'></img></p>","null","","1550781971872","","","","","","",""
"null","","html-keyboard-response","303","2723222","0.0-6.0-12.15","29","<p><img class= 'stimulus' src='images/baseline/05139v.jpg'></img></p>","null","","1550781971971","12","","","","","",""
"null","","html-keyboard-response","304","2723321","0.0-6.0-13.15","29","<p><img class= 'stimulus' src='images/baseline/lone-old-cottonwood-tree.jpg'></img></p>","null","","1550781972071","","","","","","",""
"null","","html-keyboard-response","305","2723422","0.0-6.0-14.15","29","<p><img class= 'stimulus' src='images/target/tree.jpeg'></img></p>","null","","1550781972171","14","","","","","",""
"null","","html-keyboard-response","306","2723522","0.0-6.0-15.15","29","<p><img class= 'stimulus' src='images/baseline/pexels-photo-541101.jpeg'></img></p>","null","","1550781972271","","","","","","",""
"null","","html-keyboard-response","307","2723622","0.0-6.0-16.15","29","<p><img class= 'stimulus' src='images/baseline/Waterfall 1.jpg'></img></p>","null","","1550781972370","","","","","","",""
"null","","html-keyboard-response","308","2723738","0.0-6.0-17.15","29","<p><img class= 'stimulus' src='images/baseline/Sunset 5.jpg'></img></p>","null","","1550781972471","","","","","","",""
"475.5","","html-button-response","309","2725217","0.0-6.0-18.15","29","<div class = ""response_question"">WAS THE IMAGE ROTATED...</div>","","4","","","6","8","bas","right","practice","true"
"32806.199999991804","","html-button-response","310","2758024","0.0-7.0","29","<p>You have now completed the practice phase. We will now begin the real trials.         This is a reminder that you will be searching for a rotated image among the series of upright images.</p>         <p>Remember, please do not blink or move your eyes while the images are on the screen.</p>         <p>At the end of the experiment, the experimenter will be able to show you how accurate you were.</p>","","0","","","","","","","",""
"2382.6999999582767","","html-button-response","311","2760408","0.0-8.0-0.0-0.0","29","","","0","","","","","","","",""
"null","","html-keyboard-response","312","2760489","0.0-8.0-0.0-1.0","29","<p><img class= 'stimulus' src='images/baseline/Paysage_karabagh_02.jpg'></img></p>","null","","1550782009238","","","","","","",""
"null","","html-keyboard-response","313","2760589","0.0-8.0-0.0-2.0","29","<p><img class= 'stimulus' src='images/baseline/pexels-photo-440731.jpeg'></img></p>","null","","1550782009338","","","","","","",""
"null","","html-keyboard-response","314","2760688","0.0-8.0-0.0-3.0","29","<p><img class= 'stimulus' src='images/baseline/landscape34.jpg'></img></p>","null","","1550782009437","","","","","","",""
"null","","html-keyboard-response","315","2760789","0.0-8.0-0.0-4.0","29","<p><img class= 'stimulus' src='images/baseline/landscape2.jpg'></img></p>","null","","1550782009538","4","","","","","",""
"null","","html-keyboard-response","316","2760889","0.0-8.0-0.0-5.0","29","<p><img class= 'stimulus' src='images/baseline/Lake 9.jpg'></img></p>","null","","1550782009637","","","","","","",""
"null","","html-keyboard-response","317","2760989","0.0-8.0-0.0-6.0","29","<p><img class= 'stimulus' src='images/negative/Gun 1.jpg'></img></p>","null","","1550782009737","6","","","","","",""
"null","","html-keyboard-response","318","2761089","0.0-8.0-0.0-7.0","29","<p><img class= 'stimulus' src='images/baseline/pexels-photo-221125.jpeg'></img></p>","null","","1550782009838","","","","","","",""
"null","","html-keyboard-response","319","2761189","0.0-8.0-0.0-8.0","29","<p><img class= 'stimulus' src='images/baseline/04179v.jpg'></img></p>","null","","1550782009937","8","","","","","",""
"null","","html-keyboard-response","320","2761290","0.0-8.0-0.0-9.0","29","<p><img class= 'stimulus' src='images/baseline/04284v.jpg'></img></p>","null","","1550782010039","","","","","","",""
"null","","html-keyboard-response","321","2761390","0.0-8.0-0.0-10.0","29","<p><img class= 'stimulus' src='images/baseline/Lake 3.jpg'></img></p>","null","","1550782010139","","","","","","",""
"null","","html-keyboard-response","322","2761490","0.0-8.0-0.0-11.0","29","<p><img class= 'stimulus' src='images/baseline/field 4.jpg'></img></p>","null","","1550782010238","","","","","","",""
"null","","html-keyboard-response","323","2761589","0.0-8.0-0.0-12.0","29","<p><img class= 'stimulus' src='images/baseline/04062v.jpg'></img></p>","null","","1550782010337","12","","","","","",""
"null","","html-keyboard-response","324","2761689","0.0-8.0-0.0-13.0","29","<p><img class= 'stimulus' src='images/baseline/Aletschgletscher-Eggishorn.jpg'></img></p>","null","","1550782010438","","","","","","",""
"null","","html-keyboard-response","325","2761789","0.0-8.0-0.0-14.0","29","<p><img class= 'stimulus left-rotate' src='images/target/1937-single-tree-at-the-top-of-stone-mountain-pv.jpg'></img></p>","null","","1550782010537","14","","","","","",""
"null","","html-keyboard-response","326","2761889","0.0-8.0-0.0-15.0","29","<p><img class= 'stimulus' src='images/baseline/landscape4.jpg'></img></p>","null","","1550782010637","","","","","","",""
"null","","html-keyboard-response","327","2761989","0.0-8.0-0.0-16.0","29","<p><img class= 'stimulus' src='images/baseline/02971v.jpg'></img></p>","null","","1550782010737","","","","","","",""
"null","","html-keyboard-response","328","2762105","0.0-8.0-0.0-17.0","29","<p><img class= 'stimulus' src='images/baseline/landscape1.jpg'></img></p>","null","","1550782010837","","","","","","",""
"1074.9000000068918","","html-button-response","329","2764185","0.0-8.0-0.0-18.0","29","<div class = ""response_question"">WAS THE IMAGE ROTATED...</div>","","0","","","6","8","neg","left","test","true"
"1502.2999999932945","","html-button-response","330","2765689","0.0-8.0-0.0-0.1","29","","","0","","","","","","","",""
"null","","html-keyboard-response","331","2765772","0.0-8.0-0.0-1.1","29","<p><img class= 'stimulus' src='images/baseline/farmhouse8.jpg'></img></p>","null","","1550782014520","","","","","","",""
"null","","html-keyboard-response","332","2765872","0.0-8.0-0.0-2.1","29","<p><img class= 'stimulus' src='images/baseline/house6.jpg'></img></p>","null","","1550782014621","","","","","","",""
"null","","html-keyboard-response","333","2765972","0.0-8.0-0.0-3.1","29","<p><img class= 'stimulus' src='images/baseline/autumn-in-red-rocks-park.jpg'></img></p>","null","","1550782014720","","","","","","",""
"null","","html-keyboard-response","334","2766073","0.0-8.0-0.0-4.1","29","<p><img class= 'stimulus' src='images/baseline/pexels-photo-808465.jpeg'></img></p>","null","","1550782014821","4","","","","","",""
"null","","html-keyboard-response","335","2766172","0.0-8.0-0.0-5.1","29","<p><img class= 'stimulus' src='images/baseline/05279v.jpg'></img></p>","null","","1550782014922","","","","","","",""
"null","","html-keyboard-response","336","2766273","0.0-8.0-0.0-6.1","29","<p><img class= 'stimulus' src='images/baseline/landscape3.jpg'></img></p>","null","","1550782015021","6","","","","","",""
"null","","html-keyboard-response","337","2766373","0.0-8.0-0.0-7.1","29","<p><img class= 'stimulus' src='images/baseline/04193v.jpg'></img></p>","null","","1550782015120","","","","","","",""
"null","","html-keyboard-response","338","2766473","0.0-8.0-0.0-8.1","29","<p><img class= 'stimulus' src='images/baseline/farmhouse3.jpg'></img></p>","null","","1550782015221","8","","","","","",""
"null","","html-keyboard-response","339","2766572","0.0-8.0-0.0-9.1","29","<p><img class= 'stimulus' src='images/baseline/pexels-photo-459203.jpeg'></img></p>","null","","1550782015320","","","","","","",""
"null","","html-keyboard-response","340","2766672","0.0-8.0-0.0-10.1","29","<p><img class= 'stimulus' src='images/baseline/empire-state-building.jpg'></img></p>","null","","1550782015421","","","","","","",""
"null","","html-keyboard-response","341","2766773","0.0-8.0-0.0-11.1","29","<p><img class= 'stimulus' src='images/baseline/04117v.jpg'></img></p>","null","","1550782015521","","","","","","",""
"null","","html-keyboard-response","342","2766872","0.0-8.0-0.0-12.1","29","<p><img class= 'stimulus' src='images/baseline/04063v.jpg'></img></p>","null","","1550782015621","12","","","","","",""
"null","","html-keyboard-response","343","2766973","0.0-8.0-0.0-13.1","29","<p><img class= 'stimulus' src='images/baseline/Street 5.jpg'></img></p>","null","","1550782015720","","","","","","",""
"null","","html-keyboard-response","344","2767072","0.0-8.0-0.0-14.1","29","<p><img class= 'stimulus' src='images/baseline/landscape11.jpg'></img></p>","null","","1550782015821","14","","","","","",""
"null","","html-keyboard-response","345","2767173","0.0-8.0-0.0-15.1","29","<p><img class= 'stimulus' src='images/baseline/seoul-410266_1920.jpg'></img></p>","null","","1550782015921","","","","","","",""
"null","","html-keyboard-response","346","2767273","0.0-8.0-0.0-16.1","29","<p><img class= 'stimulus' src='images/baseline/Beach 3.jpg'></img></p>","null","","1550782016021","","","","","","",""
"null","","html-keyboard-response","347","2767389","0.0-8.0-0.0-17.1","29","<p><img class= 'stimulus' src='images/baseline/Freudenberg_sg_Switzerland.jpg'></img></p>","null","","1550782016121","","","","","","",""
"1326.5999999707565","","html-button-response","348","2769720","0.0-8.0-0.0-18.1","29","<div class = ""response_question"">WAS THE IMAGE ROTATED...</div>","","2","","","null","null","null","null","test","null"
"1614.6999999759719","","html-button-response","349","2771336","0.0-8.0-0.0-0.2","29","","","0","","","","","","","",""
"null","","html-keyboard-response","350","2771423","0.0-8.0-0.0-1.2","29","<p><img class= 'stimulus' src='images/baseline/red-rocks-park.jpg'></img></p>","null","","1550782020170","","","","","","",""
"null","","html-keyboard-response","351","2771522","0.0-8.0-0.0-2.2","29","<p><img class= 'stimulus' src='images/baseline/landscape12.jpg'></img></p>","null","","1550782020271","","","","","","",""
"null","","html-keyboard-response","352","2771622","0.0-8.0-0.0-3.2","29","<p><img class= 'stimulus' src='images/baseline/04201v.jpg'></img></p>","null","","1550782020372","","","","","","",""
"null","","html-keyboard-response","353","2771722","0.0-8.0-0.0-4.2","29","<p><img class= 'stimulus' src='images/negative/Dog attack 3.jpg'></img></p>","null","","1550782020471","4","","","","","",""
"null","","html-keyboard-response","354","2771823","0.0-8.0-0.0-5.2","29","<p><img class= 'stimulus' src='images/baseline/tennis-court-net-buried-in-snow.jpg'></img></p>","null","","1550782020571","","","","","","",""
"null","","html-keyboard-response","355","2771922","0.0-8.0-0.0-6.2","29","<p><img class= 'stimulus' src='images/baseline/building4.jpg'></img></p>","null","","1550782020672","6","","","","","",""
"null","","html-keyboard-response","356","2772022","0.0-8.0-0.0-7.2","29","<p><img class= 'stimulus' src='images/baseline/99_-_Machu_Picchu_-_Juin_2009.edit3.jpg'></img></p>","null","","1550782020771","","","","","","",""
"null","","html-keyboard-response","357","2772122","0.0-8.0-0.0-8.2","29","<p><img class= 'stimulus' src='images/baseline/02977v.jpg'></img></p>","null","","1550782020871","8","","","","","",""
"null","","html-keyboard-response","358","2772222","0.0-8.0-0.0-9.2","29","<p><img class= 'stimulus' src='images/baseline/agriculture-countryside-crop-259280.jpg'></img></p>","null","","1550782020971","","","","","","",""
"null","","html-keyboard-response","359","2772322","0.0-8.0-0.0-10.2","29","<p><img class= 'stimulus' src='images/baseline/cranes 1.jpg'></img></p>","null","","1550782021072","","","","","","",""
"null","","html-keyboard-response","360","2772422","0.0-8.0-0.0-11.2","29","<p><img class= 'stimulus' src='images/baseline/sun-through-winter-tree-branches1.jpg'></img></p>","null","","1550782021170","","","","","","",""
"null","","html-keyboard-response","361","2772523","0.0-8.0-0.0-12.2","29","<p><img class= 'stimulus' src='images/target/landscape32.jpg'></img></p>","null","","1550782021271","12","","","","","",""
"null","","html-keyboard-response","362","2772624","0.0-8.0-0.0-13.2","29","<p><img class= 'stimulus' src='images/baseline/03041v.jpg'></img></p>","null","","1550782021371","","","","","","",""
"null","","html-keyboard-response","363","2772722","0.0-8.0-0.0-14.2","29","<p><img class= 'stimulus' src='images/baseline/farmhouse6.jpg'></img></p>","null","","1550782021471","14","","","","","",""
"null","","html-keyboard-response","364","2772822","0.0-8.0-0.0-15.2","29","<p><img class= 'stimulus' src='images/baseline/Street 1.jpg'></img></p>","null","","1550782021571","","","","","","",""
"null","","html-keyboard-response","365","2772923","0.0-8.0-0.0-16.2","29","<p><img class= 'stimulus' src='images/baseline/city-silhouette-at-sunset-871291580819Esw.jpg'></img></p>","null","","1550782021671","","","","","","",""
"null","","html-keyboard-response","366","2773040","0.0-8.0-0.0-17.2","29","<p><img class= 'stimulus' src='images/baseline/landscape22.jpg'></img></p>","null","","1550782021771","","","","","","",""
"1565.1999999536201","","html-button-response","367","2775609","0.0-8.0-0.0-18.2","29","<div class = ""response_question"">WAS THE IMAGE ROTATED...</div>","","4","","","4","8","neg","right","test","true"
"846.3999999808148","","html-button-response","368","2776456","0.0-8.0-0.0-0.3","29","","","0","","","","","","","",""
"null","","html-keyboard-response","369","2776540","0.0-8.0-0.0-1.3","29","<p><img class= 'stimulus' src='images/baseline/building3.jpg'></img></p>","null","","1550782025288","","","","","","",""
"null","","html-keyboard-response","370","2776639","0.0-8.0-0.0-2.3","29","<p><img class= 'stimulus' src='images/baseline/02962v.jpg'></img></p>","null","","1550782025387","","","","","","",""
"null","","html-keyboard-response","371","2776739","0.0-8.0-0.0-3.3","29","<p><img class= 'stimulus' src='images/baseline/horse_statue.jpg'></img></p>","null","","1550782025488","","","","","","",""
"null","","html-keyboard-response","372","2776839","0.0-8.0-0.0-4.3","29","<p><img class= 'stimulus' src='images/neutral/Bird 2.jpg'></img></p>","null","","1550782025587","4","","","","","",""
"null","","html-keyboard-response","373","2776939","0.0-8.0-0.0-5.3","29","<p><img class= 'stimulus' src='images/baseline/red rocks from afar.jpg'></img></p>","null","","1550782025687","","","","","","",""
"null","","html-keyboard-response","374","2777039","0.0-8.0-0.0-6.3","29","<p><img class= 'stimulus' src='images/baseline/05247v.jpg'></img></p>","null","","1550782025787","6","","","","","",""
"null","","html-keyboard-response","375","2777139","0.0-8.0-0.0-7.3","29","<p><img class= 'stimulus' src='images/baseline/trees 23.jpg'></img></p>","null","","1550782025888","","","","","","",""
"null","","html-keyboard-response","376","2777239","0.0-8.0-0.0-8.3","29","<p><img class= 'stimulus' src='images/baseline/Happy pose 3.jpg'></img></p>","null","","1550782025988","8","","","","","",""
"null","","html-keyboard-response","377","2777340","0.0-8.0-0.0-9.3","29","<p><img class= 'stimulus' src='images/baseline/Nature 1.jpg'></img></p>","null","","1550782026088","","","","","","",""
"null","","html-keyboard-response","378","2777438","0.0-8.0-0.0-10.3","29","<p><img class= 'stimulus' src='images/baseline/pexels-photo-1837621.jpeg'></img></p>","null","","1550782026187","","","","","","",""
"null","","html-keyboard-response","379","2777539","0.0-8.0-0.0-11.3","29","<p><img class= 'stimulus' src='images/baseline/Sky 1.jpg'></img></p>","null","","1550782026287","","","","","","",""
"null","","html-keyboard-response","380","2777640","0.0-8.0-0.0-12.3","29","<p><img class= 'stimulus' src='images/target/shotstash_0036-1-1100x734.jpg'></img></p>","null","","1550782026389","12","","","","","",""
"null","","html-keyboard-response","381","2777739","0.0-8.0-0.0-13.3","29","<p><img class= 'stimulus' src='images/baseline/05203v.jpg'></img></p>","null","","1550782026488","","","","","","",""
"null","","html-keyboard-response","382","2777839","0.0-8.0-0.0-14.3","29","<p><img class= 'stimulus' src='images/baseline/Sailing 3.jpg'></img></p>","null","","1550782026588","14","","","","","",""
"null","","html-keyboard-response","383","2777939","0.0-8.0-0.0-15.3","29","<p><img class= 'stimulus' src='images/baseline/03201v.jpg'></img></p>","null","","1550782026687","","","","","","",""
"null","","html-keyboard-response","384","2778039","0.0-8.0-0.0-16.3","29","<p><img class= 'stimulus' src='images/baseline/04014v.jpg'></img></p>","null","","1550782026787","","","","","","",""
"null","","html-keyboard-response","385","2778156","0.0-8.0-0.0-17.3","29","<p><img class= 'stimulus' src='images/baseline/building2.jpg'></img></p>","null","","1550782026888","","","","","","",""
"425.5000000121072","","html-button-response","386","2779584","0.0-8.0-0.0-18.3","29","<div class = ""response_question"">WAS THE IMAGE ROTATED...</div>","","3","","","4","8","neu","right","test","true"
"1350.399999995716","","html-button-response","387","2780936","0.0-8.0-0.0-0.4","29","","","0","","","","","","","",""
"null","","html-keyboard-response","388","2781023","0.0-8.0-0.0-1.4","29","<p><img class= 'stimulus' src='images/baseline/pexels-photo-259280.jpeg'></img></p>","null","","1550782029771","","","","","","",""
"null","","html-keyboard-response","389","2781123","0.0-8.0-0.0-2.4","29","<p><img class= 'stimulus' src='images/baseline/house11.jpg'></img></p>","null","","1550782029870","","","","","","",""
"null","","html-keyboard-response","390","2781223","0.0-8.0-0.0-3.4","29","<p><img class= 'stimulus' src='images/baseline/Dirt 2.jpg'></img></p>","null","","1550782029970","","","","","","",""
"null","","html-keyboard-response","391","2781323","0.0-8.0-0.0-4.4","29","<p><img class= 'stimulus' src='images/baseline/04196v.jpg'></img></p>","null","","1550782030071","4","","","","","",""
"null","","html-keyboard-response","392","2781422","0.0-8.0-0.0-5.4","29","<p><img class= 'stimulus' src='images/baseline/farmhouse2.jpg'></img></p>","null","","1550782030171","","","","","","",""
"null","","html-keyboard-response","393","2781522","0.0-8.0-0.0-6.4","29","<p><img class= 'stimulus' src='images/baseline/house3.jpg'></img></p>","null","","1550782030270","6","","","","","",""
"null","","html-keyboard-response","394","2781623","0.0-8.0-0.0-7.4","29","<p><img class= 'stimulus' src='images/baseline/Sidewalk 4.jpg'></img></p>","null","","1550782030371","","","","","","",""
"null","","html-keyboard-response","395","2781723","0.0-8.0-0.0-8.4","29","<p><img class= 'stimulus' src='images/baseline/pexels-photo-351264.jpeg'></img></p>","null","","1550782030471","8","","","","","",""
"null","","html-keyboard-response","396","2781822","0.0-8.0-0.0-9.4","29","<p><img class= 'stimulus' src='images/baseline/03098v.jpg'></img></p>","null","","1550782030571","","","","","","",""
"null","","html-keyboard-response","397","2781923","0.0-8.0-0.0-10.4","29","<p><img class= 'stimulus' src='images/baseline/landscape33.jpg'></img></p>","null","","1550782030671","","","","","","",""
"null","","html-keyboard-response","398","2782022","0.0-8.0-0.0-11.4","29","<p><img class= 'stimulus' src='images/baseline/landscape13.jpg'></img></p>","null","","1550782030770","","","","","","",""
"null","","html-keyboard-response","399","2782123","0.0-8.0-0.0-12.4","29","<p><img class= 'stimulus left-rotate' src='images/target/pexels-photo-1123982.jpeg'></img></p>","null","","1550782030871","12","","","","","",""
"null","","html-keyboard-response","400","2782223","0.0-8.0-0.0-13.4","29","<p><img class= 'stimulus' src='images/baseline/lookout_tower.jpg'></img></p>","null","","1550782030970","","","","","","",""
"null","","html-keyboard-response","401","2782323","0.0-8.0-0.0-14.4","29","<p><img class= 'stimulus' src='images/baseline/04229v.jpg'></img></p>","null","","1550782031070","14","","","","","",""
"null","","html-keyboard-response","402","2782423","0.0-8.0-0.0-15.4","29","<p><img class= 'stimulus' src='images/baseline/Lake 5.jpg'></img></p>","null","","1550782031170","","","","","","",""
"null","","html-keyboard-response","403","2782522","0.0-8.0-0.0-16.4","29","<p><img class= 'stimulus' src='images/baseline/farmhouse11.jpg'></img></p>","null","","1550782031271","","","","","","",""
"null","","html-keyboard-response","404","2782640","0.0-8.0-0.0-17.4","29","<p><img class= 'stimulus' src='images/baseline/05179v.jpg'></img></p>","null","","1550782031371","","","","","","",""
"661.5999999921769","","html-button-response","405","2784305","0.0-8.0-0.0-18.4","29","<div class = ""response_question"">WAS THE IMAGE ROTATED...</div>","","0","","","4","8","bas","left","test","true"
"1766.2000000122935","","html-button-response","406","2786073","0.0-8.0-0.0-0.5","29","","","0","","","","","","","",""
"null","","html-keyboard-response","407","2786156","0.0-8.0-0.0-1.5","29","<p><img class= 'stimulus' src='images/baseline/meadow-with-mountain-in-background.jpg'></img></p>","null","","1550782034905","","","","","","",""
"null","","html-keyboard-response","408","2786256","0.0-8.0-0.0-2.5","29","<p><img class= 'stimulus' src='images/baseline/farmhouse7.jpg'></img></p>","null","","1550782035005","","","","","","",""
"null","","html-keyboard-response","409","2786355","0.0-8.0-0.0-3.5","29","<p><img class= 'stimulus' src='images/baseline/02988v.jpg'></img></p>","null","","1550782035104","","","","","","",""
"null","","html-keyboard-response","410","2786456","0.0-8.0-0.0-4.5","29","<p><img class= 'stimulus' src='images/baseline/05264v.jpg'></img></p>","null","","1550782035204","4","","","","","",""
"null","","html-keyboard-response","411","2786556","0.0-8.0-0.0-5.5","29","<p><img class= 'stimulus' src='images/baseline/lake 1.jpg'></img></p>","null","","1550782035305","","","","","","",""
"null","","html-keyboard-response","412","2786656","0.0-8.0-0.0-6.5","29","<p><img class= 'stimulus' src='images/neutral/listening to music.jpg'></img></p>","null","","1550782035404","6","","","","","",""
"null","","html-keyboard-response","413","2786756","0.0-8.0-0.0-7.5","29","<p><img class= 'stimulus' src='images/baseline/building16.jpg'></img></p>","null","","1550782035504","","","","","","",""
"null","","html-keyboard-response","414","2786856","0.0-8.0-0.0-8.5","29","<p><img class= 'stimulus' src='images/target/building1.jpg'></img></p>","null","","1550782035604","8","","","","","",""
"null","","html-keyboard-response","415","2786956","0.0-8.0-0.0-9.5","29","<p><img class= 'stimulus' src='images/baseline/architecture_modern_architecture_852928.jpg'></img></p>","null","","1550782035704","","","","","","",""
"null","","html-keyboard-response","416","2787056","0.0-8.0-0.0-10.5","29","<p><img class= 'stimulus' src='images/baseline/lake3.jpg'></img></p>","null","","1550782035805","","","","","","",""
"null","","html-keyboard-response","417","2787155","0.0-8.0-0.0-11.5","29","<p><img class= 'stimulus' src='images/baseline/03045v.jpg'></img></p>","null","","1550782035904","","","","","","",""
"null","","html-keyboard-response","418","2787256","0.0-8.0-0.0-12.5","29","<p><img class= 'stimulus' src='images/baseline/05189v.jpg'></img></p>","null","","1550782036003","12","","","","","",""
"null","","html-keyboard-response","419","2787356","0.0-8.0-0.0-13.5","29","<p><img class= 'stimulus' src='images/baseline/03180v.jpg'></img></p>","null","","1550782036104","","","","","","",""
"null","","html-keyboard-response","420","2787456","0.0-8.0-0.0-14.5","29","<p><img class= 'stimulus' src='images/baseline/river 1.jpg'></img></p>","null","","1550782036204","14","","","","","",""
"null","","html-keyboard-response","421","2787556","0.0-8.0-0.0-15.5","29","<p><img class= 'stimulus' src='images/baseline/04064v.jpg'></img></p>","null","","1550782036305","","","","","","",""
"null","","html-keyboard-response","422","2787656","0.0-8.0-0.0-16.5","29","<p><img class= 'stimulus' src='images/baseline/farmhouse1.jpg'></img></p>","null","","1550782036403","","","","","","",""
"null","","html-keyboard-response","423","2787773","0.0-8.0-0.0-17.5","29","<p><img class= 'stimulus' src='images/baseline/02982v.jpg'></img></p>","null","","1550782036504","","","","","","",""
"2015.199999964796","","html-button-response","424","2790792","0.0-8.0-0.0-18.5","29","<div class = ""response_question"">WAS THE IMAGE ROTATED...</div>","","2","","","6","2","neu","right","test","false"
"1350.2999999905005","","html-button-response","425","2792144","0.0-8.0-0.0-0.6","29","","","0","","","","","","","",""
"null","","html-keyboard-response","426","2792223","0.0-8.0-0.0-1.6","29","<p><img class= 'stimulus' src='images/baseline/05252v.jpg'></img></p>","null","","1550782040970","","","","","","",""
"null","","html-keyboard-response","427","2792322","0.0-8.0-0.0-2.6","29","<p><img class= 'stimulus' src='images/baseline/landscape40.jpg'></img></p>","null","","1550782041071","","","","","","",""
"null","","html-keyboard-response","428","2792423","0.0-8.0-0.0-3.6","29","<p><img class= 'stimulus' src='images/baseline/05292v.jpg'></img></p>","null","","1550782041171","","","","","","",""
"null","","html-keyboard-response","429","2792523","0.0-8.0-0.0-4.6","29","<p><img class= 'stimulus' src='images/baseline/building6.jpg'></img></p>","null","","1550782041271","4","","","","","",""
"null","","html-keyboard-response","430","2792622","0.0-8.0-0.0-5.6","29","<p><img class= 'stimulus' src='images/baseline/04086v.jpg'></img></p>","null","","1550782041371","","","","","","",""
"null","","html-keyboard-response","431","2792723","0.0-8.0-0.0-6.6","29","<p><img class= 'stimulus' src='images/negative/Shark 4.jpg'></img></p>","null","","1550782041470","6","","","","","",""
"null","","html-keyboard-response","432","2792822","0.0-8.0-0.0-7.6","29","<p><img class= 'stimulus' src='images/baseline/lake 2.jpg'></img></p>","null","","1550782041572","","","","","","",""
"null","","html-keyboard-response","433","2792923","0.0-8.0-0.0-8.6","29","<p><img class= 'stimulus left-rotate' src='images/target/building4.jpg'></img></p>","null","","1550782041671","8","","","","","",""
"null","","html-keyboard-response","434","2793023","0.0-8.0-0.0-9.6","29","<p><img class= 'stimulus' src='images/baseline/building9.jpg'></img></p>","null","","1550782041771","","","","","","",""
"null","","html-keyboard-response","435","2793122","0.0-8.0-0.0-10.6","29","<p><img class= 'stimulus' src='images/baseline/Grass 6.jpg'></img></p>","null","","1550782041871","","","","","","",""
"null","","html-keyboard-response","436","2793222","0.0-8.0-0.0-11.6","29","<p><img class= 'stimulus' src='images/baseline/town-square-in-wroclaw-1539098440MZy.jpg'></img></p>","null","","1550782041971","","","","","","",""
"null","","html-keyboard-response","437","2793323","0.0-8.0-0.0-12.6","29","<p><img class= 'stimulus' src='images/baseline/valley 1.jpg'></img></p>","null","","1550782042071","12","","","","","",""
"null","","html-keyboard-response","438","2793423","0.0-8.0-0.0-13.6","29","<p><img class= 'stimulus' src='images/baseline/landscape17.jpg'></img></p>","null","","1550782042170","","","","","","",""
"null","","html-keyboard-response","439","2793523","0.0-8.0-0.0-14.6","29","<p><img class= 'stimulus' src='images/baseline/Lake 16.jpg'></img></p>","null","","1550782042270","14","","","","","",""
"null","","html-keyboard-response","440","2793623","0.0-8.0-0.0-15.6","29","<p><img class= 'stimulus' src='images/baseline/sunny-landscape-with-dry-brush-and-mountain-background.jpg'></img></p>","null","","1550782042370","","","","","","",""
"null","","html-keyboard-response","441","2793723","0.0-8.0-0.0-16.6","29","<p><img class= 'stimulus' src='images/baseline/Street 2.jpg'></img></p>","null","","1550782042471","","","","","","",""
"null","","html-keyboard-response","442","2793839","0.0-8.0-0.0-17.6","29","<p><img class= 'stimulus' src='images/baseline/landscape23.jpg'></img></p>","null","","1550782042571","","","","","","",""
"2700.2000000206754","","html-button-response","443","2797545","0.0-8.0-0.0-18.6","29","<div class = ""response_question"">WAS THE IMAGE ROTATED...</div>","","5","","","6","2","neg","left","test","false"
"1558.3000000333413","","html-button-response","444","2799104","0.0-8.0-0.0-0.7","29","","","0","","","","","","","",""
"null","","html-keyboard-response","445","2799189","0.0-8.0-0.0-1.7","29","<p><img class= 'stimulus' src='images/baseline/05255v.jpg'></img></p>","null","","1550782047938","","","","","","",""
"null","","html-keyboard-response","446","2799289","0.0-8.0-0.0-2.7","29","<p><img class= 'stimulus' src='images/baseline/foreclosed_home.jpg'></img></p>","null","","1550782048038","","","","","","",""
"null","","html-keyboard-response","447","2799388","0.0-8.0-0.0-3.7","29","<p><img class= 'stimulus' src='images/baseline/04222v.jpg'></img></p>","null","","1550782048138","","","","","","",""
"null","","html-keyboard-response","448","2799490","0.0-8.0-0.0-4.7","29","<p><img class= 'stimulus' src='images/baseline/04098v.jpg'></img></p>","null","","1550782048238","4","","","","","",""
"null","","html-keyboard-response","449","2799590","0.0-8.0-0.0-5.7","29","<p><img class= 'stimulus' src='images/baseline/landscape7.jpg'></img></p>","null","","1550782048339","","","","","","",""
"null","","html-keyboard-response","450","2799689","0.0-8.0-0.0-6.7","29","<p><img class= 'stimulus' src='images/baseline/Bridge 1.jpg'></img></p>","null","","1550782048438","6","","","","","",""
"null","","html-keyboard-response","451","2799789","0.0-8.0-0.0-7.7","29","<p><img class= 'stimulus' src='images/baseline/Path 1.jpg'></img></p>","null","","1550782048537","","","","","","",""
"null","","html-keyboard-response","452","2799889","0.0-8.0-0.0-8.7","29","<p><img class= 'stimulus left-rotate' src='images/target/sand-3339890_640.jpg'></img></p>","null","","1550782048638","8","","","","","",""
"null","","html-keyboard-response","453","2799989","0.0-8.0-0.0-9.7","29","<p><img class= 'stimulus' src='images/baseline/landscape14.jpg'></img></p>","null","","1550782048739","","","","","","",""
"null","","html-keyboard-response","454","2800089","0.0-8.0-0.0-10.7","29","<p><img class= 'stimulus' src='images/baseline/agriculture-bright-clouds-440731.jpg'></img></p>","null","","1550782048839","","","","","","",""
"null","","html-keyboard-response","455","2800190","0.0-8.0-0.0-11.7","29","<p><img class= 'stimulus' src='images/baseline/building5.jpg'></img></p>","null","","1550782048938","","","","","","",""
"null","","html-keyboard-response","456","2800290","0.0-8.0-0.0-12.7","29","<p><img class= 'stimulus' src='images/baseline/vintage-art-deco-storefront.jpg'></img></p>","null","","1550782049037","12","","","","","",""
"null","","html-keyboard-response","457","2800389","0.0-8.0-0.0-13.7","29","<p><img class= 'stimulus' src='images/baseline/landscape16.jpg'></img></p>","null","","1550782049138","","","","","","",""
"null","","html-keyboard-response","458","2800489","0.0-8.0-0.0-14.7","29","<p><img class= 'stimulus' src='images/baseline/house8.jpg'></img></p>","null","","1550782049238","14","","","","","",""
"null","","html-keyboard-response","459","2800590","0.0-8.0-0.0-15.7","29","<p><img class= 'stimulus' src='images/baseline/grand-teton-mountains.jpg'></img></p>","null","","1550782049338","","","","","","",""
"null","","html-keyboard-response","460","2800690","0.0-8.0-0.0-16.7","29","<p><img class= 'stimulus' src='images/baseline/__08_-_ITALY_-_Forli_under_snow_-_winter_landscape_of_city_(christmas).jpg'></img></p>","null","","1550782049438","","","","","","",""
"null","","html-keyboard-response","461","2800806","0.0-8.0-0.0-17.7","29","<p><img class= 'stimulus' src='images/baseline/Lake 8.jpg'></img></p>","null","","1550782049538","","","","","","",""
"463.0999999931082","","html-button-response","462","2802272","0.0-8.0-0.0-18.7","29","<div class = ""response_question"">WAS THE IMAGE ROTATED...</div>","","0","","","6","2","bas","left","test","true"
"1102.100000018254","","html-button-response","463","2803376","0.0-8.0-0.0-0.8","29","","","0","","","","","","","",""
"null","","html-keyboard-response","464","2803456","0.0-8.0-0.0-1.8","29","<p><img class= 'stimulus' src='images/baseline/03220v.jpg'></img></p>","null","","1550782052204","","","","","","",""
"null","","html-keyboard-response","465","2803557","0.0-8.0-0.0-2.8","29","<p><img class= 'stimulus' src='images/baseline/pexels-photo-210617.jpeg'></img></p>","null","","1550782052304","","","","","","",""
"null","","html-keyboard-response","466","2803656","0.0-8.0-0.0-3.8","29","<p><img class= 'stimulus' src='images/baseline/Beach 8.jpg'></img></p>","null","","1550782052405","","","","","","",""
"null","","html-keyboard-response","467","2803756","0.0-8.0-0.0-4.8","29","<p><img class= 'stimulus' src='images/baseline/road.jpg'></img></p>","null","","1550782052504","4","","","","","",""
"null","","html-keyboard-response","468","2803857","0.0-8.0-0.0-5.8","29","<p><img class= 'stimulus' src='images/baseline/landscape36.jpg'></img></p>","null","","1550782052604","","","","","","",""
"null","","html-keyboard-response","469","2803956","0.0-8.0-0.0-6.8","29","<p><img class= 'stimulus' src='images/baseline/Camping 10.jpg'></img></p>","null","","1550782052705","6","","","","","",""
"null","","html-keyboard-response","470","2804055","0.0-8.0-0.0-7.8","29","<p><img class= 'stimulus' src='images/baseline/kokkari-1523011968Xfr.jpg'></img></p>","null","","1550782052805","","","","","","",""
"null","","html-keyboard-response","471","2804156","0.0-8.0-0.0-8.8","29","<p><img class= 'stimulus' src='images/baseline/field 1.jpg'></img></p>","null","","1550782052905","8","","","","","",""
"null","","html-keyboard-response","472","2804256","0.0-8.0-0.0-9.8","29","<p><img class= 'stimulus' src='images/baseline/03075v.jpg'></img></p>","null","","1550782053005","","","","","","",""
"null","","html-keyboard-response","473","2804356","0.0-8.0-0.0-10.8","29","<p><img class= 'stimulus' src='images/baseline/house7.jpg'></img></p>","null","","1550782053104","","","","","","",""
"null","","html-keyboard-response","474","2804456","0.0-8.0-0.0-11.8","29","<p><img class= 'stimulus' src='images/baseline/02960v.jpg'></img></p>","null","","1550782053205","","","","","","",""
"null","","html-keyboard-response","475","2804556","0.0-8.0-0.0-12.8","29","<p><img class= 'stimulus' src='images/baseline/building12.jpg'></img></p>","null","","1550782053305","12","","","","","",""
"null","","html-keyboard-response","476","2804656","0.0-8.0-0.0-13.8","29","<p><img class= 'stimulus' src='images/baseline/landscape6.jpg'></img></p>","null","","1550782053404","","","","","","",""
"null","","html-keyboard-response","477","2804755","0.0-8.0-0.0-14.8","29","<p><img class= 'stimulus left-rotate' src='images/target/house-estate-1100x733.jpg'></img></p>","null","","1550782053506","14","","","","","",""
"null","","html-keyboard-response","478","2804856","0.0-8.0-0.0-15.8","29","<p><img class= 'stimulus' src='images/baseline/05198v.jpg'></img></p>","null","","1550782053605","","","","","","",""
"null","","html-keyboard-response","479","2804956","0.0-8.0-0.0-16.8","29","<p><img class= 'stimulus' src='images/baseline/03066v.jpg'></img></p>","null","","1550782053704","","","","","","",""
"null","","html-keyboard-response","480","2805073","0.0-8.0-0.0-17.8","29","<p><img class= 'stimulus' src='images/baseline/04300v.jpg'></img></p>","null","","1550782053804","","","","","","",""
"779.5000000037253","","html-button-response","481","2806857","0.0-8.0-0.0-18.8","29","<div class = ""response_question"">WAS THE IMAGE ROTATED...</div>","","1","","","6","8","bas","left","test","true"
"1566.2000000011176","","html-button-response","482","2808425","0.0-8.0-0.0-0.9","29","","","0","","","","","","","",""
"null","","html-keyboard-response","483","2808506","0.0-8.0-0.0-1.9","29","<p><img class= 'stimulus' src='images/baseline/Dock 1.jpg'></img></p>","null","","1550782057255","","","","","","",""
"null","","html-keyboard-response","484","2808606","0.0-8.0-0.0-2.9","29","<p><img class= 'stimulus' src='images/baseline/02945v.jpg'></img></p>","null","","1550782057356","","","","","","",""
"null","","html-keyboard-response","485","2808706","0.0-8.0-0.0-3.9","29","<p><img class= 'stimulus' src='images/baseline/Bahia_Onelli_Parque_Nacional_Los_Glaciares_Patagonia_Argentina_Luca_Galuzzi_2005.jpg'></img></p>","null","","1550782057456","","","","","","",""
"null","","html-keyboard-response","486","2808807","0.0-8.0-0.0-4.9","29","<p><img class= 'stimulus' src='images/neutral/Elephant 1.jpg'></img></p>","null","","1550782057554","4","","","","","",""
"null","","html-keyboard-response","487","2808905","0.0-8.0-0.0-5.9","29","<p><img class= 'stimulus' src='images/baseline/house2.jpg'></img></p>","null","","1550782057655","","","","","","",""
"null","","html-keyboard-response","488","2809006","0.0-8.0-0.0-6.9","29","<p><img class= 'stimulus' src='images/baseline/geese-flying-over-lake-at-dusk.jpg'></img></p>","null","","1550782057754","6","","","","","",""
"null","","html-keyboard-response","489","2809105","0.0-8.0-0.0-7.9","29","<p><img class= 'stimulus' src='images/baseline/Street 3.jpg'></img></p>","null","","1550782057855","","","","","","",""
"null","","html-keyboard-response","490","2809206","0.0-8.0-0.0-8.9","29","<p><img class= 'stimulus' src='images/baseline/05186v.jpg'></img></p>","null","","1550782057954","8","","","","","",""
"null","","html-keyboard-response","491","2809306","0.0-8.0-0.0-9.9","29","<p><img class= 'stimulus' src='images/baseline/landscape38.jpg'></img></p>","null","","1550782058055","","","","","","",""
"null","","html-keyboard-response","492","2809406","0.0-8.0-0.0-10.9","29","<p><img class= 'stimulus' src='images/baseline/Skyscraper 2.jpg'></img></p>","null","","1550782058156","","","","","","",""
"null","","html-keyboard-response","493","2809506","0.0-8.0-0.0-11.9","29","<p><img class= 'stimulus' src='images/baseline/05240v.jpg'></img></p>","null","","1550782058255","","","","","","",""
"null","","html-keyboard-response","494","2809606","0.0-8.0-0.0-12.9","29","<p><img class= 'stimulus' src='images/target/buildin5.jpg'></img></p>","null","","1550782058355","12","","","","","",""
"null","","html-keyboard-response","495","2809706","0.0-8.0-0.0-13.9","29","<p><img class= 'stimulus' src='images/baseline/04010v.jpg'></img></p>","null","","1550782058454","","","","","","",""
"null","","html-keyboard-response","496","2809805","0.0-8.0-0.0-14.9","29","<p><img class= 'stimulus' src='images/baseline/04158v.jpg'></img></p>","null","","1550782058554","14","","","","","",""
"null","","html-keyboard-response","497","2809906","0.0-8.0-0.0-15.9","29","<p><img class= 'stimulus' src='images/baseline/05145v.jpg'></img></p>","null","","1550782058656","","","","","","",""
"null","","html-keyboard-response","498","2810005","0.0-8.0-0.0-16.9","29","<p><img class= 'stimulus' src='images/baseline/chicago-skyline-at-night-1476869511p8U.jpg'></img></p>","null","","1550782058754","","","","","","",""
"null","","html-keyboard-response","499","2810122","0.0-8.0-0.0-17.9","29","<p><img class= 'stimulus' src='images/baseline/Paysage_enneige_02.jpg'></img></p>","null","","1550782058854","","","","","","",""
"770.9000000031665","","html-button-response","500","2811897","0.0-8.0-0.0-18.9","29","<div class = ""response_question"">WAS THE IMAGE ROTATED...</div>","","3","","","4","8","neu","right","test","true"
"1853.7999999821186","","html-button-response","501","2813751","0.0-8.0-0.0-0.10","29","","","0","","","","","","","",""
"null","","html-keyboard-response","502","2813839","0.0-8.0-0.0-1.10","29","<p><img class= 'stimulus' src='images/baseline/snowy tree.jpg'></img></p>","null","","1550782062589","","","","","","",""
"null","","html-keyboard-response","503","2813939","0.0-8.0-0.0-2.10","29","<p><img class= 'stimulus' src='images/baseline/field 2.jpg'></img></p>","null","","1550782062688","","","","","","",""
"null","","html-keyboard-response","504","2814039","0.0-8.0-0.0-3.10","29","<p><img class= 'stimulus' src='images/baseline/Nature 2.jpg'></img></p>","null","","1550782062788","","","","","","",""
"null","","html-keyboard-response","505","2814139","0.0-8.0-0.0-4.10","29","<p><img class= 'stimulus' src='images/baseline/pexels-photo-1048039.jpeg'></img></p>","null","","1550782062888","4","","","","","",""
"null","","html-keyboard-response","506","2814240","0.0-8.0-0.0-5.10","29","<p><img class= 'stimulus' src='images/baseline/03204v.jpg'></img></p>","null","","1550782062988","","","","","","",""
"null","","html-keyboard-response","507","2814339","0.0-8.0-0.0-6.10","29","<p><img class= 'stimulus' src='images/baseline/04031v.jpg'></img></p>","null","","1550782063089","6","","","","","",""
