"rt","responses","trial_type","trial_index","time_elapsed","internal_node_id","participant_id","stimulus","key_press","button_pressed","stim_onset","sequence_position","distractor_position","target_lag","distractor_type","target_orientation","phase","correct"
"19371.200000008685","{""Q0"":""38""}","survey-text","0","19376","0.0-0.0","38","","","","","","","","","","",""
"1387157.0000000065","","html-keyboard-response","1","1406533","0.0-1.0","38","Welcome to the experiment.","67","","","","","","","","",""
"16410.69999999297","","html-button-response","2","1422948","0.0-2.0","38","<p>Several images will be presented sequentially.        Each image will only be on the screen for about 100 milliseconds.</p>        <p> One of the images may be rotated 90 degrees right or left.        Watch for this image and remember if it is rotated right or left.</p>               <p>Images of people and animals will appear, and sometimes they will be unpleasant.        These will never be the rotated target image.</p>","","0","","","","","","","",""
"2046.2999999872409","","html-button-response","3","1424996","0.0-3.0","38","<p><img class=""stimulus left-rotate"" src=""images/target/building2.jpg""></img></p><p>This is an example of an image rotated to the left.</p>","","0","","","","","","","",""
"1190.6999999920372","","html-button-response","4","1426188","0.0-4.0","38","<p><img class=""stimulus"" src=""images/target/cactus2.jpg""></img></p><p>This is an example of an image rotated to the right.</p>","","0","","","","","","","",""
"5719.100000001956","","html-button-response","5","1431907","0.0-5.0","38","<p>We will now begin a short practice session.</p>         <p>A + symbol will appear in the middle of the screen. Please fix your gaze on the center of the +, and then click the mouse button to begin the image sequence.</p>         <p>Please avoid blinking or eye movements while the images are on the screen.</p>        <p>The image sequence will start relatively slow. After a few sequences, it will speed up.</p>","","0","","","","","","","",""
"10862.800000002608","","html-button-response","6","1442772","0.0-6.0-0.0","38","","","0","","","","","","","",""
"null","","html-keyboard-response","7","1442960","0.0-6.0-1.0","38","<p><img class= 'stimulus' src='images/baseline/Lake 15.jpg'></img></p>","null","","1551133598637","","","","","","",""
"null","","html-keyboard-response","8","1443160","0.0-6.0-2.0","38","<p><img class= 'stimulus' src='images/baseline/landscape19.jpg'></img></p>","null","","1551133598837","","","","","","",""
"null","","html-keyboard-response","9","1443360","0.0-6.0-3.0","38","<p><img class= 'stimulus' src='images/baseline/farmhouse9.jpg'></img></p>","null","","1551133599037","","","","","","",""
"null","","html-keyboard-response","10","1443560","0.0-6.0-4.0","38","<p><img class= 'stimulus' src='images/baseline/bird-flying-at-sunset.jpg'></img></p>","null","","1551133599238","4","","","","","",""
"null","","html-keyboard-response","11","1443760","0.0-6.0-5.0","38","<p><img class= 'stimulus' src='images/baseline/03056v.jpg'></img></p>","null","","1551133599439","","","","","","",""
"null","","html-keyboard-response","12","1443960","0.0-6.0-6.0","38","<p><img class= 'stimulus left-rotate' src='images/target/building1.jpg'></img></p>","null","","1551133599637","6","","","","","",""
"null","","html-keyboard-response","13","1444160","0.0-6.0-7.0","38","<p><img class= 'stimulus' src='images/baseline/03180v.jpg'></img></p>","null","","1551133599837","","","","","","",""
"null","","html-keyboard-response","14","1444361","0.0-6.0-8.0","38","<p><img class= 'stimulus' src='images/baseline/Paysage_karabagh_02.jpg'></img></p>","null","","1551133600039","8","","","","","",""
"null","","html-keyboard-response","15","1444559","0.0-6.0-9.0","38","<p><img class= 'stimulus' src='images/baseline/landscape8.jpg'></img></p>","null","","1551133600237","","","","","","",""
"null","","html-keyboard-response","16","1444760","0.0-6.0-10.0","38","<p><img class= 'stimulus' src='images/baseline/Lake 14.jpg'></img></p>","null","","1551133600437","","","","","","",""
"null","","html-keyboard-response","17","1444960","0.0-6.0-11.0","38","<p><img class= 'stimulus' src='images/baseline/pexels-photo-280222.jpeg'></img></p>","null","","1551133600639","","","","","","",""
"null","","html-keyboard-response","18","1445160","0.0-6.0-12.0","38","<p><img class= 'stimulus' src='images/baseline/05203v.jpg'></img></p>","null","","1551133600837","12","","","","","",""
"null","","html-keyboard-response","19","1445361","0.0-6.0-13.0","38","<p><img class= 'stimulus' src='images/baseline/04086v.jpg'></img></p>","null","","1551133601039","","","","","","",""
"null","","html-keyboard-response","20","1445562","0.0-6.0-14.0","38","<p><img class= 'stimulus' src='images/baseline/sun-through-winter-tree-branches1.jpg'></img></p>","null","","1551133601239","14","","","","","",""
"null","","html-keyboard-response","21","1445762","0.0-6.0-15.0","38","<p><img class= 'stimulus' src='images/baseline/05240v.jpg'></img></p>","null","","1551133601438","","","","","","",""
"null","","html-keyboard-response","22","1445962","0.0-6.0-16.0","38","<p><img class= 'stimulus' src='images/baseline/building16.jpg'></img></p>","null","","1551133601639","","","","","","",""
"null","","html-keyboard-response","23","1446178","0.0-6.0-17.0","38","<p><img class= 'stimulus' src='images/baseline/05189v.jpg'></img></p>","null","","1551133601839","","","","","","",""
"3039.199999999255","","html-button-response","24","1450228","0.0-6.0-18.0","38","<div class = ""response_question"">WAS THE IMAGE ROTATED...</div>","","0","","","4","2","bas","left","practice","true"
"2389.8000000044703","","html-button-response","25","1452619","0.0-6.0-0.1","38","","","0","","","","","","","",""
"null","","html-keyboard-response","26","1452794","0.0-6.0-1.1","38","<p><img class= 'stimulus' src='images/baseline/Street 3.jpg'></img></p>","null","","1551133608472","","","","","","",""
"null","","html-keyboard-response","27","1452994","0.0-6.0-2.1","38","<p><img class= 'stimulus' src='images/baseline/landscape40.jpg'></img></p>","null","","1551133608672","","","","","","",""
"null","","html-keyboard-response","28","1453194","0.0-6.0-3.1","38","<p><img class= 'stimulus' src='images/baseline/05139v.jpg'></img></p>","null","","1551133608871","","","","","","",""
"null","","html-keyboard-response","29","1453395","0.0-6.0-4.1","38","<p><img class= 'stimulus' src='images/baseline/cranes 1.jpg'></img></p>","null","","1551133609071","4","","","","","",""
"null","","html-keyboard-response","30","1453595","0.0-6.0-5.1","38","<p><img class= 'stimulus' src='images/baseline/Linden,_paysage.jpg'></img></p>","null","","1551133609273","","","","","","",""
"null","","html-keyboard-response","31","1453796","0.0-6.0-6.1","38","<p><img class= 'stimulus' src='images/baseline/farmhouse11.jpg'></img></p>","null","","1551133609474","6","","","","","",""
"null","","html-keyboard-response","32","1453995","0.0-6.0-7.1","38","<p><img class= 'stimulus' src='images/baseline/04031v.jpg'></img></p>","null","","1551133609673","","","","","","",""
"null","","html-keyboard-response","33","1454196","0.0-6.0-8.1","38","<p><img class= 'stimulus' src='images/baseline/meadow-with-mountain-in-background.jpg'></img></p>","null","","1551133609873","8","","","","","",""
"null","","html-keyboard-response","34","1454396","0.0-6.0-9.1","38","<p><img class= 'stimulus' src='images/baseline/building4.jpg'></img></p>","null","","1551133610072","","","","","","",""
"null","","html-keyboard-response","35","1454597","0.0-6.0-10.1","38","<p><img class= 'stimulus' src='images/baseline/03212v.jpg'></img></p>","null","","1551133610272","","","","","","",""
"null","","html-keyboard-response","36","1454797","0.0-6.0-11.1","38","<p><img class= 'stimulus' src='images/baseline/foreclosed_home.jpg'></img></p>","null","","1551133610474","","","","","","",""
"null","","html-keyboard-response","37","1454997","0.0-6.0-12.1","38","<p><img class= 'stimulus left-rotate' src='images/target/house-estate-1100x733.jpg'></img></p>","null","","1551133610673","12","","","","","",""
"null","","html-keyboard-response","38","1455196","0.0-6.0-13.1","38","<p><img class= 'stimulus' src='images/baseline/pexels-photo-541101.jpeg'></img></p>","null","","1551133610874","","","","","","",""
"null","","html-keyboard-response","39","1455397","0.0-6.0-14.1","38","<p><img class= 'stimulus' src='images/baseline/kokkari-1523011968Xfr.jpg'></img></p>","null","","1551133611074","14","","","","","",""
"null","","html-keyboard-response","40","1455597","0.0-6.0-15.1","38","<p><img class= 'stimulus' src='images/baseline/05255v.jpg'></img></p>","null","","1551133611274","","","","","","",""
"null","","html-keyboard-response","41","1455795","0.0-6.0-16.1","38","<p><img class= 'stimulus' src='images/baseline/agriculture-bright-clouds-440731.jpg'></img></p>","null","","1551133611473","","","","","","",""
"null","","html-keyboard-response","42","1456013","0.0-6.0-17.1","38","<p><img class= 'stimulus' src='images/baseline/03204v.jpg'></img></p>","null","","1551133611674","","","","","","",""
"1906.300000002142","","html-button-response","43","1458924","0.0-6.0-18.1","38","<div class = ""response_question"">WAS THE IMAGE ROTATED...</div>","","0","","","4","8","bas","left","practice","true"
"1806.3999999868684","","html-button-response","44","1460732","0.0-6.0-0.2","38","","","0","","","","","","","",""
"null","","html-keyboard-response","45","1460912","0.0-6.0-1.2","38","<p><img class= 'stimulus' src='images/baseline/tennis-court-net-buried-in-snow.jpg'></img></p>","null","","1551133616590","","","","","","",""
"null","","html-keyboard-response","46","1461112","0.0-6.0-2.2","38","<p><img class= 'stimulus' src='images/baseline/landscape15.jpg'></img></p>","null","","1551133616789","","","","","","",""
"null","","html-keyboard-response","47","1461312","0.0-6.0-3.2","38","<p><img class= 'stimulus' src='images/baseline/Skyscraper 2.jpg'></img></p>","null","","1551133616990","","","","","","",""
"null","","html-keyboard-response","48","1461513","0.0-6.0-4.2","38","<p><img class= 'stimulus' src='images/baseline/pexels-photo-427676.jpeg'></img></p>","null","","1551133617190","4","","","","","",""
"null","","html-keyboard-response","49","1461712","0.0-6.0-5.2","38","<p><img class= 'stimulus' src='images/baseline/landscape39.jpg'></img></p>","null","","1551133617390","","","","","","",""
"null","","html-keyboard-response","50","1461912","0.0-6.0-6.2","38","<p><img class= 'stimulus' src='images/baseline/empire-state-building.jpg'></img></p>","null","","1551133617591","6","","","","","",""
"null","","html-keyboard-response","51","1462114","0.0-6.0-7.2","38","<p><img class= 'stimulus' src='images/baseline/Dirt 2.jpg'></img></p>","null","","1551133617790","","","","","","",""
"null","","html-keyboard-response","52","1462313","0.0-6.0-8.2","38","<p><img class= 'stimulus' src='images/baseline/vintage-art-deco-storefront.jpg'></img></p>","null","","1551133617991","8","","","","","",""
"null","","html-keyboard-response","53","1462513","0.0-6.0-9.2","38","<p><img class= 'stimulus' src='images/baseline/autumn-in-red-rocks-park.jpg'></img></p>","null","","1551133618192","","","","","","",""
"null","","html-keyboard-response","54","1462713","0.0-6.0-10.2","38","<p><img class= 'stimulus' src='images/baseline/pexels-photo-1287089.jpeg'></img></p>","null","","1551133618391","","","","","","",""
"null","","html-keyboard-response","55","1462912","0.0-6.0-11.2","38","<p><img class= 'stimulus' src='images/baseline/house1.jpg'></img></p>","null","","1551133618590","","","","","","",""
"null","","html-keyboard-response","56","1463112","0.0-6.0-12.2","38","<p><img class= 'stimulus' src='images/baseline/Sky 1.jpg'></img></p>","null","","1551133618790","12","","","","","",""
"null","","html-keyboard-response","57","1463312","0.0-6.0-13.2","38","<p><img class= 'stimulus' src='images/baseline/03220v.jpg'></img></p>","null","","1551133618990","","","","","","",""
"null","","html-keyboard-response","58","1463513","0.0-6.0-14.2","38","<p><img class= 'stimulus left-rotate' src='images/target/building17.jpg'></img></p>","null","","1551133619190","14","","","","","",""
"null","","html-keyboard-response","59","1463713","0.0-6.0-15.2","38","<p><img class= 'stimulus' src='images/baseline/05252v.jpg'></img></p>","null","","1551133619391","","","","","","",""
"null","","html-keyboard-response","60","1463913","0.0-6.0-16.2","38","<p><img class= 'stimulus' src='images/baseline/02971v.jpg'></img></p>","null","","1551133619590","","","","","","",""
"null","","html-keyboard-response","61","1464129","0.0-6.0-17.2","38","<p><img class= 'stimulus' src='images/baseline/Camping 10.jpg'></img></p>","null","","1551133619790","","","","","","",""
"1405.500000008149","","html-button-response","62","1466535","0.0-6.0-18.2","38","<div class = ""response_question"">WAS THE IMAGE ROTATED...</div>","","0","","","6","8","bas","left","practice","true"
"1374.2999999960884","","html-button-response","63","1467911","0.0-6.0-0.3","38","","","0","","","","","","","",""
"null","","html-keyboard-response","64","1468090","0.0-6.0-1.3","38","<p><img class= 'stimulus' src='images/baseline/04201v.jpg'></img></p>","null","","1551133623767","","","","","","",""
"null","","html-keyboard-response","65","1468290","0.0-6.0-2.3","38","<p><img class= 'stimulus' src='images/baseline/05161v.jpg'></img></p>","null","","1551133623968","","","","","","",""
"null","","html-keyboard-response","66","1468491","0.0-6.0-3.3","38","<p><img class= 'stimulus' src='images/baseline/Desert_View_Indian_Wells.jpg'></img></p>","null","","1551133624168","","","","","","",""
"null","","html-keyboard-response","67","1468689","0.0-6.0-4.3","38","<p><img class= 'stimulus' src='images/baseline/building2.jpg'></img></p>","null","","1551133624368","4","","","","","",""
"null","","html-keyboard-response","68","1468891","0.0-6.0-5.3","38","<p><img class= 'stimulus' src='images/baseline/church-silhouette-8712964986014Kb.jpg'></img></p>","null","","1551133624568","","","","","","",""
"null","","html-keyboard-response","69","1469091","0.0-6.0-6.3","38","<p><img class= 'stimulus' src='images/baseline/02962v.jpg'></img></p>","null","","1551133624768","6","","","","","",""
"null","","html-keyboard-response","70","1469290","0.0-6.0-7.3","38","<p><img class= 'stimulus' src='images/baseline/hiking-trail.jpg'></img></p>","null","","1551133624969","","","","","","",""
"null","","html-keyboard-response","71","1469494","0.0-6.0-8.3","38","<p><img class= 'stimulus' src='images/target/mexico_tower_latin_american.jpg'></img></p>","null","","1551133625169","8","","","","","",""
"null","","html-keyboard-response","72","1469691","0.0-6.0-9.3","38","<p><img class= 'stimulus' src='images/baseline/Lake 7.jpg'></img></p>","null","","1551133625370","","","","","","",""
"null","","html-keyboard-response","73","1469892","0.0-6.0-10.3","38","<p><img class= 'stimulus' src='images/baseline/house10.jpg'></img></p>","null","","1551133625568","","","","","","",""
"null","","html-keyboard-response","74","1470091","0.0-6.0-11.3","38","<p><img class= 'stimulus' src='images/baseline/03075v.jpg'></img></p>","null","","1551133625768","","","","","","",""
"null","","html-keyboard-response","75","1470291","0.0-6.0-12.3","38","<p><img class= 'stimulus' src='images/baseline/lake 2.jpg'></img></p>","null","","1551133625969","12","","","","","",""
"null","","html-keyboard-response","76","1470492","0.0-6.0-13.3","38","<p><img class= 'stimulus' src='images/baseline/04085v.jpg'></img></p>","null","","1551133626168","","","","","","",""
"null","","html-keyboard-response","77","1470691","0.0-6.0-14.3","38","<p><img class= 'stimulus' src='images/baseline/house8.jpg'></img></p>","null","","1551133626370","14","","","","","",""
"null","","html-keyboard-response","78","1470891","0.0-6.0-15.3","38","<p><img class= 'stimulus' src='images/baseline/landscape23.jpg'></img></p>","null","","1551133626569","","","","","","",""
"null","","html-keyboard-response","79","1471091","0.0-6.0-16.3","38","<p><img class= 'stimulus' src='images/baseline/04130v.jpg'></img></p>","null","","1551133626769","","","","","","",""
"null","","html-keyboard-response","80","1471309","0.0-6.0-17.3","38","<p><img class= 'stimulus' src='images/baseline/04040v.jpg'></img></p>","null","","1551133626969","","","","","","",""
"1622.7999999974854","","html-button-response","81","1473936","0.0-6.0-18.3","38","<div class = ""response_question"">WAS THE IMAGE ROTATED...</div>","","3","","","6","2","bas","right","practice","true"
"1486.2999999895692","","html-button-response","82","1475423","0.0-6.0-0.4","38","","","0","","","","","","","",""
"null","","html-keyboard-response","83","1475557","0.0-6.0-1.4","38","<p><img class= 'stimulus' src='images/baseline/Beach 2.jpg'></img></p>","null","","1551133631285","","","","","","",""
"null","","html-keyboard-response","84","1475707","0.0-6.0-2.4","38","<p><img class= 'stimulus' src='images/baseline/Nature 2.jpg'></img></p>","null","","1551133631434","","","","","","",""
"null","","html-keyboard-response","85","1475857","0.0-6.0-3.4","38","<p><img class= 'stimulus' src='images/baseline/field 4.jpg'></img></p>","null","","1551133631585","","","","","","",""
"null","","html-keyboard-response","86","1476007","0.0-6.0-4.4","38","<p><img class= 'stimulus' src='images/baseline/road.jpg'></img></p>","null","","1551133631734","4","","","","","",""
"null","","html-keyboard-response","87","1476156","0.0-6.0-5.4","38","<p><img class= 'stimulus' src='images/baseline/house3.jpg'></img></p>","null","","1551133631885","","","","","","",""
"null","","html-keyboard-response","88","1476307","0.0-6.0-6.4","38","<p><img class= 'stimulus' src='images/baseline/04222v.jpg'></img></p>","null","","1551133632035","6","","","","","",""
"null","","html-keyboard-response","89","1476457","0.0-6.0-7.4","38","<p><img class= 'stimulus' src='images/baseline/building5.jpg'></img></p>","null","","1551133632184","","","","","","",""
"null","","html-keyboard-response","90","1476607","0.0-6.0-8.4","38","<p><img class= 'stimulus' src='images/baseline/farmhouse6.jpg'></img></p>","null","","1551133632334","8","","","","","",""
"null","","html-keyboard-response","91","1476757","0.0-6.0-9.4","38","<p><img class= 'stimulus' src='images/baseline/cyrillic.jpg'></img></p>","null","","1551133632485","","","","","","",""
"null","","html-keyboard-response","92","1476906","0.0-6.0-10.4","38","<p><img class= 'stimulus' src='images/baseline/Beach 8.jpg'></img></p>","null","","1551133632634","","","","","","",""
"null","","html-keyboard-response","93","1477056","0.0-6.0-11.4","38","<p><img class= 'stimulus' src='images/baseline/05158v.jpg'></img></p>","null","","1551133632784","","","","","","",""
"null","","html-keyboard-response","94","1477206","0.0-6.0-12.4","38","<p><img class= 'stimulus' src='images/baseline/02977v.jpg'></img></p>","null","","1551133632934","12","","","","","",""
"null","","html-keyboard-response","95","1477356","0.0-6.0-13.4","38","<p><img class= 'stimulus' src='images/baseline/building12.jpg'></img></p>","null","","1551133633085","","","","","","",""
"null","","html-keyboard-response","96","1477506","0.0-6.0-14.4","38","<p><img class= 'stimulus' src='images/target/pexels-photo-932328.jpeg'></img></p>","null","","1551133633235","14","","","","","",""
"null","","html-keyboard-response","97","1477656","0.0-6.0-15.4","38","<p><img class= 'stimulus' src='images/baseline/snowy tree.jpg'></img></p>","null","","1551133633384","","","","","","",""
"null","","html-keyboard-response","98","1477806","0.0-6.0-16.4","38","<p><img class= 'stimulus' src='images/baseline/03041v.jpg'></img></p>","null","","1551133633534","","","","","","",""
"null","","html-keyboard-response","99","1477973","0.0-6.0-17.4","38","<p><img class= 'stimulus' src='images/baseline/sunset-over-the-lake.jpg'></img></p>","null","","1551133633684","","","","","","",""
"1997.1999999980908","","html-button-response","100","1480975","0.0-6.0-18.4","38","<div class = ""response_question"">WAS THE IMAGE ROTATED...</div>","","4","","","6","8","bas","right","practice","true"
"1238.4000000020023","","html-button-response","101","1482215","0.0-6.0-0.5","38","","","0","","","","","","","",""
"null","","html-keyboard-response","102","1482339","0.0-6.0-1.5","38","<p><img class= 'stimulus' src='images/baseline/house7.jpg'></img></p>","null","","1551133638067","","","","","","",""
"null","","html-keyboard-response","103","1482489","0.0-6.0-2.5","38","<p><img class= 'stimulus' src='images/baseline/04196v.jpg'></img></p>","null","","1551133638217","","","","","","",""
"null","","html-keyboard-response","104","1482639","0.0-6.0-3.5","38","<p><img class= 'stimulus' src='images/baseline/landscape16.jpg'></img></p>","null","","1551133638366","","","","","","",""
"null","","html-keyboard-response","105","1482790","0.0-6.0-4.5","38","<p><img class= 'stimulus' src='images/baseline/Sunset 4.jpg'></img></p>","null","","1551133638516","4","","","","","",""
"null","","html-keyboard-response","106","1482940","0.0-6.0-5.5","38","<p><img class= 'stimulus' src='images/baseline/hills 1.jpg'></img></p>","null","","1551133638667","","","","","","",""
"null","","html-keyboard-response","107","1483089","0.0-6.0-6.5","38","<p><img class= 'stimulus' src='images/baseline/04060v.jpg'></img></p>","null","","1551133638816","6","","","","","",""
"null","","html-keyboard-response","108","1483239","0.0-6.0-7.5","38","<p><img class= 'stimulus' src='images/baseline/building_at_national_conservation.jpg'></img></p>","null","","1551133638967","","","","","","",""
"null","","html-keyboard-response","109","1483389","0.0-6.0-8.5","38","<p><img class= 'stimulus' src='images/baseline/farmhouse7.jpg'></img></p>","null","","1551133639117","8","","","","","",""
"null","","html-keyboard-response","110","1483539","0.0-6.0-9.5","38","<p><img class= 'stimulus' src='images/baseline/04098v.jpg'></img></p>","null","","1551133639268","","","","","","",""
"null","","html-keyboard-response","111","1483690","0.0-6.0-10.5","38","<p><img class= 'stimulus' src='images/baseline/Skijump 1.jpg'></img></p>","null","","1551133639416","","","","","","",""
"null","","html-keyboard-response","112","1483839","0.0-6.0-11.5","38","<p><img class= 'stimulus' src='images/baseline/seoul-410266_1920.jpg'></img></p>","null","","1551133639566","","","","","","",""
"null","","html-keyboard-response","113","1483990","0.0-6.0-12.5","38","<p><img class= 'stimulus' src='images/target/building2.jpg'></img></p>","null","","1551133639718","12","","","","","",""
"null","","html-keyboard-response","114","1484139","0.0-6.0-13.5","38","<p><img class= 'stimulus' src='images/baseline/red rocks from afar.jpg'></img></p>","null","","1551133639866","","","","","","",""
"null","","html-keyboard-response","115","1484289","0.0-6.0-14.5","38","<p><img class= 'stimulus' src='images/baseline/Skyscraper 1.jpg'></img></p>","null","","1551133640016","14","","","","","",""
"null","","html-keyboard-response","116","1484439","0.0-6.0-15.5","38","<p><img class= 'stimulus' src='images/baseline/field 2.jpg'></img></p>","null","","1551133640167","","","","","","",""
"null","","html-keyboard-response","117","1484589","0.0-6.0-16.5","38","<p><img class= 'stimulus' src='images/baseline/field 3.jpg'></img></p>","null","","1551133640317","","","","","","",""
"null","","html-keyboard-response","118","1484757","0.0-6.0-17.5","38","<p><img class= 'stimulus' src='images/baseline/pexels-photo-440731.jpeg'></img></p>","null","","1551133640466","","","","","","",""
"1006.3000000081956","","html-button-response","119","1486767","0.0-6.0-18.5","38","<div class = ""response_question"">WAS THE IMAGE ROTATED...</div>","","3","","","4","8","bas","right","practice","true"
"1598.400000002468","","html-button-response","120","1488367","0.0-6.0-0.6","38","","","0","","","","","","","",""
"null","","html-keyboard-response","121","1488489","0.0-6.0-1.6","38","<p><img class= 'stimulus' src='images/baseline/city-silhouette-at-sunset-871291580819Esw.jpg'></img></p>","null","","1551133644216","","","","","","",""
"null","","html-keyboard-response","122","1488639","0.0-6.0-2.6","38","<p><img class= 'stimulus' src='images/baseline/Sunset 3.jpg'></img></p>","null","","1551133644367","","","","","","",""
"null","","html-keyboard-response","123","1488789","0.0-6.0-3.6","38","<p><img class= 'stimulus' src='images/baseline/05264v.jpg'></img></p>","null","","1551133644516","","","","","","",""
"null","","html-keyboard-response","124","1488940","0.0-6.0-4.6","38","<p><img class= 'stimulus' src='images/baseline/pexels-photo-1840893.jpeg'></img></p>","null","","1551133644666","4","","","","","",""
"null","","html-keyboard-response","125","1489090","0.0-6.0-5.6","38","<p><img class= 'stimulus' src='images/baseline/Lake 16.jpg'></img></p>","null","","1551133644817","","","","","","",""
"null","","html-keyboard-response","126","1489239","0.0-6.0-6.6","38","<p><img class= 'stimulus' src='images/target/buildin5.jpg'></img></p>","null","","1551133644966","6","","","","","",""
"null","","html-keyboard-response","127","1489389","0.0-6.0-7.6","38","<p><img class= 'stimulus' src='images/baseline/pexels-photo-459203.jpeg'></img></p>","null","","1551133645118","","","","","","",""
"null","","html-keyboard-response","128","1489539","0.0-6.0-8.6","38","<p><img class= 'stimulus' src='images/baseline/pexels-photo-1054289.jpeg'></img></p>","null","","1551133645267","8","","","","","",""
"null","","html-keyboard-response","129","1489689","0.0-6.0-9.6","38","<p><img class= 'stimulus' src='images/baseline/03162v.jpg'></img></p>","null","","1551133645417","","","","","","",""
"null","","html-keyboard-response","130","1489840","0.0-6.0-10.6","38","<p><img class= 'stimulus' src='images/baseline/Lake 8.jpg'></img></p>","null","","1551133645566","","","","","","",""
"null","","html-keyboard-response","131","1489989","0.0-6.0-11.6","38","<p><img class= 'stimulus' src='images/baseline/03063v.jpg'></img></p>","null","","1551133645716","","","","","","",""
"null","","html-keyboard-response","132","1490140","0.0-6.0-12.6","38","<p><img class= 'stimulus' src='images/baseline/Aletschgletscher-Eggishorn.jpg'></img></p>","null","","1551133645866","12","","","","","",""
"null","","html-keyboard-response","133","1490290","0.0-6.0-13.6","38","<p><img class= 'stimulus' src='images/baseline/Sunset 5.jpg'></img></p>","null","","1551133646017","","","","","","",""
"null","","html-keyboard-response","134","1490439","0.0-6.0-14.6","38","<p><img class= 'stimulus' src='images/baseline/pexels-photo-568236.jpeg'></img></p>","null","","1551133646167","14","","","","","",""
"null","","html-keyboard-response","135","1490589","0.0-6.0-15.6","38","<p><img class= 'stimulus' src='images/baseline/red-rocks-park.jpg'></img></p>","null","","1551133646318","","","","","","",""
"null","","html-keyboard-response","136","1490739","0.0-6.0-16.6","38","<p><img class= 'stimulus' src='images/baseline/landscape11.jpg'></img></p>","null","","1551133646467","","","","","","",""
"null","","html-keyboard-response","137","1490906","0.0-6.0-17.6","38","<p><img class= 'stimulus' src='images/baseline/03217v.jpg'></img></p>","null","","1551133646616","","","","","","",""
"917.999999990454","","html-button-response","138","1492840","0.0-6.0-18.6","38","<div class = ""response_question"">WAS THE IMAGE ROTATED...</div>","","4","","","4","2","bas","right","practice","true"
"1198.499999998603","","html-button-response","139","1494039","0.0-6.0-0.7","38","","","0","","","","","","","",""
"null","","html-keyboard-response","140","1494173","0.0-6.0-1.7","38","<p><img class= 'stimulus' src='images/baseline/Lake 4.jpg'></img></p>","null","","1551133649901","","","","","","",""
"null","","html-keyboard-response","141","1494323","0.0-6.0-2.7","38","<p><img class= 'stimulus' src='images/baseline/farmhouse3.jpg'></img></p>","null","","1551133650050","","","","","","",""
"null","","html-keyboard-response","142","1494473","0.0-6.0-3.7","38","<p><img class= 'stimulus' src='images/baseline/landscape17.jpg'></img></p>","null","","1551133650200","","","","","","",""
"null","","html-keyboard-response","143","1494623","0.0-6.0-4.7","38","<p><img class= 'stimulus' src='images/baseline/house6.jpg'></img></p>","null","","1551133650351","4","","","","","",""
"null","","html-keyboard-response","144","1494773","0.0-6.0-5.7","38","<p><img class= 'stimulus' src='images/baseline/lake 1.jpg'></img></p>","null","","1551133650501","","","","","","",""
"null","","html-keyboard-response","145","1494923","0.0-6.0-6.7","38","<p><img class= 'stimulus' src='images/baseline/03098v.jpg'></img></p>","null","","1551133650650","6","","","","","",""
"null","","html-keyboard-response","146","1495073","0.0-6.0-7.7","38","<p><img class= 'stimulus' src='images/baseline/landscape34.jpg'></img></p>","null","","1551133650801","","","","","","",""
"null","","html-keyboard-response","147","1495223","0.0-6.0-8.7","38","<p><img class= 'stimulus left-rotate' src='images/target/oak-1913194_640.jpg'></img></p>","null","","1551133650950","8","","","","","",""
"null","","html-keyboard-response","148","1495372","0.0-6.0-9.7","38","<p><img class= 'stimulus' src='images/baseline/04021v.jpg'></img></p>","null","","1551133651100","","","","","","",""
"null","","html-keyboard-response","149","1495522","0.0-6.0-10.7","38","<p><img class= 'stimulus' src='images/baseline/03112v.jpg'></img></p>","null","","1551133651251","","","","","","",""
"null","","html-keyboard-response","150","1495673","0.0-6.0-11.7","38","<p><img class= 'stimulus' src='images/baseline/Street 1.jpg'></img></p>","null","","1551133651400","","","","","","",""
"null","","html-keyboard-response","151","1495822","0.0-6.0-12.7","38","<p><img class= 'stimulus' src='images/baseline/landscape31.jpg'></img></p>","null","","1551133651551","12","","","","","",""
"null","","html-keyboard-response","152","1495973","0.0-6.0-13.7","38","<p><img class= 'stimulus' src='images/baseline/pexels-photo-894312.jpeg'></img></p>","null","","1551133651700","","","","","","",""
"null","","html-keyboard-response","153","1496123","0.0-6.0-14.7","38","<p><img class= 'stimulus' src='images/baseline/Sunset 6.jpg'></img></p>","null","","1551133651850","14","","","","","",""
"null","","html-keyboard-response","154","1496274","0.0-6.0-15.7","38","<p><img class= 'stimulus' src='images/baseline/4k-wallpaper-agriculture-clouds-842711.jpg'></img></p>","null","","1551133652001","","","","","","",""
"null","","html-keyboard-response","155","1496422","0.0-6.0-16.7","38","<p><img class= 'stimulus' src='images/baseline/landscape7.jpg'></img></p>","null","","1551133652150","","","","","","",""
"null","","html-keyboard-response","156","1496590","0.0-6.0-17.7","38","<p><img class= 'stimulus' src='images/baseline/05279v.jpg'></img></p>","null","","1551133652300","","","","","","",""
"926.9000000057276","","html-button-response","157","1498519","0.0-6.0-18.7","38","<div class = ""response_question"">WAS THE IMAGE ROTATED...</div>","","1","","","6","2","bas","left","practice","true"
"1398.3999999910593","","html-button-response","158","1499919","0.0-6.0-0.8","38","","","0","","","","","","","",""
"null","","html-keyboard-response","159","1500007","0.0-6.0-1.8","38","<p><img class= 'stimulus' src='images/baseline/house11.jpg'></img></p>","null","","1551133655784","","","","","","",""
"null","","html-keyboard-response","160","1500106","0.0-6.0-2.8","38","<p><img class= 'stimulus' src='images/baseline/pexels-photo-221125.jpeg'></img></p>","null","","1551133655883","","","","","","",""
"null","","html-keyboard-response","161","1500206","0.0-6.0-3.8","38","<p><img class= 'stimulus' src='images/baseline/Sidewalk 4.jpg'></img></p>","null","","1551133655984","","","","","","",""
"null","","html-keyboard-response","162","1500307","0.0-6.0-4.8","38","<p><img class= 'stimulus' src='images/baseline/pexels-photo-210617.jpeg'></img></p>","null","","1551133656083","4","","","","","",""
"null","","html-keyboard-response","163","1500405","0.0-6.0-5.8","38","<p><img class= 'stimulus' src='images/baseline/03114v.jpg'></img></p>","null","","1551133656184","","","","","","",""
"null","","html-keyboard-response","164","1500507","0.0-6.0-6.8","38","<p><img class= 'stimulus' src='images/target/landscape20.jpg'></img></p>","null","","1551133656283","6","","","","","",""
"null","","html-keyboard-response","165","1500606","0.0-6.0-7.8","38","<p><img class= 'stimulus' src='images/baseline/landscape3.jpg'></img></p>","null","","1551133656383","","","","","","",""
"null","","html-keyboard-response","166","1500706","0.0-6.0-8.8","38","<p><img class= 'stimulus' src='images/baseline/03045v.jpg'></img></p>","null","","1551133656483","8","","","","","",""
"null","","html-keyboard-response","167","1500806","0.0-6.0-9.8","38","<p><img class= 'stimulus' src='images/baseline/Niinsaare_jarv.jpg'></img></p>","null","","1551133656583","","","","","","",""
"null","","html-keyboard-response","168","1500906","0.0-6.0-10.8","38","<p><img class= 'stimulus' src='images/baseline/pexels-photo-351264.jpeg'></img></p>","null","","1551133656683","","","","","","",""
"null","","html-keyboard-response","169","1501006","0.0-6.0-11.8","38","<p><img class= 'stimulus' src='images/baseline/landscape14.jpg'></img></p>","null","","1551133656783","","","","","","",""
"null","","html-keyboard-response","170","1501106","0.0-6.0-12.8","38","<p><img class= 'stimulus' src='images/baseline/05292v.jpg'></img></p>","null","","1551133656884","12","","","","","",""
"null","","html-keyboard-response","171","1501207","0.0-6.0-13.8","38","<p><img class= 'stimulus' src='images/baseline/landscape36.jpg'></img></p>","null","","1551133656983","","","","","","",""
"null","","html-keyboard-response","172","1501305","0.0-6.0-14.8","38","<p><img class= 'stimulus' src='images/baseline/04010v.jpg'></img></p>","null","","1551133657083","14","","","","","",""
"null","","html-keyboard-response","173","1501406","0.0-6.0-15.8","38","<p><img class= 'stimulus' src='images/baseline/landscape12.jpg'></img></p>","null","","1551133657184","","","","","","",""
"null","","html-keyboard-response","174","1501506","0.0-6.0-16.8","38","<p><img class= 'stimulus' src='images/baseline/pexels-photo-808465.jpeg'></img></p>","null","","1551133657283","","","","","","",""
"null","","html-keyboard-response","175","1501622","0.0-6.0-17.8","38","<p><img class= 'stimulus' src='images/baseline/05247v.jpg'></img></p>","null","","1551133657384","","","","","","",""
"662.8000000056345","","html-button-response","176","1503303","0.0-6.0-18.8","38","<div class = ""response_question"">WAS THE IMAGE ROTATED...</div>","","4","","","4","2","bas","right","practice","true"
"734.2999999963213","","html-button-response","177","1504039","0.0-6.0-0.9","38","","","0","","","","","","","",""
"null","","html-keyboard-response","178","1504123","0.0-6.0-1.9","38","<p><img class= 'stimulus' src='images/baseline/town-square-in-wroclaw-1539098440MZy.jpg'></img></p>","null","","1551133659900","","","","","","",""
"null","","html-keyboard-response","179","1504222","0.0-6.0-2.9","38","<p><img class= 'stimulus' src='images/baseline/trees 23.jpg'></img></p>","null","","1551133660000","","","","","","",""
"null","","html-keyboard-response","180","1504322","0.0-6.0-3.9","38","<p><img class= 'stimulus' src='images/baseline/Sailing 3.jpg'></img></p>","null","","1551133660100","","","","","","",""
"null","","html-keyboard-response","181","1504422","0.0-6.0-4.9","38","<p><img class= 'stimulus' src='images/baseline/04117v.jpg'></img></p>","null","","1551133660200","4","","","","","",""
"null","","html-keyboard-response","182","1504523","0.0-6.0-5.9","38","<p><img class= 'stimulus' src='images/baseline/landscape2.jpg'></img></p>","null","","1551133660300","","","","","","",""
"null","","html-keyboard-response","183","1504623","0.0-6.0-6.9","38","<p><img class= 'stimulus' src='images/baseline/03201v.jpg'></img></p>","null","","1551133660399","6","","","","","",""
"null","","html-keyboard-response","184","1504722","0.0-6.0-7.9","38","<p><img class= 'stimulus' src='images/baseline/pexels-photo-414491.jpeg'></img></p>","null","","1551133660499","","","","","","",""
"null","","html-keyboard-response","185","1504823","0.0-6.0-8.9","38","<p><img class= 'stimulus' src='images/baseline/hills 3.jpg'></img></p>","null","","1551133660600","8","","","","","",""
"null","","html-keyboard-response","186","1504923","0.0-6.0-9.9","38","<p><img class= 'stimulus' src='images/baseline/Grass 6.jpg'></img></p>","null","","1551133660700","","","","","","",""
"null","","html-keyboard-response","187","1505023","0.0-6.0-10.9","38","<p><img class= 'stimulus' src='images/baseline/05242v.jpg'></img></p>","null","","1551133660801","","","","","","",""
"null","","html-keyboard-response","188","1505122","0.0-6.0-11.9","38","<p><img class= 'stimulus' src='images/baseline/Paysage_enneige_02.jpg'></img></p>","null","","1551133660900","","","","","","",""
"null","","html-keyboard-response","189","1505223","0.0-6.0-12.9","38","<p><img class= 'stimulus' src='images/target/tree-3563269_640.jpg'></img></p>","null","","1551133661000","12","","","","","",""
"null","","html-keyboard-response","190","1505323","0.0-6.0-13.9","38","<p><img class= 'stimulus' src='images/baseline/__08_-_ITALY_-_Forli_under_snow_-_winter_landscape_of_city_(christmas).jpg'></img></p>","null","","1551133661101","","","","","","",""
"null","","html-keyboard-response","191","1505422","0.0-6.0-14.9","38","<p><img class= 'stimulus' src='images/baseline/flooded-bridge.jpg'></img></p>","null","","1551133661201","14","","","","","",""
"null","","html-keyboard-response","192","1505523","0.0-6.0-15.9","38","<p><img class= 'stimulus' src='images/baseline/04063v.jpg'></img></p>","null","","1551133661300","","","","","","",""
"null","","html-keyboard-response","193","1505623","0.0-6.0-16.9","38","<p><img class= 'stimulus' src='images/baseline/landscape29.jpg'></img></p>","null","","1551133661400","","","","","","",""
"null","","html-keyboard-response","194","1505739","0.0-6.0-17.9","38","<p><img class= 'stimulus' src='images/baseline/landscape33.jpg'></img></p>","null","","1551133661501","","","","","","",""
"743.7000000064727","","html-button-response","195","1507487","0.0-6.0-18.9","38","<div class = ""response_question"">WAS THE IMAGE ROTATED...</div>","","4","","","4","8","bas","right","practice","true"
"846.300000004936","","html-button-response","196","1508335","0.0-6.0-0.10","38","","","0","","","","","","","",""
"null","","html-keyboard-response","197","1508423","0.0-6.0-1.10","38","<p><img class= 'stimulus' src='images/baseline/05186v.jpg'></img></p>","null","","1551133664202","","","","","","",""
"null","","html-keyboard-response","198","1508523","0.0-6.0-2.10","38","<p><img class= 'stimulus' src='images/baseline/landscape35.jpg'></img></p>","null","","1551133664300","","","","","","",""
"null","","html-keyboard-response","199","1508623","0.0-6.0-3.10","38","<p><img class= 'stimulus' src='images/baseline/landscape38.jpg'></img></p>","null","","1551133664401","","","","","","",""
"null","","html-keyboard-response","200","1508722","0.0-6.0-4.10","38","<p><img class= 'stimulus' src='images/baseline/Street 5.jpg'></img></p>","null","","1551133664501","4","","","","","",""
"null","","html-keyboard-response","201","1508823","0.0-6.0-5.10","38","<p><img class= 'stimulus' src='images/baseline/landscape37.jpg'></img></p>","null","","1551133664600","","","","","","",""
"null","","html-keyboard-response","202","1508923","0.0-6.0-6.10","38","<p><img class= 'stimulus left-rotate' src='images/target/church-2306128_640.jpg'></img></p>","null","","1551133664700","6","","","","","",""
"null","","html-keyboard-response","203","1509023","0.0-6.0-7.10","38","<p><img class= 'stimulus' src='images/baseline/04229v.jpg'></img></p>","null","","1551133664801","","","","","","",""
"null","","html-keyboard-response","204","1509122","0.0-6.0-8.10","38","<p><img class= 'stimulus' src='images/baseline/Bahia_Onelli_Parque_Nacional_Los_Glaciares_Patagonia_Argentina_Luca_Galuzzi_2005.jpg'></img></p>","null","","1551133664900","8","","","","","",""
"null","","html-keyboard-response","205","1509223","0.0-6.0-9.10","38","<p><img class= 'stimulus' src='images/baseline/valley 2.jpg'></img></p>","null","","1551133665000","","","","","","",""
"null","","html-keyboard-response","206","1509323","0.0-6.0-10.10","38","<p><img class= 'stimulus' src='images/baseline/field 1.jpg'></img></p>","null","","1551133665100","","","","","","",""
"null","","html-keyboard-response","207","1509423","0.0-6.0-11.10","38","<p><img class= 'stimulus' src='images/baseline/04162v.jpg'></img></p>","null","","1551133665200","","","","","","",""
"null","","html-keyboard-response","208","1509524","0.0-6.0-12.10","38","<p><img class= 'stimulus' src='images/baseline/farmhouse2.jpg'></img></p>","null","","1551133665301","12","","","","","",""
"null","","html-keyboard-response","209","1509623","0.0-6.0-13.10","38","<p><img class= 'stimulus' src='images/baseline/04064v.jpg'></img></p>","null","","1551133665401","","","","","","",""
"null","","html-keyboard-response","210","1509723","0.0-6.0-14.10","38","<p><img class= 'stimulus' src='images/baseline/hills 4.jpg'></img></p>","null","","1551133665502","14","","","","","",""
"null","","html-keyboard-response","211","1509823","0.0-6.0-15.10","38","<p><img class= 'stimulus' src='images/baseline/Path 1.jpg'></img></p>","null","","1551133665601","","","","","","",""
"null","","html-keyboard-response","212","1509922","0.0-6.0-16.10","38","<p><img class= 'stimulus' src='images/baseline/lookout_tower.jpg'></img></p>","null","","1551133665699","","","","","","",""
"null","","html-keyboard-response","213","1510039","0.0-6.0-17.10","38","<p><img class= 'stimulus' src='images/baseline/Dock 1.jpg'></img></p>","null","","1551133665800","","","","","","",""
"1016.299999988405","","html-button-response","214","1512071","0.0-6.0-18.10","38","<div class = ""response_question"">WAS THE IMAGE ROTATED...</div>","","1","","","4","2","bas","left","practice","true"
"838.4999999979045","","html-button-response","215","1512911","0.0-6.0-0.11","38","","","0","","","","","","","",""
"null","","html-keyboard-response","216","1512989","0.0-6.0-1.11","38","<p><img class= 'stimulus' src='images/baseline/landscape1.jpg'></img></p>","null","","1551133668766","","","","","","",""
"null","","html-keyboard-response","217","1513089","0.0-6.0-2.11","38","<p><img class= 'stimulus' src='images/baseline/pexels-photo-750108.jpeg'></img></p>","null","","1551133668867","","","","","","",""
"null","","html-keyboard-response","218","1513189","0.0-6.0-3.11","38","<p><img class= 'stimulus' src='images/baseline/lone-old-cottonwood-tree.jpg'></img></p>","null","","1551133668968","","","","","","",""
"null","","html-keyboard-response","219","1513290","0.0-6.0-4.11","38","<p><img class= 'stimulus' src='images/baseline/05303v.jpg'></img></p>","null","","1551133669067","4","","","","","",""
"null","","html-keyboard-response","220","1513390","0.0-6.0-5.11","38","<p><img class= 'stimulus' src='images/baseline/04300v.jpg'></img></p>","null","","1551133669168","","","","","","",""
"null","","html-keyboard-response","221","1513489","0.0-6.0-6.11","38","<p><img class= 'stimulus' src='images/baseline/river 1.jpg'></img></p>","null","","1551133669267","6","","","","","",""
"null","","html-keyboard-response","222","1513589","0.0-6.0-7.11","38","<p><img class= 'stimulus' src='images/baseline/lake3.jpg'></img></p>","null","","1551133669367","","","","","","",""
"null","","html-keyboard-response","223","1513690","0.0-6.0-8.11","38","<p><img class= 'stimulus' src='images/target/tree-in-desert-landscape.jpg'></img></p>","null","","1551133669468","8","","","","","",""
"null","","html-keyboard-response","224","1513789","0.0-6.0-9.11","38","<p><img class= 'stimulus' src='images/baseline/04158v.jpg'></img></p>","null","","1551133669567","","","","","","",""
"null","","html-keyboard-response","225","1513889","0.0-6.0-10.11","38","<p><img class= 'stimulus' src='images/baseline/99_-_Machu_Picchu_-_Juin_2009.edit3.jpg'></img></p>","null","","1551133669667","","","","","","",""
"null","","html-keyboard-response","226","1513989","0.0-6.0-11.11","38","<p><img class= 'stimulus' src='images/baseline/pexels-photo-1837621.jpeg'></img></p>","null","","1551133669766","","","","","","",""
"null","","html-keyboard-response","227","1514089","0.0-6.0-12.11","38","<p><img class= 'stimulus' src='images/baseline/agriculture-countryside-crop-259280.jpg'></img></p>","null","","1551133669868","12","","","","","",""
"null","","html-keyboard-response","228","1514190","0.0-6.0-13.11","38","<p><img class= 'stimulus' src='images/baseline/pexels-photo-259280.jpeg'></img></p>","null","","1551133669968","","","","","","",""
"null","","html-keyboard-response","229","1514290","0.0-6.0-14.11","38","<p><img class= 'stimulus' src='images/baseline/05131v.jpg'></img></p>","null","","1551133670068","14","","","","","",""
"null","","html-keyboard-response","230","1514390","0.0-6.0-15.11","38","<p><img class= 'stimulus' src='images/baseline/scenic-mountain-landscape.jpg'></img></p>","null","","1551133670168","","","","","","",""
"null","","html-keyboard-response","231","1514490","0.0-6.0-16.11","38","<p><img class= 'stimulus' src='images/baseline/02982v.jpg'></img></p>","null","","1551133670267","","","","","","",""
"null","","html-keyboard-response","232","1514606","0.0-6.0-17.11","38","<p><img class= 'stimulus' src='images/baseline/sunny-landscape-with-dry-brush-and-mountain-background.jpg'></img></p>","null","","1551133670367","","","","","","",""
"702.4999999993015","","html-button-response","233","1516312","0.0-6.0-18.11","38","<div class = ""response_question"">WAS THE IMAGE ROTATED...</div>","","4","","","6","2","bas","right","practice","true"
"1021.5000000025611","","html-button-response","234","1517335","0.0-6.0-0.12","38","","","0","","","","","","","",""
"null","","html-keyboard-response","235","1517423","0.0-6.0-1.12","38","<p><img class= 'stimulus' src='images/baseline/05179v.jpg'></img></p>","null","","1551133673200","","","","","","",""
"null","","html-keyboard-response","236","1517523","0.0-6.0-2.12","38","<p><img class= 'stimulus' src='images/baseline/Street 2.jpg'></img></p>","null","","1551133673300","","","","","","",""
"null","","html-keyboard-response","237","1517623","0.0-6.0-3.12","38","<p><img class= 'stimulus' src='images/baseline/Lake 5.jpg'></img></p>","null","","1551133673400","","","","","","",""
"null","","html-keyboard-response","238","1517722","0.0-6.0-4.12","38","<p><img class= 'stimulus' src='images/baseline/Street 4.jpg'></img></p>","null","","1551133673501","4","","","","","",""
"null","","html-keyboard-response","239","1517823","0.0-6.0-5.12","38","<p><img class= 'stimulus' src='images/baseline/03148v.jpg'></img></p>","null","","1551133673602","","","","","","",""
"null","","html-keyboard-response","240","1517922","0.0-6.0-6.12","38","<p><img class= 'stimulus' src='images/baseline/Peyto_Lake-Banff_NP-Canada.jpg'></img></p>","null","","1551133673700","6","","","","","",""
"null","","html-keyboard-response","241","1518023","0.0-6.0-7.12","38","<p><img class= 'stimulus' src='images/baseline/autumn-landscape-with-lake-fall-trees-mountains.jpg'></img></p>","null","","1551133673799","","","","","","",""
"null","","html-keyboard-response","242","1518124","0.0-6.0-8.12","38","<p><img class= 'stimulus' src='images/baseline/Nature 1.jpg'></img></p>","null","","1551133673899","8","","","","","",""
"null","","html-keyboard-response","243","1518223","0.0-6.0-9.12","38","<p><img class= 'stimulus' src='images/baseline/architecture-956332_1280.jpg'></img></p>","null","","1551133673999","","","","","","",""
"null","","html-keyboard-response","244","1518323","0.0-6.0-10.12","38","<p><img class= 'stimulus' src='images/baseline/farmhouse1.jpg'></img></p>","null","","1551133674101","","","","","","",""
"null","","html-keyboard-response","245","1518423","0.0-6.0-11.12","38","<p><img class= 'stimulus' src='images/baseline/04062v.jpg'></img></p>","null","","1551133674200","","","","","","",""
"null","","html-keyboard-response","246","1518523","0.0-6.0-12.12","38","<p><img class= 'stimulus left-rotate' src='images/target/torrotito-375925_640.jpg'></img></p>","null","","1551133674300","12","","","","","",""
"null","","html-keyboard-response","247","1518622","0.0-6.0-13.12","38","<p><img class= 'stimulus' src='images/baseline/04284v.jpg'></img></p>","null","","1551133674400","","","","","","",""
"null","","html-keyboard-response","248","1518724","0.0-6.0-14.12","38","<p><img class= 'stimulus' src='images/baseline/Bridge 1.jpg'></img></p>","null","","1551133674500","14","","","","","",""
"null","","html-keyboard-response","249","1518822","0.0-6.0-15.12","38","<p><img class= 'stimulus' src='images/baseline/Beach 3.jpg'></img></p>","null","","1551133674600","","","","","","",""
"null","","html-keyboard-response","250","1518922","0.0-6.0-16.12","38","<p><img class= 'stimulus' src='images/baseline/Lake 13.jpg'></img></p>","null","","1551133674700","","","","","","",""
"null","","html-keyboard-response","251","1519040","0.0-6.0-17.12","38","<p><img class= 'stimulus' src='images/baseline/04193v.jpg'></img></p>","null","","1551133674800","","","","","","",""
"921.5000000114087","","html-button-response","252","1520975","0.0-6.0-18.12","38","<div class = ""response_question"">WAS THE IMAGE ROTATED...</div>","","1","","","4","8","bas","left","practice","true"
"774.6000000042841","","html-button-response","253","1521751","0.0-6.0-0.13","38","","","0","","","","","","","",""
"null","","html-keyboard-response","254","1521822","0.0-6.0-1.13","38","<p><img class= 'stimulus' src='images/baseline/02988v.jpg'></img></p>","null","","1551133677600","","","","","","",""
"null","","html-keyboard-response","255","1521923","0.0-6.0-2.13","38","<p><img class= 'stimulus' src='images/baseline/architecture_modern_architecture_852928.jpg'></img></p>","null","","1551133677702","","","","","","",""
"null","","html-keyboard-response","256","1522022","0.0-6.0-3.13","38","<p><img class= 'stimulus' src='images/baseline/horse_statue.jpg'></img></p>","null","","1551133677801","","","","","","",""
"null","","html-keyboard-response","257","1522123","0.0-6.0-4.13","38","<p><img class= 'stimulus' src='images/baseline/farmhouse8.jpg'></img></p>","null","","1551133677901","4","","","","","",""
"null","","html-keyboard-response","258","1522222","0.0-6.0-5.13","38","<p><img class= 'stimulus' src='images/baseline/building6.jpg'></img></p>","null","","1551133678000","","","","","","",""
"null","","html-keyboard-response","259","1522323","0.0-6.0-6.13","38","<p><img class= 'stimulus' src='images/baseline/Lake 9.jpg'></img></p>","null","","1551133678101","6","","","","","",""
"null","","html-keyboard-response","260","1522423","0.0-6.0-7.13","38","<p><img class= 'stimulus' src='images/baseline/Waterfall 1.jpg'></img></p>","null","","1551133678201","","","","","","",""
"null","","html-keyboard-response","261","1522523","0.0-6.0-8.13","38","<p><img class= 'stimulus left-rotate' src='images/target/tree.jpeg'></img></p>","null","","1551133678300","8","","","","","",""
"null","","html-keyboard-response","262","1522623","0.0-6.0-9.13","38","<p><img class= 'stimulus' src='images/baseline/chicago-skyline-at-night-1476869511p8U.jpg'></img></p>","null","","1551133678401","","","","","","",""
"null","","html-keyboard-response","263","1522723","0.0-6.0-10.13","38","<p><img class= 'stimulus' src='images/baseline/road 1(1).jpg'></img></p>","null","","1551133678500","","","","","","",""
"null","","html-keyboard-response","264","1522823","0.0-6.0-11.13","38","<p><img class= 'stimulus' src='images/baseline/02947v.jpg'></img></p>","null","","1551133678600","","","","","","",""
"null","","html-keyboard-response","265","1522923","0.0-6.0-12.13","38","<p><img class= 'stimulus' src='images/baseline/05167v.jpg'></img></p>","null","","1551133678701","12","","","","","",""
"null","","html-keyboard-response","266","1523024","0.0-6.0-13.13","38","<p><img class= 'stimulus' src='images/baseline/pexels-photo-534164.jpeg'></img></p>","null","","1551133678800","","","","","","",""
"null","","html-keyboard-response","267","1523124","0.0-6.0-14.13","38","<p><img class= 'stimulus' src='images/baseline/grand-teton-mountains.jpg'></img></p>","null","","1551133678900","14","","","","","",""
"null","","html-keyboard-response","268","1523223","0.0-6.0-15.13","38","<p><img class= 'stimulus' src='images/baseline/landscape4.jpg'></img></p>","null","","1551133679001","","","","","","",""
"null","","html-keyboard-response","269","1523323","0.0-6.0-16.13","38","<p><img class= 'stimulus' src='images/baseline/03066v.jpg'></img></p>","null","","1551133679100","","","","","","",""
"null","","html-keyboard-response","270","1523439","0.0-6.0-17.13","38","<p><img class= 'stimulus' src='images/baseline/landscape22.jpg'></img></p>","null","","1551133679200","","","","","","",""
"860.0000000006985","","html-button-response","271","1525304","0.0-6.0-18.13","38","<div class = ""response_question"">WAS THE IMAGE ROTATED...</div>","","1","","","6","2","bas","left","practice","true"
"750.2999999995809","","html-button-response","272","1526055","0.0-6.0-0.14","38","","","0","","","","","","","",""
"null","","html-keyboard-response","273","1526140","0.0-6.0-1.14","38","<p><img class= 'stimulus' src='images/baseline/agriculture-cereal-clouds-175389.jpg'></img></p>","null","","1551133681917","","","","","","",""
"null","","html-keyboard-response","274","1526239","0.0-6.0-2.14","38","<p><img class= 'stimulus' src='images/baseline/landscape13.jpg'></img></p>","null","","1551133682017","","","","","","",""
"null","","html-keyboard-response","275","1526339","0.0-6.0-3.14","38","<p><img class= 'stimulus' src='images/baseline/pexels-photo-59321.jpeg'></img></p>","null","","1551133682117","","","","","","",""
"null","","html-keyboard-response","276","1526439","0.0-6.0-4.14","38","<p><img class= 'stimulus' src='images/baseline/Lake 3.jpg'></img></p>","null","","1551133682216","4","","","","","",""
"null","","html-keyboard-response","277","1526554","0.0-6.0-5.14","38","<p><img class= 'stimulus' src='images/baseline/geese-flying-over-lake-at-dusk.jpg'></img></p>","null","","1551133682317","","","","","","",""
"null","","html-keyboard-response","278","1526654","0.0-6.0-6.14","38","<p><img class= 'stimulus' src='images/baseline/building8.jpg'></img></p>","null","","1551133682431","6","","","","","",""
"null","","html-keyboard-response","279","1526754","0.0-6.0-7.14","38","<p><img class= 'stimulus' src='images/baseline/02945v.jpg'></img></p>","null","","1551133682531","","","","","","",""
"null","","html-keyboard-response","280","1526854","0.0-6.0-8.14","38","<p><img class= 'stimulus' src='images/baseline/04014v.jpg'></img></p>","null","","1551133682631","8","","","","","",""
"null","","html-keyboard-response","281","1526954","0.0-6.0-9.14","38","<p><img class= 'stimulus' src='images/baseline/Cold 7.jpg'></img></p>","null","","1551133682731","","","","","","",""
"null","","html-keyboard-response","282","1527056","0.0-6.0-10.14","38","<p><img class= 'stimulus' src='images/baseline/pexels-photo-1048039.jpeg'></img></p>","null","","1551133682831","","","","","","",""
"null","","html-keyboard-response","283","1527154","0.0-6.0-11.14","38","<p><img class= 'stimulus' src='images/baseline/farmhouse4.jpg'></img></p>","null","","1551133682932","","","","","","",""
"null","","html-keyboard-response","284","1527254","0.0-6.0-12.14","38","<p><img class= 'stimulus' src='images/baseline/pexels-photo-1261728.jpeg'></img></p>","null","","1551133683032","12","","","","","",""
"null","","html-keyboard-response","285","1527353","0.0-6.0-13.14","38","<p><img class= 'stimulus' src='images/baseline/landscape6.jpg'></img></p>","null","","1551133683132","","","","","","",""
"null","","html-keyboard-response","286","1527454","0.0-6.0-14.14","38","<p><img class= 'stimulus left-rotate' src='images/target/dreifaltigkeitskirche_sandhausen_837699.jpg'></img></p>","null","","1551133683231","14","","","","","",""
"null","","html-keyboard-response","287","1527554","0.0-6.0-15.14","38","<p><img class= 'stimulus' src='images/baseline/architecture-1314416_1920.jpg'></img></p>","null","","1551133683331","","","","","","",""
"null","","html-keyboard-response","288","1527654","0.0-6.0-16.14","38","<p><img class= 'stimulus' src='images/baseline/valley 1.jpg'></img></p>","null","","1551133683431","","","","","","",""
"null","","html-keyboard-response","289","1527771","0.0-6.0-17.14","38","<p><img class= 'stimulus' src='images/baseline/05280v.jpg'></img></p>","null","","1551133683530","","","","","","",""
"820.8000000014435","","html-button-response","290","1529606","0.0-6.0-18.14","38","<div class = ""response_question"">WAS THE IMAGE ROTATED...</div>","","2","","","6","8","bas","left","practice","false"
"1494.099999996135","","html-button-response","291","1531101","0.0-6.0-0.15","38","","","0","","","","","","","",""
"null","","html-keyboard-response","292","1531187","0.0-6.0-1.15","38","<p><img class= 'stimulus' src='images/baseline/Freudenberg_sg_Switzerland.jpg'></img></p>","null","","1551133686964","","","","","","",""
"null","","html-keyboard-response","293","1531288","0.0-6.0-2.15","38","<p><img class= 'stimulus' src='images/baseline/05145v.jpg'></img></p>","null","","1551133687065","","","","","","",""
"null","","html-keyboard-response","294","1531387","0.0-6.0-3.15","38","<p><img class= 'stimulus' src='images/baseline/Road 1.jpg'></img></p>","null","","1551133687164","","","","","","",""
"null","","html-keyboard-response","295","1531487","0.0-6.0-4.15","38","<p><img class= 'stimulus' src='images/baseline/Kocherbaumwald-01.jpg'></img></p>","null","","1551133687265","4","","","","","",""
"null","","html-keyboard-response","296","1531587","0.0-6.0-5.15","38","<p><img class= 'stimulus' src='images/baseline/building9.jpg'></img></p>","null","","1551133687365","","","","","","",""
"null","","html-keyboard-response","297","1531689","0.0-6.0-6.15","38","<p><img class= 'stimulus' src='images/baseline/Happy pose 3.jpg'></img></p>","null","","1551133687465","6","","","","","",""
"null","","html-keyboard-response","298","1531787","0.0-6.0-7.15","38","<p><img class= 'stimulus' src='images/baseline/dirt-road-or-trail-through-park.jpg'></img></p>","null","","1551133687565","","","","","","",""
"null","","html-keyboard-response","299","1531889","0.0-6.0-8.15","38","<p><img class= 'stimulus' src='images/baseline/building3.jpg'></img></p>","null","","1551133687666","8","","","","","",""
"null","","html-keyboard-response","300","1531987","0.0-6.0-9.15","38","<p><img class= 'stimulus' src='images/baseline/house2.jpg'></img></p>","null","","1551133687765","","","","","","",""
"null","","html-keyboard-response","301","1532087","0.0-6.0-10.15","38","<p><img class= 'stimulus' src='images/baseline/05198v.jpg'></img></p>","null","","1551133687865","","","","","","",""
"null","","html-keyboard-response","302","1532188","0.0-6.0-11.15","38","<p><img class= 'stimulus' src='images/baseline/02960v.jpg'></img></p>","null","","1551133687964","","","","","","",""
"null","","html-keyboard-response","303","1532287","0.0-6.0-12.15","38","<p><img class= 'stimulus' src='images/baseline/04179v.jpg'></img></p>","null","","1551133688065","12","","","","","",""
"null","","html-keyboard-response","304","1532387","0.0-6.0-13.15","38","<p><img class= 'stimulus' src='images/baseline/02977v.jpg'></img></p>","null","","1551133688164","","","","","","",""
"null","","html-keyboard-response","305","1532488","0.0-6.0-14.15","38","<p><img class= 'stimulus' src='images/target/landscape32.jpg'></img></p>","null","","1551133688265","14","","","","","",""
"null","","html-keyboard-response","306","1532588","0.0-6.0-15.15","38","<p><img class= 'stimulus' src='images/baseline/landscape13.jpg'></img></p>","null","","1551133688365","","","","","","",""
"null","","html-keyboard-response","307","1532687","0.0-6.0-16.15","38","<p><img class= 'stimulus' src='images/baseline/lookout_tower.jpg'></img></p>","null","","1551133688466","","","","","","",""
"null","","html-keyboard-response","308","1532804","0.0-6.0-17.15","38","<p><img class= 'stimulus' src='images/baseline/building8.jpg'></img></p>","null","","1551133688565","","","","","","",""
"933.6000000040513","","html-button-response","309","1534742","0.0-6.0-18.15","38","<div class = ""response_question"">WAS THE IMAGE ROTATED...</div>","","4","","","6","8","bas","right","practice","true"
"61734.299999996554","","html-button-response","310","1596477","0.0-7.0","38","<p>You have now completed the practice phase. We will now begin the real trials.         This is a reminder that you will be searching for a rotated image among the series of upright images.</p>         <p>Remember, please do not blink or move your eyes while the images are on the screen.</p>         <p>At the end of the experiment, the experimenter will be able to show you how accurate you were.</p>","","0","","","","","","","",""
"3006.599999993341","","html-button-response","311","1599486","0.0-8.0-0.0-0.0","38","","","0","","","","","","","",""
"null","","html-keyboard-response","312","1599572","0.0-8.0-0.0-1.0","38","<p><img class= 'stimulus' src='images/baseline/Happy pose 3.jpg'></img></p>","null","","1551133755348","","","","","","",""
"null","","html-keyboard-response","313","1599672","0.0-8.0-0.0-2.0","38","<p><img class= 'stimulus' src='images/baseline/Sky 1.jpg'></img></p>","null","","1551133755449","","","","","","",""
"null","","html-keyboard-response","314","1599772","0.0-8.0-0.0-3.0","38","<p><img class= 'stimulus' src='images/baseline/Skyscraper 1.jpg'></img></p>","null","","1551133755548","","","","","","",""
"null","","html-keyboard-response","315","1599872","0.0-8.0-0.0-4.0","38","<p><img class= 'stimulus' src='images/baseline/river 1.jpg'></img></p>","null","","1551133755649","4","","","","","",""
"null","","html-keyboard-response","316","1599971","0.0-8.0-0.0-5.0","38","<p><img class= 'stimulus' src='images/baseline/04031v.jpg'></img></p>","null","","1551133755749","","","","","","",""
"null","","html-keyboard-response","317","1600073","0.0-8.0-0.0-6.0","38","<p><img class= 'stimulus' src='images/negative/Cockroach 1.jpg'></img></p>","null","","1551133755849","6","","","","","",""
"null","","html-keyboard-response","318","1600171","0.0-8.0-0.0-7.0","38","<p><img class= 'stimulus' src='images/baseline/04021v.jpg'></img></p>","null","","1551133755950","","","","","","",""
"null","","html-keyboard-response","319","1600271","0.0-8.0-0.0-8.0","38","<p><img class= 'stimulus' src='images/baseline/05131v.jpg'></img></p>","null","","1551133756049","8","","","","","",""
"null","","html-keyboard-response","320","1600372","0.0-8.0-0.0-9.0","38","<p><img class= 'stimulus' src='images/baseline/05198v.jpg'></img></p>","null","","1551133756150","","","","","","",""
"null","","html-keyboard-response","321","1600471","0.0-8.0-0.0-10.0","38","<p><img class= 'stimulus' src='images/baseline/04010v.jpg'></img></p>","null","","1551133756249","","","","","","",""
"null","","html-keyboard-response","322","1600571","0.0-8.0-0.0-11.0","38","<p><img class= 'stimulus' src='images/baseline/Lake 8.jpg'></img></p>","null","","1551133756350","","","","","","",""
"null","","html-keyboard-response","323","1600671","0.0-8.0-0.0-12.0","38","<p><img class= 'stimulus' src='images/baseline/building6.jpg'></img></p>","null","","1551133756448","12","","","","","",""
"null","","html-keyboard-response","324","1600772","0.0-8.0-0.0-13.0","38","<p><img class= 'stimulus' src='images/baseline/foreclosed_home.jpg'></img></p>","null","","1551133756550","","","","","","",""
"null","","html-keyboard-response","325","1600872","0.0-8.0-0.0-14.0","38","<p><img class= 'stimulus' src='images/target/building3.jpg'></img></p>","null","","1551133756649","14","","","","","",""
"null","","html-keyboard-response","326","1600972","0.0-8.0-0.0-15.0","38","<p><img class= 'stimulus' src='images/baseline/Sunset 4.jpg'></img></p>","null","","1551133756750","","","","","","",""
"null","","html-keyboard-response","327","1601071","0.0-8.0-0.0-16.0","38","<p><img class= 'stimulus' src='images/baseline/farmhouse11.jpg'></img></p>","null","","1551133756849","","","","","","",""
"null","","html-keyboard-response","328","1601188","0.0-8.0-0.0-17.0","38","<p><img class= 'stimulus' src='images/baseline/landscape35.jpg'></img></p>","null","","1551133756949","","","","","","",""
"1676.2000000015832","","html-button-response","329","1603869","0.0-8.0-0.0-18.0","38","<div class = ""response_question"">WAS THE IMAGE ROTATED...</div>","","2","","","6","8","neg","right","test","false"
"1253.8999999959487","","html-button-response","330","1605126","0.0-8.0-0.0-0.1","38","","","0","","","","","","","",""
"null","","html-keyboard-response","331","1605205","0.0-8.0-0.0-1.1","38","<p><img class= 'stimulus' src='images/baseline/house7.jpg'></img></p>","null","","1551133760983","","","","","","",""
"null","","html-keyboard-response","332","1605305","0.0-8.0-0.0-2.1","38","<p><img class= 'stimulus' src='images/baseline/Nature 2.jpg'></img></p>","null","","1551133761082","","","","","","",""
"null","","html-keyboard-response","333","1605405","0.0-8.0-0.0-3.1","38","<p><img class= 'stimulus' src='images/baseline/04085v.jpg'></img></p>","null","","1551133761182","","","","","","",""
"null","","html-keyboard-response","334","1605505","0.0-8.0-0.0-4.1","38","<p><img class= 'stimulus' src='images/baseline/05179v.jpg'></img></p>","null","","1551133761282","4","","","","","",""
"null","","html-keyboard-response","335","1605605","0.0-8.0-0.0-5.1","38","<p><img class= 'stimulus' src='images/baseline/04064v.jpg'></img></p>","null","","1551133761382","","","","","","",""
"null","","html-keyboard-response","336","1605706","0.0-8.0-0.0-6.1","38","<p><img class= 'stimulus' src='images/negative/Cockroach 4.jpg'></img></p>","null","","1551133761482","6","","","","","",""
"null","","html-keyboard-response","337","1605806","0.0-8.0-0.0-7.1","38","<p><img class= 'stimulus' src='images/baseline/landscape14.jpg'></img></p>","null","","1551133761582","","","","","","",""
"null","","html-keyboard-response","338","1605904","0.0-8.0-0.0-8.1","38","<p><img class= 'stimulus left-rotate' src='images/target/oak-456524_640.jpg'></img></p>","null","","1551133761684","8","","","","","",""
"null","","html-keyboard-response","339","1606006","0.0-8.0-0.0-9.1","38","<p><img class= 'stimulus' src='images/baseline/landscape15.jpg'></img></p>","null","","1551133761783","","","","","","",""
"null","","html-keyboard-response","340","1606104","0.0-8.0-0.0-10.1","38","<p><img class= 'stimulus' src='images/baseline/autumn-in-red-rocks-park.jpg'></img></p>","null","","1551133761883","","","","","","",""
"null","","html-keyboard-response","341","1606205","0.0-8.0-0.0-11.1","38","<p><img class= 'stimulus' src='images/baseline/farmhouse7.jpg'></img></p>","null","","1551133761984","","","","","","",""
"null","","html-keyboard-response","342","1606305","0.0-8.0-0.0-12.1","38","<p><img class= 'stimulus' src='images/baseline/04086v.jpg'></img></p>","null","","1551133762082","12","","","","","",""
"null","","html-keyboard-response","343","1606405","0.0-8.0-0.0-13.1","38","<p><img class= 'stimulus' src='images/baseline/building4.jpg'></img></p>","null","","1551133762183","","","","","","",""
"null","","html-keyboard-response","344","1606505","0.0-8.0-0.0-14.1","38","<p><img class= 'stimulus' src='images/baseline/landscape37.jpg'></img></p>","null","","1551133762281","14","","","","","",""
"null","","html-keyboard-response","345","1606605","0.0-8.0-0.0-15.1","38","<p><img class= 'stimulus' src='images/baseline/05280v.jpg'></img></p>","null","","1551133762382","","","","","","",""
"null","","html-keyboard-response","346","1606705","0.0-8.0-0.0-16.1","38","<p><img class= 'stimulus' src='images/baseline/Beach 3.jpg'></img></p>","null","","1551133762483","","","","","","",""
"null","","html-keyboard-response","347","1606821","0.0-8.0-0.0-17.1","38","<p><img class= 'stimulus' src='images/baseline/agriculture-bright-clouds-440731.jpg'></img></p>","null","","1551133762582","","","","","","",""
"2361.6000000038184","","html-button-response","348","1610190","0.0-8.0-0.0-18.1","38","<div class = ""response_question"">WAS THE IMAGE ROTATED...</div>","","1","","","6","2","neg","left","test","true"
"630.4999999990687","","html-button-response","349","1610822","0.0-8.0-0.0-0.2","38","","","0","","","","","","","",""
"null","","html-keyboard-response","350","1610905","0.0-8.0-0.0-1.2","38","<p><img class= 'stimulus' src='images/baseline/pexels-photo-534164.jpeg'></img></p>","null","","1551133766682","","","","","","",""
"null","","html-keyboard-response","351","1611005","0.0-8.0-0.0-2.2","38","<p><img class= 'stimulus' src='images/baseline/04229v.jpg'></img></p>","null","","1551133766782","","","","","","",""
"null","","html-keyboard-response","352","1611105","0.0-8.0-0.0-3.2","38","<p><img class= 'stimulus' src='images/baseline/Sunset 6.jpg'></img></p>","null","","1551133766882","","","","","","",""
"null","","html-keyboard-response","353","1611205","0.0-8.0-0.0-4.2","38","<p><img class= 'stimulus' src='images/baseline/lake3.jpg'></img></p>","null","","1551133766982","4","","","","","",""
"null","","html-keyboard-response","354","1611305","0.0-8.0-0.0-5.2","38","<p><img class= 'stimulus' src='images/baseline/03098v.jpg'></img></p>","null","","1551133767082","","","","","","",""
"null","","html-keyboard-response","355","1611406","0.0-8.0-0.0-6.2","38","<p><img class= 'stimulus' src='images/negative/Wolf 2.jpg'></img></p>","null","","1551133767182","6","","","","","",""
"null","","html-keyboard-response","356","1611506","0.0-8.0-0.0-7.2","38","<p><img class= 'stimulus' src='images/baseline/landscape2.jpg'></img></p>","null","","1551133767282","","","","","","",""
"null","","html-keyboard-response","357","1611605","0.0-8.0-0.0-8.2","38","<p><img class= 'stimulus' src='images/baseline/sun-through-winter-tree-branches1.jpg'></img></p>","null","","1551133767383","8","","","","","",""
"null","","html-keyboard-response","358","1611705","0.0-8.0-0.0-9.2","38","<p><img class= 'stimulus' src='images/baseline/church-silhouette-8712964986014Kb.jpg'></img></p>","null","","1551133767483","","","","","","",""
"null","","html-keyboard-response","359","1611805","0.0-8.0-0.0-10.2","38","<p><img class= 'stimulus' src='images/baseline/Dock 1.jpg'></img></p>","null","","1551133767583","","","","","","",""
"null","","html-keyboard-response","360","1611905","0.0-8.0-0.0-11.2","38","<p><img class= 'stimulus' src='images/baseline/03063v.jpg'></img></p>","null","","1551133767683","","","","","","",""
"null","","html-keyboard-response","361","1612005","0.0-8.0-0.0-12.2","38","<p><img class= 'stimulus' src='images/baseline/autumn-landscape-with-lake-fall-trees-mountains.jpg'></img></p>","null","","1551133767782","12","","","","","",""
"null","","html-keyboard-response","362","1612104","0.0-8.0-0.0-13.2","38","<p><img class= 'stimulus' src='images/baseline/red rocks from afar.jpg'></img></p>","null","","1551133767882","","","","","","",""
"null","","html-keyboard-response","363","1612205","0.0-8.0-0.0-14.2","38","<p><img class= 'stimulus' src='images/target/adventure-desert-landscape-6778.jpg'></img></p>","null","","1551133767983","14","","","","","",""
"null","","html-keyboard-response","364","1612305","0.0-8.0-0.0-15.2","38","<p><img class= 'stimulus' src='images/baseline/pexels-photo-440731.jpeg'></img></p>","null","","1551133768083","","","","","","",""
"null","","html-keyboard-response","365","1612405","0.0-8.0-0.0-16.2","38","<p><img class= 'stimulus' src='images/baseline/Street 5.jpg'></img></p>","null","","1551133768182","","","","","","",""
"null","","html-keyboard-response","366","1612522","0.0-8.0-0.0-17.2","38","<p><img class= 'stimulus' src='images/baseline/pexels-photo-1837621.jpeg'></img></p>","null","","1551133768282","","","","","","",""
"1671.7999999963213","","html-button-response","367","1615198","0.0-8.0-0.0-18.2","38","<div class = ""response_question"">WAS THE IMAGE ROTATED...</div>","","4","","","6","8","neg","right","test","true"
"1150.2000000036787","","html-button-response","368","1616350","0.0-8.0-0.0-0.3","38","","","0","","","","","","","",""
"null","","html-keyboard-response","369","1616422","0.0-8.0-0.0-1.3","38","<p><img class= 'stimulus' src='images/baseline/04117v.jpg'></img></p>","null","","1551133772199","","","","","","",""
"null","","html-keyboard-response","370","1616522","0.0-8.0-0.0-2.3","38","<p><img class= 'stimulus' src='images/baseline/04162v.jpg'></img></p>","null","","1551133772298","","","","","","",""
"null","","html-keyboard-response","371","1616622","0.0-8.0-0.0-3.3","38","<p><img class= 'stimulus' src='images/baseline/05247v.jpg'></img></p>","null","","1551133772399","","","","","","",""
"null","","html-keyboard-response","372","1616722","0.0-8.0-0.0-4.3","38","<p><img class= 'stimulus' src='images/neutral/Gazing 6.jpg'></img></p>","null","","1551133772500","4","","","","","",""
"null","","html-keyboard-response","373","1616822","0.0-8.0-0.0-5.3","38","<p><img class= 'stimulus' src='images/baseline/pexels-photo-210617.jpeg'></img></p>","null","","1551133772599","","","","","","",""
"null","","html-keyboard-response","374","1616921","0.0-8.0-0.0-6.3","38","<p><img class= 'stimulus' src='images/target/lighthouse-843522_640.jpg'></img></p>","null","","1551133772699","6","","","","","",""
"null","","html-keyboard-response","375","1617022","0.0-8.0-0.0-7.3","38","<p><img class= 'stimulus' src='images/baseline/Beach 8.jpg'></img></p>","null","","1551133772799","","","","","","",""
"null","","html-keyboard-response","376","1617122","0.0-8.0-0.0-8.3","38","<p><img class= 'stimulus' src='images/baseline/landscape40.jpg'></img></p>","null","","1551133772900","8","","","","","",""
"null","","html-keyboard-response","377","1617221","0.0-8.0-0.0-9.3","38","<p><img class= 'stimulus' src='images/baseline/house1.jpg'></img></p>","null","","1551133773000","","","","","","",""
"null","","html-keyboard-response","378","1617321","0.0-8.0-0.0-10.3","38","<p><img class= 'stimulus' src='images/baseline/pexels-photo-1287089.jpeg'></img></p>","null","","1551133773099","","","","","","",""
"null","","html-keyboard-response","379","1617421","0.0-8.0-0.0-11.3","38","<p><img class= 'stimulus' src='images/baseline/chicago-skyline-at-night-1476869511p8U.jpg'></img></p>","null","","1551133773199","","","","","","",""
"null","","html-keyboard-response","380","1617522","0.0-8.0-0.0-12.3","38","<p><img class= 'stimulus' src='images/baseline/field 1.jpg'></img></p>","null","","1551133773300","12","","","","","",""
"null","","html-keyboard-response","381","1617621","0.0-8.0-0.0-13.3","38","<p><img class= 'stimulus' src='images/baseline/Desert_View_Indian_Wells.jpg'></img></p>","null","","1551133773399","","","","","","",""
"null","","html-keyboard-response","382","1617722","0.0-8.0-0.0-14.3","38","<p><img class= 'stimulus' src='images/baseline/05167v.jpg'></img></p>","null","","1551133773499","14","","","","","",""
"null","","html-keyboard-response","383","1617822","0.0-8.0-0.0-15.3","38","<p><img class= 'stimulus' src='images/baseline/pexels-photo-59321.jpeg'></img></p>","null","","1551133773600","","","","","","",""
"null","","html-keyboard-response","384","1617922","0.0-8.0-0.0-16.3","38","<p><img class= 'stimulus' src='images/baseline/04130v.jpg'></img></p>","null","","1551133773699","","","","","","",""
"null","","html-keyboard-response","385","1618038","0.0-8.0-0.0-17.3","38","<p><img class= 'stimulus' src='images/baseline/pexels-photo-221125.jpeg'></img></p>","null","","1551133773799","","","","","","",""
"932.3000000002794","","html-button-response","386","1619974","0.0-8.0-0.0-18.3","38","<div class = ""response_question"">WAS THE IMAGE ROTATED...</div>","","4","","","4","2","neu","right","test","true"
"1413.3000000002794","","html-button-response","387","1621389","0.0-8.0-0.0-0.4","38","","","0","","","","","","","",""
"null","","html-keyboard-response","388","1621472","0.0-8.0-0.0-1.4","38","<p><img class= 'stimulus' src='images/baseline/building_at_national_conservation.jpg'></img></p>","null","","1551133777249","","","","","","",""
"null","","html-keyboard-response","389","1621571","0.0-8.0-0.0-2.4","38","<p><img class= 'stimulus' src='images/baseline/pexels-photo-541101.jpeg'></img></p>","null","","1551133777350","","","","","","",""
"null","","html-keyboard-response","390","1621672","0.0-8.0-0.0-3.4","38","<p><img class= 'stimulus' src='images/baseline/04193v.jpg'></img></p>","null","","1551133777449","","","","","","",""
"null","","html-keyboard-response","391","1621772","0.0-8.0-0.0-4.4","38","<p><img class= 'stimulus' src='images/baseline/dirt-road-or-trail-through-park.jpg'></img></p>","null","","1551133777550","4","","","","","",""
"null","","html-keyboard-response","392","1621873","0.0-8.0-0.0-5.4","38","<p><img class= 'stimulus' src='images/baseline/bird-flying-at-sunset.jpg'></img></p>","null","","1551133777650","","","","","","",""
"null","","html-keyboard-response","393","1621973","0.0-8.0-0.0-6.4","38","<p><img class= 'stimulus' src='images/baseline/Lake 7.jpg'></img></p>","null","","1551133777749","6","","","","","",""
"null","","html-keyboard-response","394","1622072","0.0-8.0-0.0-7.4","38","<p><img class= 'stimulus' src='images/baseline/04201v.jpg'></img></p>","null","","1551133777849","","","","","","",""
"null","","html-keyboard-response","395","1622172","0.0-8.0-0.0-8.4","38","<p><img class= 'stimulus left-rotate' src='images/target/transamerica-pyramid-530061_640.jpg'></img></p>","null","","1551133777951","8","","","","","",""
"null","","html-keyboard-response","396","1622271","0.0-8.0-0.0-9.4","38","<p><img class= 'stimulus' src='images/baseline/pexels-photo-459203.jpeg'></img></p>","null","","1551133778050","","","","","","",""
"null","","html-keyboard-response","397","1622371","0.0-8.0-0.0-10.4","38","<p><img class= 'stimulus' src='images/baseline/pexels-photo-427676.jpeg'></img></p>","null","","1551133778150","","","","","","",""
"null","","html-keyboard-response","398","1622472","0.0-8.0-0.0-11.4","38","<p><img class= 'stimulus' src='images/baseline/pexels-photo-259280.jpeg'></img></p>","null","","1551133778249","","","","","","",""
"null","","html-keyboard-response","399","1622571","0.0-8.0-0.0-12.4","38","<p><img class= 'stimulus' src='images/baseline/pexels-photo-1840893.jpeg'></img></p>","null","","1551133778348","12","","","","","",""
"null","","html-keyboard-response","400","1622672","0.0-8.0-0.0-13.4","38","<p><img class= 'stimulus' src='images/baseline/05264v.jpg'></img></p>","null","","1551133778448","","","","","","",""
"null","","html-keyboard-response","401","1622772","0.0-8.0-0.0-14.4","38","<p><img class= 'stimulus' src='images/baseline/Linden,_paysage.jpg'></img></p>","null","","1551133778549","14","","","","","",""
"null","","html-keyboard-response","402","1622873","0.0-8.0-0.0-15.4","38","<p><img class= 'stimulus' src='images/baseline/road.jpg'></img></p>","null","","1551133778649","","","","","","",""
"null","","html-keyboard-response","403","1622972","0.0-8.0-0.0-16.4","38","<p><img class= 'stimulus' src='images/baseline/Bahia_Onelli_Parque_Nacional_Los_Glaciares_Patagonia_Argentina_Luca_Galuzzi_2005.jpg'></img></p>","null","","1551133778749","","","","","","",""
"null","","html-keyboard-response","404","1623089","0.0-8.0-0.0-17.4","38","<p><img class= 'stimulus' src='images/baseline/building9.jpg'></img></p>","null","","1551133778849","","","","","","",""
"1616.9000000082888","","html-button-response","405","1625710","0.0-8.0-0.0-18.4","38","<div class = ""response_question"">WAS THE IMAGE ROTATED...</div>","","2","","","6","2","bas","left","test","false"
"1838.3000000030734","","html-button-response","406","1627549","0.0-8.0-0.0-0.5","38","","","0","","","","","","","",""
"null","","html-keyboard-response","407","1627622","0.0-8.0-0.0-1.5","38","<p><img class= 'stimulus' src='images/baseline/pexels-photo-1261728.jpeg'></img></p>","null","","1551133783399","","","","","","",""
"null","","html-keyboard-response","408","1627722","0.0-8.0-0.0-2.5","38","<p><img class= 'stimulus' src='images/baseline/Lake 15.jpg'></img></p>","null","","1551133783500","","","","","","",""
"null","","html-keyboard-response","409","1627822","0.0-8.0-0.0-3.5","38","<p><img class= 'stimulus' src='images/baseline/Niinsaare_jarv.jpg'></img></p>","null","","1551133783598","","","","","","",""
"null","","html-keyboard-response","410","1627922","0.0-8.0-0.0-4.5","38","<p><img class= 'stimulus' src='images/neutral/Orangutan 1.jpg'></img></p>","null","","1551133783700","4","","","","","",""
"null","","html-keyboard-response","411","1628022","0.0-8.0-0.0-5.5","38","<p><img class= 'stimulus' src='images/baseline/landscape19.jpg'></img></p>","null","","1551133783800","","","","","","",""
"null","","html-keyboard-response","412","1628122","0.0-8.0-0.0-6.5","38","<p><img class= 'stimulus' src='images/baseline/landscape31.jpg'></img></p>","null","","1551133783899","6","","","","","",""
"null","","html-keyboard-response","413","1628221","0.0-8.0-0.0-7.5","38","<p><img class= 'stimulus' src='images/baseline/horse_statue.jpg'></img></p>","null","","1551133784000","","","","","","",""
"null","","html-keyboard-response","414","1628322","0.0-8.0-0.0-8.5","38","<p><img class= 'stimulus' src='images/baseline/geese-flying-over-lake-at-dusk.jpg'></img></p>","null","","1551133784099","8","","","","","",""
"null","","html-keyboard-response","415","1628422","0.0-8.0-0.0-9.5","38","<p><img class= 'stimulus' src='images/baseline/Path 1.jpg'></img></p>","null","","1551133784200","","","","","","",""
"null","","html-keyboard-response","416","1628522","0.0-8.0-0.0-10.5","38","<p><img class= 'stimulus' src='images/baseline/05292v.jpg'></img></p>","null","","1551133784299","","","","","","",""
"null","","html-keyboard-response","417","1628622","0.0-8.0-0.0-11.5","38","<p><img class= 'stimulus' src='images/baseline/landscape16.jpg'></img></p>","null","","1551133784398","","","","","","",""
"null","","html-keyboard-response","418","1628721","0.0-8.0-0.0-12.5","38","<p><img class= 'stimulus' src='images/target/1937-single-tree-at-the-top-of-stone-mountain-pv.jpg'></img></p>","null","","1551133784499","12","","","","","",""
"null","","html-keyboard-response","419","1628822","0.0-8.0-0.0-13.5","38","<p><img class= 'stimulus' src='images/baseline/Freudenberg_sg_Switzerland.jpg'></img></p>","null","","1551133784598","","","","","","",""
"null","","html-keyboard-response","420","1628921","0.0-8.0-0.0-14.5","38","<p><img class= 'stimulus' src='images/baseline/city-silhouette-at-sunset-871291580819Esw.jpg'></img></p>","null","","1551133784700","14","","","","","",""
"null","","html-keyboard-response","421","1629022","0.0-8.0-0.0-15.5","38","<p><img class= 'stimulus' src='images/baseline/sunny-landscape-with-dry-brush-and-mountain-background.jpg'></img></p>","null","","1551133784799","","","","","","",""
"null","","html-keyboard-response","422","1629122","0.0-8.0-0.0-16.5","38","<p><img class= 'stimulus' src='images/baseline/valley 2.jpg'></img></p>","null","","1551133784900","","","","","","",""
"null","","html-keyboard-response","423","1629239","0.0-8.0-0.0-17.5","38","<p><img class= 'stimulus' src='images/baseline/Sunset 3.jpg'></img></p>","null","","1551133785000","","","","","","",""
"956.8000000000466","","html-button-response","424","1631198","0.0-8.0-0.0-18.5","38","<div class = ""response_question"">WAS THE IMAGE ROTATED...</div>","","4","","","4","8","neu","right","test","true"
"1285.9999999927823","","html-button-response","425","1632485","0.0-8.0-0.0-0.6","38","","","0","","","","","","","",""
"null","","html-keyboard-response","426","1632573","0.0-8.0-0.0-1.6","38","<p><img class= 'stimulus' src='images/baseline/Road 1.jpg'></img></p>","null","","1551133788349","","","","","","",""
"null","","html-keyboard-response","427","1632672","0.0-8.0-0.0-2.6","38","<p><img class= 'stimulus' src='images/baseline/02947v.jpg'></img></p>","null","","1551133788450","","","","","","",""
"null","","html-keyboard-response","428","1632771","0.0-8.0-0.0-3.6","38","<p><img class= 'stimulus' src='images/baseline/04098v.jpg'></img></p>","null","","1551133788550","","","","","","",""
"null","","html-keyboard-response","429","1632871","0.0-8.0-0.0-4.6","38","<p><img class= 'stimulus' src='images/neutral/Pigeon 2.jpg'></img></p>","null","","1551133788650","4","","","","","",""
"null","","html-keyboard-response","430","1632973","0.0-8.0-0.0-5.6","38","<p><img class= 'stimulus' src='images/baseline/pexels-photo-568236.jpeg'></img></p>","null","","1551133788750","","","","","","",""
"null","","html-keyboard-response","431","1633072","0.0-8.0-0.0-6.6","38","<p><img class= 'stimulus left-rotate' src='images/target/sand-3339890_640.jpg'></img></p>","null","","1551133788850","6","","","","","",""
"null","","html-keyboard-response","432","1633172","0.0-8.0-0.0-7.6","38","<p><img class= 'stimulus' src='images/baseline/landscape36.jpg'></img></p>","null","","1551133788949","","","","","","",""
"null","","html-keyboard-response","433","1633273","0.0-8.0-0.0-8.6","38","<p><img class= 'stimulus' src='images/baseline/Skijump 1.jpg'></img></p>","null","","1551133789049","8","","","","","",""
"null","","html-keyboard-response","434","1633372","0.0-8.0-0.0-9.6","38","<p><img class= 'stimulus' src='images/baseline/landscape11.jpg'></img></p>","null","","1551133789149","","","","","","",""
"null","","html-keyboard-response","435","1633473","0.0-8.0-0.0-10.6","38","<p><img class= 'stimulus' src='images/baseline/99_-_Machu_Picchu_-_Juin_2009.edit3.jpg'></img></p>","null","","1551133789249","","","","","","",""
"null","","html-keyboard-response","436","1633572","0.0-8.0-0.0-11.6","38","<p><img class= 'stimulus' src='images/baseline/farmhouse8.jpg'></img></p>","null","","1551133789349","","","","","","",""
"null","","html-keyboard-response","437","1633672","0.0-8.0-0.0-12.6","38","<p><img class= 'stimulus' src='images/baseline/landscape6.jpg'></img></p>","null","","1551133789449","12","","","","","",""
"null","","html-keyboard-response","438","1633773","0.0-8.0-0.0-13.6","38","<p><img class= 'stimulus' src='images/baseline/pexels-photo-894312.jpeg'></img></p>","null","","1551133789549","","","","","","",""
"null","","html-keyboard-response","439","1633871","0.0-8.0-0.0-14.6","38","<p><img class= 'stimulus' src='images/baseline/pexels-photo-414491.jpeg'></img></p>","null","","1551133789649","14","","","","","",""
"null","","html-keyboard-response","440","1633972","0.0-8.0-0.0-15.6","38","<p><img class= 'stimulus' src='images/baseline/05189v.jpg'></img></p>","null","","1551133789750","","","","","","",""
"null","","html-keyboard-response","441","1634073","0.0-8.0-0.0-16.6","38","<p><img class= 'stimulus' src='images/baseline/Lake 3.jpg'></img></p>","null","","1551133789850","","","","","","",""
"null","","html-keyboard-response","442","1634189","0.0-8.0-0.0-17.6","38","<p><img class= 'stimulus' src='images/baseline/05242v.jpg'></img></p>","null","","1551133789949","","","","","","",""
"2053.8999999989755","","html-button-response","443","1637246","0.0-8.0-0.0-18.6","38","<div class = ""response_question"">WAS THE IMAGE ROTATED...</div>","","5","","","4","2","neu","left","test","false"
"1262.300000002142","","html-button-response","444","1638510","0.0-8.0-0.0-0.7","38","","","0","","","","","","","",""
"null","","html-keyboard-response","445","1638589","0.0-8.0-0.0-1.7","38","<p><img class= 'stimulus' src='images/baseline/Grass 6.jpg'></img></p>","null","","1551133794366","","","","","","",""
"null","","html-keyboard-response","446","1638689","0.0-8.0-0.0-2.7","38","<p><img class= 'stimulus' src='images/baseline/Paysage_karabagh_02.jpg'></img></p>","null","","1551133794466","","","","","","",""
"null","","html-keyboard-response","447","1638789","0.0-8.0-0.0-3.7","38","<p><img class= 'stimulus' src='images/baseline/03066v.jpg'></img></p>","null","","1551133794566","","","","","","",""
"null","","html-keyboard-response","448","1638888","0.0-8.0-0.0-4.7","38","<p><img class= 'stimulus' src='images/neutral/playing-saxophone-871291665036ZmX.jpg'></img></p>","null","","1551133794666","4","","","","","",""
"null","","html-keyboard-response","449","1638990","0.0-8.0-0.0-5.7","38","<p><img class= 'stimulus' src='images/baseline/house3.jpg'></img></p>","null","","1551133794767","","","","","","",""
"null","","html-keyboard-response","450","1639089","0.0-8.0-0.0-6.7","38","<p><img class= 'stimulus' src='images/baseline/house2.jpg'></img></p>","null","","1551133794868","6","","","","","",""
"null","","html-keyboard-response","451","1639189","0.0-8.0-0.0-7.7","38","<p><img class= 'stimulus' src='images/baseline/town-square-in-wroclaw-1539098440MZy.jpg'></img></p>","null","","1551133794968","","","","","","",""
"null","","html-keyboard-response","452","1639289","0.0-8.0-0.0-8.7","38","<p><img class= 'stimulus' src='images/baseline/04300v.jpg'></img></p>","null","","1551133795065","8","","","","","",""
"null","","html-keyboard-response","453","1639388","0.0-8.0-0.0-9.7","38","<p><img class= 'stimulus' src='images/baseline/03201v.jpg'></img></p>","null","","1551133795167","","","","","","",""
"null","","html-keyboard-response","454","1639489","0.0-8.0-0.0-10.7","38","<p><img class= 'stimulus' src='images/baseline/03212v.jpg'></img></p>","null","","1551133795267","","","","","","",""
"null","","html-keyboard-response","455","1639589","0.0-8.0-0.0-11.7","38","<p><img class= 'stimulus' src='images/baseline/architecture_modern_architecture_852928.jpg'></img></p>","null","","1551133795366","","","","","","",""
"null","","html-keyboard-response","456","1639689","0.0-8.0-0.0-12.7","38","<p><img class= 'stimulus' src='images/target/shotstash_0036-1-1100x734.jpg'></img></p>","null","","1551133795466","12","","","","","",""
"null","","html-keyboard-response","457","1639789","0.0-8.0-0.0-13.7","38","<p><img class= 'stimulus' src='images/baseline/05161v.jpg'></img></p>","null","","1551133795566","","","","","","",""
"null","","html-keyboard-response","458","1639890","0.0-8.0-0.0-14.7","38","<p><img class= 'stimulus' src='images/baseline/05203v.jpg'></img></p>","null","","1551133795666","14","","","","","",""
"null","","html-keyboard-response","459","1639988","0.0-8.0-0.0-15.7","38","<p><img class= 'stimulus' src='images/baseline/building5.jpg'></img></p>","null","","1551133795767","","","","","","",""
"null","","html-keyboard-response","460","1640089","0.0-8.0-0.0-16.7","38","<p><img class= 'stimulus' src='images/baseline/Camping 10.jpg'></img></p>","null","","1551133795867","","","","","","",""
"null","","html-keyboard-response","461","1640206","0.0-8.0-0.0-17.7","38","<p><img class= 'stimulus' src='images/baseline/05139v.jpg'></img></p>","null","","1551133795967","","","","","","",""
"948.9999999932479","","html-button-response","462","1642158","0.0-8.0-0.0-18.7","38","<div class = ""response_question"">WAS THE IMAGE ROTATED...</div>","","4","","","4","8","neu","right","test","true"
"1238.700000001816","","html-button-response","463","1643398","0.0-8.0-0.0-0.8","38","","","0","","","","","","","",""
"null","","html-keyboard-response","464","1643472","0.0-8.0-0.0-1.8","38","<p><img class= 'stimulus' src='images/baseline/Lake 14.jpg'></img></p>","null","","1551133799250","","","","","","",""
"null","","html-keyboard-response","465","1643572","0.0-8.0-0.0-2.8","38","<p><img class= 'stimulus' src='images/baseline/field 2.jpg'></img></p>","null","","1551133799350","","","","","","",""
"null","","html-keyboard-response","466","1643673","0.0-8.0-0.0-3.8","38","<p><img class= 'stimulus' src='images/baseline/vintage-art-deco-storefront.jpg'></img></p>","null","","1551133799449","","","","","","",""
"null","","html-keyboard-response","467","1643773","0.0-8.0-0.0-4.8","38","<p><img class= 'stimulus' src='images/neutral/School 4.jpg'></img></p>","null","","1551133799550","4","","","","","",""
"null","","html-keyboard-response","468","1643872","0.0-8.0-0.0-5.8","38","<p><img class= 'stimulus' src='images/baseline/landscape29.jpg'></img></p>","null","","1551133799650","","","","","","",""
"null","","html-keyboard-response","469","1643973","0.0-8.0-0.0-6.8","38","<p><img class= 'stimulus' src='images/baseline/Sunset 5.jpg'></img></p>","null","","1551133799750","6","","","","","",""
"null","","html-keyboard-response","470","1644071","0.0-8.0-0.0-7.8","38","<p><img class= 'stimulus' src='images/baseline/03204v.jpg'></img></p>","null","","1551133799850","","","","","","",""
"null","","html-keyboard-response","471","1644172","0.0-8.0-0.0-8.8","38","<p><img class= 'stimulus' src='images/baseline/field 4.jpg'></img></p>","null","","1551133799951","8","","","","","",""
"null","","html-keyboard-response","472","1644272","0.0-8.0-0.0-9.8","38","<p><img class= 'stimulus' src='images/baseline/landscape3.jpg'></img></p>","null","","1551133800050","","","","","","",""
"null","","html-keyboard-response","473","1644372","0.0-8.0-0.0-10.8","38","<p><img class= 'stimulus' src='images/baseline/agriculture-cereal-clouds-175389.jpg'></img></p>","null","","1551133800150","","","","","","",""
"null","","html-keyboard-response","474","1644472","0.0-8.0-0.0-11.8","38","<p><img class= 'stimulus' src='images/baseline/05158v.jpg'></img></p>","null","","1551133800249","","","","","","",""
"null","","html-keyboard-response","475","1644572","0.0-8.0-0.0-12.8","38","<p><img class= 'stimulus' src='images/target/mitre peak.jpg'></img></p>","null","","1551133800349","12","","","","","",""
"null","","html-keyboard-response","476","1644672","0.0-8.0-0.0-13.8","38","<p><img class= 'stimulus' src='images/baseline/farmhouse9.jpg'></img></p>","null","","1551133800449","","","","","","",""
"null","","html-keyboard-response","477","1644772","0.0-8.0-0.0-14.8","38","<p><img class= 'stimulus' src='images/baseline/meadow-with-mountain-in-background.jpg'></img></p>","null","","1551133800550","14","","","","","",""
"null","","html-keyboard-response","478","1644872","0.0-8.0-0.0-15.8","38","<p><img class= 'stimulus' src='images/baseline/house8.jpg'></img></p>","null","","1551133800649","","","","","","",""
"null","","html-keyboard-response","479","1644973","0.0-8.0-0.0-16.8","38","<p><img class= 'stimulus' src='images/baseline/field 3.jpg'></img></p>","null","","1551133800750","","","","","","",""
"null","","html-keyboard-response","480","1645089","0.0-8.0-0.0-17.8","38","<p><img class= 'stimulus' src='images/baseline/Lake 9.jpg'></img></p>","null","","1551133800849","","","","","","",""
"562.3999999952503","","html-button-response","481","1646654","0.0-8.0-0.0-18.8","38","<div class = ""response_question"">WAS THE IMAGE ROTATED...</div>","","4","","","4","8","neu","right","test","true"
"990.0000000051223","","html-button-response","482","1647646","0.0-8.0-0.0-0.9","38","","","0","","","","","","","",""
"null","","html-keyboard-response","483","1647723","0.0-8.0-0.0-1.9","38","<p><img class= 'stimulus' src='images/baseline/03148v.jpg'></img></p>","null","","1551133803500","","","","","","",""
"null","","html-keyboard-response","484","1647822","0.0-8.0-0.0-2.9","38","<p><img class= 'stimulus' src='images/baseline/grand-teton-mountains.jpg'></img></p>","null","","1551133803600","","","","","","",""
"null","","html-keyboard-response","485","1647922","0.0-8.0-0.0-3.9","38","<p><img class= 'stimulus' src='images/baseline/landscape39.jpg'></img></p>","null","","1551133803699","","","","","","",""
"null","","html-keyboard-response","486","1648022","0.0-8.0-0.0-4.9","38","<p><img class= 'stimulus' src='images/baseline/Kocherbaumwald-01.jpg'></img></p>","null","","1551133803800","4","","","","","",""
"null","","html-keyboard-response","487","1648122","0.0-8.0-0.0-5.9","38","<p><img class= 'stimulus' src='images/baseline/Cold 7.jpg'></img></p>","null","","1551133803899","","","","","","",""
"null","","html-keyboard-response","488","1648222","0.0-8.0-0.0-6.9","38","<p><img class= 'stimulus' src='images/negative/Dead bodies 1 (1).jpg'></img></p>","null","","1551133803999","6","","","","","",""
"null","","html-keyboard-response","489","1648322","0.0-8.0-0.0-7.9","38","<p><img class= 'stimulus' src='images/baseline/pexels-photo-808465.jpeg'></img></p>","null","","1551133804099","","","","","","",""
"null","","html-keyboard-response","490","1648422","0.0-8.0-0.0-8.9","38","<p><img class= 'stimulus' src='images/baseline/02971v.jpg'></img></p>","null","","1551133804199","8","","","","","",""
"null","","html-keyboard-response","491","1648523","0.0-8.0-0.0-9.9","38","<p><img class= 'stimulus' src='images/baseline/pexels-photo-351264.jpeg'></img></p>","null","","1551133804300","","","","","","",""
"null","","html-keyboard-response","492","1648622","0.0-8.0-0.0-10.9","38","<p><img class= 'stimulus' src='images/baseline/04222v.jpg'></img></p>","null","","1551133804400","","","","","","",""
"null","","html-keyboard-response","493","1648722","0.0-8.0-0.0-11.9","38","<p><img class= 'stimulus' src='images/baseline/pexels-photo-750108.jpeg'></img></p>","null","","1551133804500","","","","","","",""
"null","","html-keyboard-response","494","1648822","0.0-8.0-0.0-12.9","38","<p><img class= 'stimulus' src='images/baseline/landscape34.jpg'></img></p>","null","","1551133804600","12","","","","","",""
"null","","html-keyboard-response","495","1648922","0.0-8.0-0.0-13.9","38","<p><img class= 'stimulus' src='images/baseline/farmhouse4.jpg'></img></p>","null","","1551133804700","","","","","","",""
"null","","html-keyboard-response","496","1649022","0.0-8.0-0.0-14.9","38","<p><img class= 'stimulus left-rotate' src='images/target/palm-trees-1209125_640.jpg'></img></p>","null","","1551133804799","14","","","","","",""
"null","","html-keyboard-response","497","1649122","0.0-8.0-0.0-15.9","38","<p><img class= 'stimulus' src='images/baseline/hills 4.jpg'></img></p>","null","","1551133804900","","","","","","",""
"null","","html-keyboard-response","498","1649222","0.0-8.0-0.0-16.9","38","<p><img class= 'stimulus' src='images/baseline/landscape7.jpg'></img></p>","null","","1551133804999","","","","","","",""
"null","","html-keyboard-response","499","1649339","0.0-8.0-0.0-17.9","38","<p><img class= 'stimulus' src='images/baseline/lake 2.jpg'></img></p>","null","","1551133805099","","","","","","",""
"648.8000000098255","","html-button-response","500","1650990","0.0-8.0-0.0-18.9","38","<div class = ""response_question"">WAS THE IMAGE ROTATED...</div>","","1","","","6","8","neg","left","test","true"
"1062.7000000094995","","html-button-response","501","1652054","0.0-8.0-0.0-0.10","38","","","0","","","","","","","",""
"null","","html-keyboard-response","502","1652139","0.0-8.0-0.0-1.10","38","<p><img class= 'stimulus' src='images/baseline/03041v.jpg'></img></p>","null","","1551133807917","","","","","","",""
"null","","html-keyboard-response","503","1652239","0.0-8.0-0.0-2.10","38","<p><img class= 'stimulus' src='images/baseline/landscape8.jpg'></img></p>","null","","1551133808017","","","","","","",""
"null","","html-keyboard-response","504","1652339","0.0-8.0-0.0-3.10","38","<p><img class= 'stimulus' src='images/baseline/sunset-over-the-lake.jpg'></img></p>","null","","1551133808117","","","","","","",""
"null","","html-keyboard-response","505","1652439","0.0-8.0-0.0-4.10","38","<p><img class= 'stimulus' src='images/negative/Gun 1.jpg'></img></p>","null","","1551133808218","4","","","","","",""
"null","","html-keyboard-response","506","1652539","0.0-8.0-0.0-5.10","38","<p><img class= 'stimulus' src='images/baseline/building12.jpg'></img></p>","null","","1551133808317","","","","","","",""
