"rt","responses","trial_type","trial_index","time_elapsed","internal_node_id","participant_id","stimulus","key_press","button_pressed","stim_onset","sequence_position","distractor_position","target_lag","distractor_type","target_orientation","phase","correct"
"15019.499999994878","{""Q0"":""30""}","survey-text","0","15024","0.0-0.0","30","","","","","","","","","","",""
"1535523.199999996","","html-keyboard-response","1","1550557","0.0-1.0","30","Welcome to the experiment.","67","","","","","","","","",""
"52042.399999976624","","html-button-response","2","1602604","0.0-2.0","30","<p>Several images will be presented sequentially.        Each image will only be on the screen for about 100 milliseconds.</p>        <p> One of the images may be rotated 90 degrees right or left.        Watch for this image and remember if it is rotated right or left.</p>               <p>Images of people and animals will appear, and sometimes they will be unpleasant.        These will never be the rotated target image.</p>","","0","","","","","","","",""
"3678.1000000191852","","html-button-response","3","1606283","0.0-3.0","30","<p><img class=""stimulus left-rotate"" src=""images/target/fishhouse.jpg""></img></p><p>This is an example of an image rotated to the left.</p>","","0","","","","","","","",""
"2606.900000013411","","html-button-response","4","1608891","0.0-4.0","30","<p><img class=""stimulus"" src=""images/target/building15.jpg""></img></p><p>This is an example of an image rotated to the right.</p>","","0","","","","","","","",""
"11119.100000010803","","html-button-response","5","1620011","0.0-5.0","30","<p>We will now begin a short practice session.</p>         <p>A + symbol will appear in the middle of the screen. Please fix your gaze on the center of the +, and then click the mouse button to begin the image sequence.</p>         <p>Please avoid blinking or eye movements while the images are on the screen.</p>        <p>The image sequence will start relatively slow. After a few sequences, it will speed up.</p>","","0","","","","","","","",""
"9902.499999967404","","html-button-response","6","1629915","0.0-6.0-0.0","30","","","0","","","","","","","",""
"null","","html-keyboard-response","7","1630103","0.0-6.0-1.0","30","<p><img class= 'stimulus' src='images/baseline/04010v.jpg'></img></p>","null","","1550791355831","","","","","","",""
"null","","html-keyboard-response","8","1630303","0.0-6.0-2.0","30","<p><img class= 'stimulus' src='images/baseline/scenic-mountain-landscape.jpg'></img></p>","null","","1550791356031","","","","","","",""
"null","","html-keyboard-response","9","1630505","0.0-6.0-3.0","30","<p><img class= 'stimulus' src='images/baseline/Lake 15.jpg'></img></p>","null","","1550791356230","","","","","","",""
"null","","html-keyboard-response","10","1630705","0.0-6.0-4.0","30","<p><img class= 'stimulus' src='images/baseline/04193v.jpg'></img></p>","null","","1550791356431","4","","","","","",""
"null","","html-keyboard-response","11","1630905","0.0-6.0-5.0","30","<p><img class= 'stimulus' src='images/baseline/04085v.jpg'></img></p>","null","","1550791356632","","","","","","",""
"null","","html-keyboard-response","12","1631106","0.0-6.0-6.0","30","<p><img class= 'stimulus' src='images/baseline/sunset-over-the-lake.jpg'></img></p>","null","","1550791356832","6","","","","","",""
"null","","html-keyboard-response","13","1631305","0.0-6.0-7.0","30","<p><img class= 'stimulus' src='images/baseline/landscape35.jpg'></img></p>","null","","1550791357032","","","","","","",""
"null","","html-keyboard-response","14","1631505","0.0-6.0-8.0","30","<p><img class= 'stimulus left-rotate' src='images/target/chicago-673558_640.jpg'></img></p>","null","","1550791357233","8","","","","","",""
"null","","html-keyboard-response","15","1631704","0.0-6.0-9.0","30","<p><img class= 'stimulus' src='images/baseline/05255v.jpg'></img></p>","null","","1550791357430","","","","","","",""
"null","","html-keyboard-response","16","1631905","0.0-6.0-10.0","30","<p><img class= 'stimulus' src='images/baseline/building6.jpg'></img></p>","null","","1550791357632","","","","","","",""
"null","","html-keyboard-response","17","1632104","0.0-6.0-11.0","30","<p><img class= 'stimulus' src='images/baseline/Skijump 1.jpg'></img></p>","null","","1550791357832","","","","","","",""
"null","","html-keyboard-response","18","1632305","0.0-6.0-12.0","30","<p><img class= 'stimulus' src='images/baseline/03112v.jpg'></img></p>","null","","1550791358032","12","","","","","",""
"null","","html-keyboard-response","19","1632505","0.0-6.0-13.0","30","<p><img class= 'stimulus' src='images/baseline/chicago-skyline-at-night-1476869511p8U.jpg'></img></p>","null","","1550791358232","","","","","","",""
"null","","html-keyboard-response","20","1632705","0.0-6.0-14.0","30","<p><img class= 'stimulus' src='images/baseline/lake3.jpg'></img></p>","null","","1550791358433","14","","","","","",""
"null","","html-keyboard-response","21","1632905","0.0-6.0-15.0","30","<p><img class= 'stimulus' src='images/baseline/architecture_modern_architecture_852928.jpg'></img></p>","null","","1550791358631","","","","","","",""
"null","","html-keyboard-response","22","1633105","0.0-6.0-16.0","30","<p><img class= 'stimulus' src='images/baseline/meadow-with-mountain-in-background.jpg'></img></p>","null","","1550791358833","","","","","","",""
"null","","html-keyboard-response","23","1633322","0.0-6.0-17.0","30","<p><img class= 'stimulus' src='images/baseline/03162v.jpg'></img></p>","null","","1550791359031","","","","","","",""
"10220.29999998631","","html-button-response","24","1644548","0.0-6.0-18.0","30","<div class = ""response_question"">WAS THE IMAGE ROTATED...</div>","","4","","","6","2","bas","left","practice","false"
"6109.400000015739","","html-button-response","25","1650660","0.0-6.0-0.1","30","","","0","","","","","","","",""
"null","","html-keyboard-response","26","1650854","0.0-6.0-1.1","30","<p><img class= 'stimulus' src='images/baseline/empire-state-building.jpg'></img></p>","null","","1550791376582","","","","","","",""
"null","","html-keyboard-response","27","1651055","0.0-6.0-2.1","30","<p><img class= 'stimulus' src='images/baseline/05280v.jpg'></img></p>","null","","1550791376781","","","","","","",""
"null","","html-keyboard-response","28","1651255","0.0-6.0-3.1","30","<p><img class= 'stimulus' src='images/baseline/building3.jpg'></img></p>","null","","1550791376981","","","","","","",""
"null","","html-keyboard-response","29","1651455","0.0-6.0-4.1","30","<p><img class= 'stimulus' src='images/baseline/Lake 16.jpg'></img></p>","null","","1550791377181","4","","","","","",""
"null","","html-keyboard-response","30","1651655","0.0-6.0-5.1","30","<p><img class= 'stimulus' src='images/baseline/landscape13.jpg'></img></p>","null","","1550791377382","","","","","","",""
"null","","html-keyboard-response","31","1651854","0.0-6.0-6.1","30","<p><img class= 'stimulus' src='images/baseline/landscape37.jpg'></img></p>","null","","1550791377581","6","","","","","",""
"null","","html-keyboard-response","32","1652055","0.0-6.0-7.1","30","<p><img class= 'stimulus' src='images/baseline/Skyscraper 1.jpg'></img></p>","null","","1550791377781","","","","","","",""
"null","","html-keyboard-response","33","1652255","0.0-6.0-8.1","30","<p><img class= 'stimulus' src='images/baseline/building_at_national_conservation.jpg'></img></p>","null","","1550791377981","8","","","","","",""
"null","","html-keyboard-response","34","1652455","0.0-6.0-9.1","30","<p><img class= 'stimulus' src='images/baseline/05203v.jpg'></img></p>","null","","1550791378181","","","","","","",""
"null","","html-keyboard-response","35","1652656","0.0-6.0-10.1","30","<p><img class= 'stimulus' src='images/baseline/pexels-photo-459203.jpeg'></img></p>","null","","1550791378381","","","","","","",""
"null","","html-keyboard-response","36","1652856","0.0-6.0-11.1","30","<p><img class= 'stimulus' src='images/baseline/03056v.jpg'></img></p>","null","","1550791378583","","","","","","",""
"null","","html-keyboard-response","37","1653056","0.0-6.0-12.1","30","<p><img class= 'stimulus left-rotate' src='images/target/fishhouse.jpg'></img></p>","null","","1550791378782","12","","","","","",""
"null","","html-keyboard-response","38","1653257","0.0-6.0-13.1","30","<p><img class= 'stimulus' src='images/baseline/pexels-photo-1261728.jpeg'></img></p>","null","","1550791378984","","","","","","",""
"null","","html-keyboard-response","39","1653456","0.0-6.0-14.1","30","<p><img class= 'stimulus' src='images/baseline/04162v.jpg'></img></p>","null","","1550791379184","14","","","","","",""
"null","","html-keyboard-response","40","1653656","0.0-6.0-15.1","30","<p><img class= 'stimulus' src='images/baseline/04031v.jpg'></img></p>","null","","1550791379383","","","","","","",""
"null","","html-keyboard-response","41","1653856","0.0-6.0-16.1","30","<p><img class= 'stimulus' src='images/baseline/05252v.jpg'></img></p>","null","","1550791379583","","","","","","",""
"null","","html-keyboard-response","42","1654074","0.0-6.0-17.1","30","<p><img class= 'stimulus' src='images/baseline/pexels-photo-210617.jpeg'></img></p>","null","","1550791379784","","","","","","",""
"1065.7000000355765","","html-button-response","43","1656147","0.0-6.0-18.1","30","<div class = ""response_question"">WAS THE IMAGE ROTATED...</div>","","0","","","4","8","bas","left","practice","true"
"2310.399999958463","","html-button-response","44","1658460","0.0-6.0-0.2","30","","","0","","","","","","","",""
"null","","html-keyboard-response","45","1658639","0.0-6.0-1.2","30","<p><img class= 'stimulus' src='images/baseline/house6.jpg'></img></p>","null","","1550791384365","","","","","","",""
"null","","html-keyboard-response","46","1658838","0.0-6.0-2.2","30","<p><img class= 'stimulus' src='images/baseline/vintage-art-deco-storefront.jpg'></img></p>","null","","1550791384565","","","","","","",""
"null","","html-keyboard-response","47","1659038","0.0-6.0-3.2","30","<p><img class= 'stimulus' src='images/baseline/03075v.jpg'></img></p>","null","","1550791384765","","","","","","",""
"null","","html-keyboard-response","48","1659238","0.0-6.0-4.2","30","<p><img class= 'stimulus' src='images/baseline/field 1.jpg'></img></p>","null","","1550791384964","4","","","","","",""
"null","","html-keyboard-response","49","1659439","0.0-6.0-5.2","30","<p><img class= 'stimulus' src='images/baseline/Path 1.jpg'></img></p>","null","","1550791385165","","","","","","",""
"null","","html-keyboard-response","50","1659640","0.0-6.0-6.2","30","<p><img class= 'stimulus' src='images/baseline/05179v.jpg'></img></p>","null","","1550791385365","6","","","","","",""
"null","","html-keyboard-response","51","1659840","0.0-6.0-7.2","30","<p><img class= 'stimulus' src='images/baseline/04060v.jpg'></img></p>","null","","1550791385567","","","","","","",""
"null","","html-keyboard-response","52","1660040","0.0-6.0-8.2","30","<p><img class= 'stimulus' src='images/target/tree_2.jpg'></img></p>","null","","1550791385766","8","","","","","",""
"null","","html-keyboard-response","53","1660241","0.0-6.0-9.2","30","<p><img class= 'stimulus' src='images/baseline/05131v.jpg'></img></p>","null","","1550791385966","","","","","","",""
"null","","html-keyboard-response","54","1660440","0.0-6.0-10.2","30","<p><img class= 'stimulus' src='images/baseline/farmhouse1.jpg'></img></p>","null","","1550791386166","","","","","","",""
"null","","html-keyboard-response","55","1660640","0.0-6.0-11.2","30","<p><img class= 'stimulus' src='images/baseline/Beach 3.jpg'></img></p>","null","","1550791386366","","","","","","",""
"null","","html-keyboard-response","56","1660840","0.0-6.0-12.2","30","<p><img class= 'stimulus' src='images/baseline/agriculture-cereal-clouds-175389.jpg'></img></p>","null","","1550791386566","12","","","","","",""
"null","","html-keyboard-response","57","1661040","0.0-6.0-13.2","30","<p><img class= 'stimulus' src='images/baseline/Lake 13.jpg'></img></p>","null","","1550791386766","","","","","","",""
"null","","html-keyboard-response","58","1661240","0.0-6.0-14.2","30","<p><img class= 'stimulus' src='images/baseline/landscape2.jpg'></img></p>","null","","1550791386966","14","","","","","",""
"null","","html-keyboard-response","59","1661440","0.0-6.0-15.2","30","<p><img class= 'stimulus' src='images/baseline/red-rocks-park.jpg'></img></p>","null","","1550791387167","","","","","","",""
"null","","html-keyboard-response","60","1661642","0.0-6.0-16.2","30","<p><img class= 'stimulus' src='images/baseline/house2.jpg'></img></p>","null","","1550791387368","","","","","","",""
"null","","html-keyboard-response","61","1661857","0.0-6.0-17.2","30","<p><img class= 'stimulus' src='images/baseline/snowy tree.jpg'></img></p>","null","","1550791387568","","","","","","",""
"1276.3999999733642","","html-button-response","62","1664140","0.0-6.0-18.2","30","<div class = ""response_question"">WAS THE IMAGE ROTATED...</div>","","3","","","6","2","bas","right","practice","true"
"1046.2999999872409","","html-button-response","63","1665187","0.0-6.0-0.3","30","","","0","","","","","","","",""
"null","","html-keyboard-response","64","1665373","0.0-6.0-1.3","30","<p><img class= 'stimulus' src='images/baseline/lone-old-cottonwood-tree.jpg'></img></p>","null","","1550791391100","","","","","","",""
"null","","html-keyboard-response","65","1665573","0.0-6.0-2.3","30","<p><img class= 'stimulus' src='images/baseline/04098v.jpg'></img></p>","null","","1550791391299","","","","","","",""
"null","","html-keyboard-response","66","1665773","0.0-6.0-3.3","30","<p><img class= 'stimulus' src='images/baseline/landscape6.jpg'></img></p>","null","","1550791391500","","","","","","",""
"null","","html-keyboard-response","67","1665974","0.0-6.0-4.3","30","<p><img class= 'stimulus' src='images/baseline/Street 3.jpg'></img></p>","null","","1550791391701","4","","","","","",""
"null","","html-keyboard-response","68","1666173","0.0-6.0-5.3","30","<p><img class= 'stimulus' src='images/baseline/Linden,_paysage.jpg'></img></p>","null","","1550791391899","","","","","","",""
"null","","html-keyboard-response","69","1666372","0.0-6.0-6.3","30","<p><img class= 'stimulus' src='images/baseline/04222v.jpg'></img></p>","null","","1550791392100","6","","","","","",""
"null","","html-keyboard-response","70","1666573","0.0-6.0-7.3","30","<p><img class= 'stimulus' src='images/baseline/building8.jpg'></img></p>","null","","1550791392300","","","","","","",""
"null","","html-keyboard-response","71","1666773","0.0-6.0-8.3","30","<p><img class= 'stimulus' src='images/baseline/house7.jpg'></img></p>","null","","1550791392499","8","","","","","",""
"null","","html-keyboard-response","72","1666973","0.0-6.0-9.3","30","<p><img class= 'stimulus' src='images/baseline/pexels-photo-808465.jpeg'></img></p>","null","","1550791392699","","","","","","",""
"null","","html-keyboard-response","73","1667174","0.0-6.0-10.3","30","<p><img class= 'stimulus' src='images/baseline/farmhouse11.jpg'></img></p>","null","","1550791392900","","","","","","",""
"null","","html-keyboard-response","74","1667374","0.0-6.0-11.3","30","<p><img class= 'stimulus' src='images/baseline/05198v.jpg'></img></p>","null","","1550791393100","","","","","","",""
"null","","html-keyboard-response","75","1667572","0.0-6.0-12.3","30","<p><img class= 'stimulus' src='images/target/pexels-photo-1534411.jpeg'></img></p>","null","","1550791393300","12","","","","","",""
"null","","html-keyboard-response","76","1667774","0.0-6.0-13.3","30","<p><img class= 'stimulus' src='images/baseline/valley 1.jpg'></img></p>","null","","1550791393500","","","","","","",""
"null","","html-keyboard-response","77","1667974","0.0-6.0-14.3","30","<p><img class= 'stimulus' src='images/baseline/house10.jpg'></img></p>","null","","1550791393700","14","","","","","",""
"null","","html-keyboard-response","78","1668173","0.0-6.0-15.3","30","<p><img class= 'stimulus' src='images/baseline/farmhouse3.jpg'></img></p>","null","","1550791393901","","","","","","",""
"null","","html-keyboard-response","79","1668374","0.0-6.0-16.3","30","<p><img class= 'stimulus' src='images/baseline/05158v.jpg'></img></p>","null","","1550791394100","","","","","","",""
"null","","html-keyboard-response","80","1668590","0.0-6.0-17.3","30","<p><img class= 'stimulus' src='images/baseline/05189v.jpg'></img></p>","null","","1550791394300","","","","","","",""
"1336.4999999757856","","html-button-response","81","1670932","0.0-6.0-18.3","30","<div class = ""response_question"">WAS THE IMAGE ROTATED...</div>","","3","","","4","8","bas","right","practice","true"
"1790.000000037253","","html-button-response","82","1672724","0.0-6.0-0.4","30","","","0","","","","","","","",""
"null","","html-keyboard-response","83","1672856","0.0-6.0-1.4","30","<p><img class= 'stimulus' src='images/baseline/geese-flying-over-lake-at-dusk.jpg'></img></p>","null","","1550791398633","","","","","","",""
"null","","html-keyboard-response","84","1673006","0.0-6.0-2.4","30","<p><img class= 'stimulus' src='images/baseline/Nature 2.jpg'></img></p>","null","","1550791398782","","","","","","",""
"null","","html-keyboard-response","85","1673155","0.0-6.0-3.4","30","<p><img class= 'stimulus' src='images/baseline/pexels-photo-750108.jpeg'></img></p>","null","","1550791398932","","","","","","",""
"null","","html-keyboard-response","86","1673305","0.0-6.0-4.4","30","<p><img class= 'stimulus' src='images/baseline/04229v.jpg'></img></p>","null","","1550791399082","4","","","","","",""
"null","","html-keyboard-response","87","1673455","0.0-6.0-5.4","30","<p><img class= 'stimulus' src='images/baseline/Sky 1.jpg'></img></p>","null","","1550791399232","","","","","","",""
"null","","html-keyboard-response","88","1673607","0.0-6.0-6.4","30","<p><img class= 'stimulus' src='images/target/building5.jpg'></img></p>","null","","1550791399383","6","","","","","",""
"null","","html-keyboard-response","89","1673756","0.0-6.0-7.4","30","<p><img class= 'stimulus' src='images/baseline/kokkari-1523011968Xfr.jpg'></img></p>","null","","1550791399532","","","","","","",""
"null","","html-keyboard-response","90","1673905","0.0-6.0-8.4","30","<p><img class= 'stimulus' src='images/baseline/architecture-1314416_1920.jpg'></img></p>","null","","1550791399682","8","","","","","",""
"null","","html-keyboard-response","91","1674057","0.0-6.0-9.4","30","<p><img class= 'stimulus' src='images/baseline/Happy pose 3.jpg'></img></p>","null","","1550791399832","","","","","","",""
"null","","html-keyboard-response","92","1674205","0.0-6.0-10.4","30","<p><img class= 'stimulus' src='images/baseline/Niinsaare_jarv.jpg'></img></p>","null","","1550791399982","","","","","","",""
"null","","html-keyboard-response","93","1674355","0.0-6.0-11.4","30","<p><img class= 'stimulus' src='images/baseline/landscape39.jpg'></img></p>","null","","1550791400132","","","","","","",""
"null","","html-keyboard-response","94","1674505","0.0-6.0-12.4","30","<p><img class= 'stimulus' src='images/baseline/red rocks from afar.jpg'></img></p>","null","","1550791400281","12","","","","","",""
"null","","html-keyboard-response","95","1674655","0.0-6.0-13.4","30","<p><img class= 'stimulus' src='images/baseline/04064v.jpg'></img></p>","null","","1550791400431","","","","","","",""
"null","","html-keyboard-response","96","1674805","0.0-6.0-14.4","30","<p><img class= 'stimulus' src='images/baseline/04130v.jpg'></img></p>","null","","1550791400582","14","","","","","",""
"null","","html-keyboard-response","97","1674955","0.0-6.0-15.4","30","<p><img class= 'stimulus' src='images/baseline/05139v.jpg'></img></p>","null","","1550791400732","","","","","","",""
"null","","html-keyboard-response","98","1675104","0.0-6.0-16.4","30","<p><img class= 'stimulus' src='images/baseline/seoul-410266_1920.jpg'></img></p>","null","","1550791400883","","","","","","",""
"null","","html-keyboard-response","99","1675271","0.0-6.0-17.4","30","<p><img class= 'stimulus' src='images/baseline/Nature 1.jpg'></img></p>","null","","1550791401031","","","","","","",""
"1166.1999999778345","","html-button-response","100","1677435","0.0-6.0-18.4","30","<div class = ""response_question"">WAS THE IMAGE ROTATED...</div>","","3","","","4","2","bas","right","practice","true"
"998.1999999727122","","html-button-response","101","1678434","0.0-6.0-0.5","30","","","0","","","","","","","",""
"null","","html-keyboard-response","102","1678563","0.0-6.0-1.5","30","<p><img class= 'stimulus' src='images/baseline/02962v.jpg'></img></p>","null","","1550791404338","","","","","","",""
"null","","html-keyboard-response","103","1678713","0.0-6.0-2.5","30","<p><img class= 'stimulus' src='images/baseline/landscape34.jpg'></img></p>","null","","1550791404489","","","","","","",""
"null","","html-keyboard-response","104","1678862","0.0-6.0-3.5","30","<p><img class= 'stimulus' src='images/baseline/Camping 10.jpg'></img></p>","null","","1550791404639","","","","","","",""
"null","","html-keyboard-response","105","1679012","0.0-6.0-4.5","30","<p><img class= 'stimulus' src='images/baseline/04063v.jpg'></img></p>","null","","1550791404789","4","","","","","",""
"null","","html-keyboard-response","106","1679162","0.0-6.0-5.5","30","<p><img class= 'stimulus' src='images/baseline/landscape17.jpg'></img></p>","null","","1550791404939","","","","","","",""
"null","","html-keyboard-response","107","1679312","0.0-6.0-6.5","30","<p><img class= 'stimulus' src='images/baseline/Sailing 3.jpg'></img></p>","null","","1550791405089","6","","","","","",""
"null","","html-keyboard-response","108","1679462","0.0-6.0-7.5","30","<p><img class= 'stimulus' src='images/baseline/Lake 7.jpg'></img></p>","null","","1550791405239","","","","","","",""
"null","","html-keyboard-response","109","1679612","0.0-6.0-8.5","30","<p><img class= 'stimulus' src='images/baseline/building12.jpg'></img></p>","null","","1550791405389","8","","","","","",""
"null","","html-keyboard-response","110","1679763","0.0-6.0-9.5","30","<p><img class= 'stimulus' src='images/baseline/04021v.jpg'></img></p>","null","","1550791405540","","","","","","",""
"null","","html-keyboard-response","111","1679912","0.0-6.0-10.5","30","<p><img class= 'stimulus' src='images/baseline/99_-_Machu_Picchu_-_Juin_2009.edit3.jpg'></img></p>","null","","1550791405689","","","","","","",""
"null","","html-keyboard-response","112","1680062","0.0-6.0-11.5","30","<p><img class= 'stimulus' src='images/baseline/landscape36.jpg'></img></p>","null","","1550791405840","","","","","","",""
"null","","html-keyboard-response","113","1680212","0.0-6.0-12.5","30","<p><img class= 'stimulus' src='images/baseline/pexels-photo-59321.jpeg'></img></p>","null","","1550791405989","12","","","","","",""
"null","","html-keyboard-response","114","1680362","0.0-6.0-13.5","30","<p><img class= 'stimulus' src='images/baseline/04300v.jpg'></img></p>","null","","1550791406139","","","","","","",""
"null","","html-keyboard-response","115","1680512","0.0-6.0-14.5","30","<p><img class= 'stimulus' src='images/target/building2.jpg'></img></p>","null","","1550791406288","14","","","","","",""
"null","","html-keyboard-response","116","1680662","0.0-6.0-15.5","30","<p><img class= 'stimulus' src='images/baseline/03217v.jpg'></img></p>","null","","1550791406438","","","","","","",""
"null","","html-keyboard-response","117","1680813","0.0-6.0-16.5","30","<p><img class= 'stimulus' src='images/baseline/landscape29.jpg'></img></p>","null","","1550791406588","","","","","","",""
"null","","html-keyboard-response","118","1680979","0.0-6.0-17.5","30","<p><img class= 'stimulus' src='images/baseline/Sidewalk 4.jpg'></img></p>","null","","1550791406739","","","","","","",""
"1492.3000000417233","","html-button-response","119","1683475","0.0-6.0-18.5","30","<div class = ""response_question"">WAS THE IMAGE ROTATED...</div>","","3","","","6","8","bas","right","practice","true"
"1190.3000000165775","","html-button-response","120","1684666","0.0-6.0-0.6","30","","","0","","","","","","","",""
"null","","html-keyboard-response","121","1684795","0.0-6.0-1.6","30","<p><img class= 'stimulus' src='images/baseline/landscape4.jpg'></img></p>","null","","1550791410572","","","","","","",""
"null","","html-keyboard-response","122","1684945","0.0-6.0-2.6","30","<p><img class= 'stimulus' src='images/baseline/04014v.jpg'></img></p>","null","","1550791410722","","","","","","",""
"null","","html-keyboard-response","123","1685095","0.0-6.0-3.6","30","<p><img class= 'stimulus' src='images/baseline/pexels-photo-894312.jpeg'></img></p>","null","","1550791410871","","","","","","",""
"null","","html-keyboard-response","124","1685246","0.0-6.0-4.6","30","<p><img class= 'stimulus' src='images/baseline/flooded-bridge.jpg'></img></p>","null","","1550791411022","4","","","","","",""
"null","","html-keyboard-response","125","1685396","0.0-6.0-5.6","30","<p><img class= 'stimulus' src='images/baseline/4k-wallpaper-agriculture-clouds-842711.jpg'></img></p>","null","","1550791411171","","","","","","",""
"null","","html-keyboard-response","126","1685545","0.0-6.0-6.6","30","<p><img class= 'stimulus left-rotate' src='images/target/shotstash_0036-1-1100x734.jpg'></img></p>","null","","1550791411322","6","","","","","",""
"null","","html-keyboard-response","127","1685695","0.0-6.0-7.6","30","<p><img class= 'stimulus' src='images/baseline/landscape12.jpg'></img></p>","null","","1550791411472","","","","","","",""
"null","","html-keyboard-response","128","1685846","0.0-6.0-8.6","30","<p><img class= 'stimulus' src='images/baseline/02988v.jpg'></img></p>","null","","1550791411622","8","","","","","",""
"null","","html-keyboard-response","129","1685995","0.0-6.0-9.6","30","<p><img class= 'stimulus' src='images/baseline/field 2.jpg'></img></p>","null","","1550791411772","","","","","","",""
"null","","html-keyboard-response","130","1686145","0.0-6.0-10.6","30","<p><img class= 'stimulus' src='images/baseline/pexels-photo-414491.jpeg'></img></p>","null","","1550791411921","","","","","","",""
"null","","html-keyboard-response","131","1686296","0.0-6.0-11.6","30","<p><img class= 'stimulus' src='images/baseline/agriculture-bright-clouds-440731.jpg'></img></p>","null","","1550791412071","","","","","","",""
"null","","html-keyboard-response","132","1686445","0.0-6.0-12.6","30","<p><img class= 'stimulus' src='images/baseline/03201v.jpg'></img></p>","null","","1550791412222","12","","","","","",""
"null","","html-keyboard-response","133","1686596","0.0-6.0-13.6","30","<p><img class= 'stimulus' src='images/baseline/Street 5.jpg'></img></p>","null","","1550791412372","","","","","","",""
"null","","html-keyboard-response","134","1686746","0.0-6.0-14.6","30","<p><img class= 'stimulus' src='images/baseline/sun-through-winter-tree-branches1.jpg'></img></p>","null","","1550791412521","14","","","","","",""
"null","","html-keyboard-response","135","1686895","0.0-6.0-15.6","30","<p><img class= 'stimulus' src='images/baseline/landscape15.jpg'></img></p>","null","","1550791412672","","","","","","",""
"null","","html-keyboard-response","136","1687045","0.0-6.0-16.6","30","<p><img class= 'stimulus' src='images/baseline/Dock 1.jpg'></img></p>","null","","1550791412823","","","","","","",""
"null","","html-keyboard-response","137","1687212","0.0-6.0-17.6","30","<p><img class= 'stimulus' src='images/baseline/Paysage_karabagh_02.jpg'></img></p>","null","","1550791412971","","","","","","",""
"1116.2000000476837","","html-button-response","138","1689339","0.0-6.0-18.6","30","<div class = ""response_question"">WAS THE IMAGE ROTATED...</div>","","0","","","4","2","bas","left","practice","true"
"1054.3000000179745","","html-button-response","139","1690394","0.0-6.0-0.7","30","","","0","","","","","","","",""
"null","","html-keyboard-response","140","1690528","0.0-6.0-1.7","30","<p><img class= 'stimulus' src='images/baseline/03180v.jpg'></img></p>","null","","1550791416306","","","","","","",""
"null","","html-keyboard-response","141","1690678","0.0-6.0-2.7","30","<p><img class= 'stimulus' src='images/baseline/agriculture-countryside-crop-259280.jpg'></img></p>","null","","1550791416456","","","","","","",""
"null","","html-keyboard-response","142","1690828","0.0-6.0-3.7","30","<p><img class= 'stimulus' src='images/baseline/03148v.jpg'></img></p>","null","","1550791416605","","","","","","",""
"null","","html-keyboard-response","143","1690979","0.0-6.0-4.7","30","<p><img class= 'stimulus' src='images/baseline/architecture-956332_1280.jpg'></img></p>","null","","1550791416754","4","","","","","",""
"null","","html-keyboard-response","144","1691129","0.0-6.0-5.7","30","<p><img class= 'stimulus' src='images/baseline/pexels-photo-568236.jpeg'></img></p>","null","","1550791416905","","","","","","",""
"null","","html-keyboard-response","145","1691280","0.0-6.0-6.7","30","<p><img class= 'stimulus' src='images/baseline/landscape33.jpg'></img></p>","null","","1550791417056","6","","","","","",""
"null","","html-keyboard-response","146","1691430","0.0-6.0-7.7","30","<p><img class= 'stimulus' src='images/baseline/building9.jpg'></img></p>","null","","1550791417206","","","","","","",""
"null","","html-keyboard-response","147","1691579","0.0-6.0-8.7","30","<p><img class= 'stimulus' src='images/baseline/__08_-_ITALY_-_Forli_under_snow_-_winter_landscape_of_city_(christmas).jpg'></img></p>","null","","1550791417355","8","","","","","",""
"null","","html-keyboard-response","148","1691728","0.0-6.0-9.7","30","<p><img class= 'stimulus' src='images/baseline/04201v.jpg'></img></p>","null","","1550791417507","","","","","","",""
"null","","html-keyboard-response","149","1691878","0.0-6.0-10.7","30","<p><img class= 'stimulus' src='images/baseline/hiking-trail.jpg'></img></p>","null","","1550791417656","","","","","","",""
"null","","html-keyboard-response","150","1692029","0.0-6.0-11.7","30","<p><img class= 'stimulus' src='images/baseline/Desert_View_Indian_Wells.jpg'></img></p>","null","","1550791417804","","","","","","",""
"null","","html-keyboard-response","151","1692178","0.0-6.0-12.7","30","<p><img class= 'stimulus' src='images/baseline/pexels-photo-1837621.jpeg'></img></p>","null","","1550791417955","12","","","","","",""
"null","","html-keyboard-response","152","1692329","0.0-6.0-13.7","30","<p><img class= 'stimulus' src='images/baseline/02960v.jpg'></img></p>","null","","1550791418105","","","","","","",""
"null","","html-keyboard-response","153","1692479","0.0-6.0-14.7","30","<p><img class= 'stimulus left-rotate' src='images/target/skyscraper-3855012_640.jpg'></img></p>","null","","1550791418255","14","","","","","",""
"null","","html-keyboard-response","154","1692628","0.0-6.0-15.7","30","<p><img class= 'stimulus' src='images/baseline/pexels-photo-427676.jpeg'></img></p>","null","","1550791418405","","","","","","",""
"null","","html-keyboard-response","155","1692779","0.0-6.0-16.7","30","<p><img class= 'stimulus' src='images/baseline/pexels-photo-259280.jpeg'></img></p>","null","","1550791418555","","","","","","",""
"null","","html-keyboard-response","156","1692945","0.0-6.0-17.7","30","<p><img class= 'stimulus' src='images/baseline/05292v.jpg'></img></p>","null","","1550791418706","","","","","","",""
"1652.6999999769032","","html-button-response","157","1695602","0.0-6.0-18.7","30","<div class = ""response_question"">WAS THE IMAGE ROTATED...</div>","","0","","","6","8","bas","left","practice","true"
"1494.3000000203028","","html-button-response","158","1697098","0.0-6.0-0.8","30","","","0","","","","","","","",""
"null","","html-keyboard-response","159","1697179","0.0-6.0-1.8","30","<p><img class= 'stimulus' src='images/baseline/Dirt 2.jpg'></img></p>","null","","1550791423005","","","","","","",""
"null","","html-keyboard-response","160","1697280","0.0-6.0-2.8","30","<p><img class= 'stimulus' src='images/baseline/Road 1.jpg'></img></p>","null","","1550791423106","","","","","","",""
"null","","html-keyboard-response","161","1697379","0.0-6.0-3.8","30","<p><img class= 'stimulus' src='images/baseline/road.jpg'></img></p>","null","","1550791423206","","","","","","",""
"null","","html-keyboard-response","162","1697478","0.0-6.0-4.8","30","<p><img class= 'stimulus' src='images/baseline/Kocherbaumwald-01.jpg'></img></p>","null","","1550791423305","4","","","","","",""
"null","","html-keyboard-response","163","1697579","0.0-6.0-5.8","30","<p><img class= 'stimulus' src='images/baseline/landscape7.jpg'></img></p>","null","","1550791423404","","","","","","",""
"null","","html-keyboard-response","164","1697679","0.0-6.0-6.8","30","<p><img class= 'stimulus' src='images/baseline/Sunset 6.jpg'></img></p>","null","","1550791423505","6","","","","","",""
"null","","html-keyboard-response","165","1697779","0.0-6.0-7.8","30","<p><img class= 'stimulus' src='images/baseline/Beach 8.jpg'></img></p>","null","","1550791423605","","","","","","",""
"null","","html-keyboard-response","166","1697879","0.0-6.0-8.8","30","<p><img class= 'stimulus' src='images/baseline/landscape23.jpg'></img></p>","null","","1550791423706","8","","","","","",""
"null","","html-keyboard-response","167","1697979","0.0-6.0-9.8","30","<p><img class= 'stimulus' src='images/baseline/house3.jpg'></img></p>","null","","1550791423806","","","","","","",""
"null","","html-keyboard-response","168","1698080","0.0-6.0-10.8","30","<p><img class= 'stimulus' src='images/baseline/04284v.jpg'></img></p>","null","","1550791423905","","","","","","",""
"null","","html-keyboard-response","169","1698180","0.0-6.0-11.8","30","<p><img class= 'stimulus' src='images/baseline/05161v.jpg'></img></p>","null","","1550791424005","","","","","","",""
"null","","html-keyboard-response","170","1698278","0.0-6.0-12.8","30","<p><img class= 'stimulus' src='images/target/Wild-West-South-West-Usa-Landscape-America-1663497.jpg'></img></p>","null","","1550791424106","12","","","","","",""
"null","","html-keyboard-response","171","1698379","0.0-6.0-13.8","30","<p><img class= 'stimulus' src='images/baseline/pexels-photo-440731.jpeg'></img></p>","null","","1550791424206","","","","","","",""
"null","","html-keyboard-response","172","1698479","0.0-6.0-14.8","30","<p><img class= 'stimulus' src='images/baseline/Lake 4.jpg'></img></p>","null","","1550791424306","14","","","","","",""
"null","","html-keyboard-response","173","1698578","0.0-6.0-15.8","30","<p><img class= 'stimulus' src='images/baseline/hills 1.jpg'></img></p>","null","","1550791424405","","","","","","",""
"null","","html-keyboard-response","174","1698679","0.0-6.0-16.8","30","<p><img class= 'stimulus' src='images/baseline/lookout_tower.jpg'></img></p>","null","","1550791424505","","","","","","",""
"null","","html-keyboard-response","175","1698796","0.0-6.0-17.8","30","<p><img class= 'stimulus' src='images/baseline/02982v.jpg'></img></p>","null","","1550791424605","","","","","","",""
"1281.1999999685213","","html-button-response","176","1701083","0.0-6.0-18.8","30","<div class = ""response_question"">WAS THE IMAGE ROTATED...</div>","","3","","","4","8","bas","right","practice","true"
"990.300000004936","","html-button-response","177","1702075","0.0-6.0-0.9","30","","","0","","","","","","","",""
"null","","html-keyboard-response","178","1702163","0.0-6.0-1.9","30","<p><img class= 'stimulus' src='images/baseline/sunny-landscape-with-dry-brush-and-mountain-background.jpg'></img></p>","null","","1550791427990","","","","","","",""
"null","","html-keyboard-response","179","1702262","0.0-6.0-2.9","30","<p><img class= 'stimulus' src='images/baseline/Street 4.jpg'></img></p>","null","","1550791428089","","","","","","",""
"null","","html-keyboard-response","180","1702362","0.0-6.0-3.9","30","<p><img class= 'stimulus' src='images/baseline/Sunset 4.jpg'></img></p>","null","","1550791428189","","","","","","",""
"null","","html-keyboard-response","181","1702463","0.0-6.0-4.9","30","<p><img class= 'stimulus' src='images/baseline/landscape16.jpg'></img></p>","null","","1550791428289","4","","","","","",""
"null","","html-keyboard-response","182","1702562","0.0-6.0-5.9","30","<p><img class= 'stimulus' src='images/baseline/Sunset 5.jpg'></img></p>","null","","1550791428390","","","","","","",""
"null","","html-keyboard-response","183","1702662","0.0-6.0-6.9","30","<p><img class= 'stimulus left-rotate' src='images/target/building4.jpg'></img></p>","null","","1550791428489","6","","","","","",""
"null","","html-keyboard-response","184","1702762","0.0-6.0-7.9","30","<p><img class= 'stimulus' src='images/baseline/02945v.jpg'></img></p>","null","","1550791428589","","","","","","",""
"null","","html-keyboard-response","185","1702862","0.0-6.0-8.9","30","<p><img class= 'stimulus' src='images/baseline/pexels-photo-280222.jpeg'></img></p>","null","","1550791428688","8","","","","","",""
"null","","html-keyboard-response","186","1702962","0.0-6.0-9.9","30","<p><img class= 'stimulus' src='images/baseline/05279v.jpg'></img></p>","null","","1550791428789","","","","","","",""
"null","","html-keyboard-response","187","1703063","0.0-6.0-10.9","30","<p><img class= 'stimulus' src='images/baseline/05167v.jpg'></img></p>","null","","1550791428888","","","","","","",""
"null","","html-keyboard-response","188","1703162","0.0-6.0-11.9","30","<p><img class= 'stimulus' src='images/baseline/Skyscraper 2.jpg'></img></p>","null","","1550791428990","","","","","","",""
"null","","html-keyboard-response","189","1703262","0.0-6.0-12.9","30","<p><img class= 'stimulus' src='images/baseline/04040v.jpg'></img></p>","null","","1550791429089","12","","","","","",""
"null","","html-keyboard-response","190","1703363","0.0-6.0-13.9","30","<p><img class= 'stimulus' src='images/baseline/tennis-court-net-buried-in-snow.jpg'></img></p>","null","","1550791429190","","","","","","",""
"null","","html-keyboard-response","191","1703461","0.0-6.0-14.9","30","<p><img class= 'stimulus' src='images/baseline/Street 2.jpg'></img></p>","null","","1550791429289","14","","","","","",""
"null","","html-keyboard-response","192","1703563","0.0-6.0-15.9","30","<p><img class= 'stimulus' src='images/baseline/pexels-photo-1048039.jpeg'></img></p>","null","","1550791429389","","","","","","",""
"null","","html-keyboard-response","193","1703662","0.0-6.0-16.9","30","<p><img class= 'stimulus' src='images/baseline/lake 2.jpg'></img></p>","null","","1550791429489","","","","","","",""
"null","","html-keyboard-response","194","1703779","0.0-6.0-17.9","30","<p><img class= 'stimulus' src='images/baseline/Freudenberg_sg_Switzerland.jpg'></img></p>","null","","1550791429589","","","","","","",""
"963.1999999983236","","html-button-response","195","1705747","0.0-6.0-18.9","30","<div class = ""response_question"">WAS THE IMAGE ROTATED...</div>","","0","","","4","2","bas","left","practice","true"
"1438.6000000522472","","html-button-response","196","1707186","0.0-6.0-0.10","30","","","0","","","","","","","",""
"null","","html-keyboard-response","197","1707263","0.0-6.0-1.10","30","<p><img class= 'stimulus' src='images/baseline/landscape19.jpg'></img></p>","null","","1550791433089","","","","","","",""
"null","","html-keyboard-response","198","1707363","0.0-6.0-2.10","30","<p><img class= 'stimulus' src='images/baseline/05186v.jpg'></img></p>","null","","1550791433188","","","","","","",""
"null","","html-keyboard-response","199","1707462","0.0-6.0-3.10","30","<p><img class= 'stimulus' src='images/baseline/dirt-road-or-trail-through-park.jpg'></img></p>","null","","1550791433289","","","","","","",""
"null","","html-keyboard-response","200","1707562","0.0-6.0-4.10","30","<p><img class= 'stimulus' src='images/baseline/03066v.jpg'></img></p>","null","","1550791433390","4","","","","","",""
"null","","html-keyboard-response","201","1707663","0.0-6.0-5.10","30","<p><img class= 'stimulus' src='images/baseline/03114v.jpg'></img></p>","null","","1550791433489","","","","","","",""
"null","","html-keyboard-response","202","1707762","0.0-6.0-6.10","30","<p><img class= 'stimulus' src='images/baseline/landscape14.jpg'></img></p>","null","","1550791433590","6","","","","","",""
"null","","html-keyboard-response","203","1707862","0.0-6.0-7.10","30","<p><img class= 'stimulus' src='images/baseline/Peyto_Lake-Banff_NP-Canada.jpg'></img></p>","null","","1550791433689","","","","","","",""
"null","","html-keyboard-response","204","1707962","0.0-6.0-8.10","30","<p><img class= 'stimulus' src='images/baseline/town-square-in-wroclaw-1539098440MZy.jpg'></img></p>","null","","1550791433789","8","","","","","",""
"null","","html-keyboard-response","205","1708062","0.0-6.0-9.10","30","<p><img class= 'stimulus' src='images/baseline/04179v.jpg'></img></p>","null","","1550791433888","","","","","","",""
"null","","html-keyboard-response","206","1708163","0.0-6.0-10.10","30","<p><img class= 'stimulus' src='images/baseline/autumn-in-red-rocks-park.jpg'></img></p>","null","","1550791433990","","","","","","",""
"null","","html-keyboard-response","207","1708262","0.0-6.0-11.10","30","<p><img class= 'stimulus' src='images/baseline/Sunset 3.jpg'></img></p>","null","","1550791434090","","","","","","",""
"null","","html-keyboard-response","208","1708362","0.0-6.0-12.10","30","<p><img class= 'stimulus left-rotate' src='images/target/lookout_tower.jpg'></img></p>","null","","1550791434189","12","","","","","",""
"null","","html-keyboard-response","209","1708462","0.0-6.0-13.10","30","<p><img class= 'stimulus' src='images/baseline/pexels-photo-534164.jpeg'></img></p>","null","","1550791434289","","","","","","",""
"null","","html-keyboard-response","210","1708562","0.0-6.0-14.10","30","<p><img class= 'stimulus' src='images/baseline/Lake 3.jpg'></img></p>","null","","1550791434390","14","","","","","",""
"null","","html-keyboard-response","211","1708662","0.0-6.0-15.10","30","<p><img class= 'stimulus' src='images/baseline/farmhouse8.jpg'></img></p>","null","","1550791434489","","","","","","",""
"null","","html-keyboard-response","212","1708763","0.0-6.0-16.10","30","<p><img class= 'stimulus' src='images/baseline/trees 23.jpg'></img></p>","null","","1550791434589","","","","","","",""
"null","","html-keyboard-response","213","1708878","0.0-6.0-17.10","30","<p><img class= 'stimulus' src='images/baseline/04062v.jpg'></img></p>","null","","1550791434689","","","","","","",""
"1415.1999999885447","","html-button-response","214","1711298","0.0-6.0-18.10","30","<div class = ""response_question"">WAS THE IMAGE ROTATED...</div>","","0","","","4","8","bas","left","practice","true"
"790.2999999932945","","html-button-response","215","1712091","0.0-6.0-0.11","30","","","0","","","","","","","",""
"null","","html-keyboard-response","216","1712163","0.0-6.0-1.11","30","<p><img class= 'stimulus' src='images/baseline/landscape38.jpg'></img></p>","null","","1550791437988","","","","","","",""
"null","","html-keyboard-response","217","1712263","0.0-6.0-2.11","30","<p><img class= 'stimulus' src='images/baseline/pexels-photo-1840893.jpeg'></img></p>","null","","1550791438090","","","","","","",""
"null","","html-keyboard-response","218","1712363","0.0-6.0-3.11","30","<p><img class= 'stimulus' src='images/baseline/03041v.jpg'></img></p>","null","","1550791438188","","","","","","",""
"null","","html-keyboard-response","219","1712462","0.0-6.0-4.11","30","<p><img class= 'stimulus' src='images/baseline/Waterfall 1.jpg'></img></p>","null","","1550791438289","4","","","","","",""
"null","","html-keyboard-response","220","1712563","0.0-6.0-5.11","30","<p><img class= 'stimulus' src='images/baseline/Lake 9.jpg'></img></p>","null","","1550791438389","","","","","","",""
"null","","html-keyboard-response","221","1712663","0.0-6.0-6.11","30","<p><img class= 'stimulus' src='images/baseline/cyrillic.jpg'></img></p>","null","","1550791438489","6","","","","","",""
"null","","html-keyboard-response","222","1712762","0.0-6.0-7.11","30","<p><img class= 'stimulus' src='images/baseline/Cold 7.jpg'></img></p>","null","","1550791438590","","","","","","",""
"null","","html-keyboard-response","223","1712862","0.0-6.0-8.11","30","<p><img class= 'stimulus' src='images/baseline/landscape8.jpg'></img></p>","null","","1550791438688","8","","","","","",""
"null","","html-keyboard-response","224","1712962","0.0-6.0-9.11","30","<p><img class= 'stimulus' src='images/baseline/05242v.jpg'></img></p>","null","","1550791438788","","","","","","",""
"null","","html-keyboard-response","225","1713062","0.0-6.0-10.11","30","<p><img class= 'stimulus' src='images/baseline/05247v.jpg'></img></p>","null","","1550791438890","","","","","","",""
"null","","html-keyboard-response","226","1713163","0.0-6.0-11.11","30","<p><img class= 'stimulus' src='images/baseline/Beach 2.jpg'></img></p>","null","","1550791438988","","","","","","",""
"null","","html-keyboard-response","227","1713263","0.0-6.0-12.11","30","<p><img class= 'stimulus' src='images/baseline/02971v.jpg'></img></p>","null","","1550791439089","12","","","","","",""
"null","","html-keyboard-response","228","1713363","0.0-6.0-13.11","30","<p><img class= 'stimulus' src='images/baseline/landscape40.jpg'></img></p>","null","","1550791439188","","","","","","",""
"null","","html-keyboard-response","229","1713463","0.0-6.0-14.11","30","<p><img class= 'stimulus left-rotate' src='images/target/torrotito-375925_640.jpg'></img></p>","null","","1550791439288","14","","","","","",""
"null","","html-keyboard-response","230","1713562","0.0-6.0-15.11","30","<p><img class= 'stimulus' src='images/baseline/building2.jpg'></img></p>","null","","1550791439389","","","","","","",""
"null","","html-keyboard-response","231","1713662","0.0-6.0-16.11","30","<p><img class= 'stimulus' src='images/baseline/cranes 1.jpg'></img></p>","null","","1550791439489","","","","","","",""
"null","","html-keyboard-response","232","1713780","0.0-6.0-17.11","30","<p><img class= 'stimulus' src='images/baseline/road 1(1).jpg'></img></p>","null","","1550791439590","","","","","","",""
"1859.500000020489","","html-button-response","233","1716642","0.0-6.0-18.11","30","<div class = ""response_question"">WAS THE IMAGE ROTATED...</div>","","0","","","6","8","bas","left","practice","true"
"1118.6000000452623","","html-button-response","234","1717762","0.0-6.0-0.12","30","","","0","","","","","","","",""
"null","","html-keyboard-response","235","1717845","0.0-6.0-1.12","30","<p><img class= 'stimulus' src='images/baseline/landscape22.jpg'></img></p>","null","","1550791443673","","","","","","",""
"null","","html-keyboard-response","236","1717946","0.0-6.0-2.12","30","<p><img class= 'stimulus' src='images/baseline/05145v.jpg'></img></p>","null","","1550791443773","","","","","","",""
"null","","html-keyboard-response","237","1718046","0.0-6.0-3.12","30","<p><img class= 'stimulus' src='images/baseline/05240v.jpg'></img></p>","null","","1550791443872","","","","","","",""
"null","","html-keyboard-response","238","1718146","0.0-6.0-4.12","30","<p><img class= 'stimulus' src='images/baseline/Bahia_Onelli_Parque_Nacional_Los_Glaciares_Patagonia_Argentina_Luca_Galuzzi_2005.jpg'></img></p>","null","","1550791443972","4","","","","","",""
"null","","html-keyboard-response","239","1718246","0.0-6.0-5.12","30","<p><img class= 'stimulus' src='images/baseline/farmhouse9.jpg'></img></p>","null","","1550791444072","","","","","","",""
"null","","html-keyboard-response","240","1718346","0.0-6.0-6.12","30","<p><img class= 'stimulus' src='images/baseline/landscape11.jpg'></img></p>","null","","1550791444172","6","","","","","",""
"null","","html-keyboard-response","241","1718447","0.0-6.0-7.12","30","<p><img class= 'stimulus' src='images/baseline/grand-teton-mountains.jpg'></img></p>","null","","1550791444272","","","","","","",""
"null","","html-keyboard-response","242","1718545","0.0-6.0-8.12","30","<p><img class= 'stimulus' src='images/baseline/Lake 14.jpg'></img></p>","null","","1550791444374","8","","","","","",""
"null","","html-keyboard-response","243","1718645","0.0-6.0-9.12","30","<p><img class= 'stimulus' src='images/baseline/Street 1.jpg'></img></p>","null","","1550791444472","","","","","","",""
"null","","html-keyboard-response","244","1718746","0.0-6.0-10.12","30","<p><img class= 'stimulus' src='images/baseline/valley 2.jpg'></img></p>","null","","1550791444574","","","","","","",""
"null","","html-keyboard-response","245","1718846","0.0-6.0-11.12","30","<p><img class= 'stimulus' src='images/baseline/farmhouse2.jpg'></img></p>","null","","1550791444673","","","","","","",""
"null","","html-keyboard-response","246","1718946","0.0-6.0-12.12","30","<p><img class= 'stimulus' src='images/baseline/hills 3.jpg'></img></p>","null","","1550791444772","12","","","","","",""
"null","","html-keyboard-response","247","1719046","0.0-6.0-13.12","30","<p><img class= 'stimulus' src='images/baseline/autumn-landscape-with-lake-fall-trees-mountains.jpg'></img></p>","null","","1550791444871","","","","","","",""
"null","","html-keyboard-response","248","1719146","0.0-6.0-14.12","30","<p><img class= 'stimulus' src='images/target/pexels-photo-210683.jpeg'></img></p>","null","","1550791444972","14","","","","","",""
"null","","html-keyboard-response","249","1719246","0.0-6.0-15.12","30","<p><img class= 'stimulus' src='images/baseline/05303v.jpg'></img></p>","null","","1550791445072","","","","","","",""
"null","","html-keyboard-response","250","1719346","0.0-6.0-16.12","30","<p><img class= 'stimulus' src='images/baseline/church-silhouette-8712964986014Kb.jpg'></img></p>","null","","1550791445172","","","","","","",""
"null","","html-keyboard-response","251","1719463","0.0-6.0-17.12","30","<p><img class= 'stimulus' src='images/baseline/04086v.jpg'></img></p>","null","","1550791445272","","","","","","",""
"1270.7999999984168","","html-button-response","252","1721738","0.0-6.0-18.12","30","<div class = ""response_question"">WAS THE IMAGE ROTATED...</div>","","3","","","6","8","bas","right","practice","true"
"878.2999999821186","","html-button-response","253","1722618","0.0-6.0-0.13","30","","","0","","","","","","","",""
"null","","html-keyboard-response","254","1722696","0.0-6.0-1.13","30","<p><img class= 'stimulus' src='images/baseline/03212v.jpg'></img></p>","null","","1550791448523","","","","","","",""
"null","","html-keyboard-response","255","1722795","0.0-6.0-2.13","30","<p><img class= 'stimulus' src='images/baseline/farmhouse4.jpg'></img></p>","null","","1550791448623","","","","","","",""
"null","","html-keyboard-response","256","1722896","0.0-6.0-3.13","30","<p><img class= 'stimulus' src='images/baseline/05264v.jpg'></img></p>","null","","1550791448723","","","","","","",""
"null","","html-keyboard-response","257","1722996","0.0-6.0-4.13","30","<p><img class= 'stimulus' src='images/baseline/pexels-photo-541101.jpeg'></img></p>","null","","1550791448823","4","","","","","",""
"null","","html-keyboard-response","258","1723096","0.0-6.0-5.13","30","<p><img class= 'stimulus' src='images/baseline/Bridge 1.jpg'></img></p>","null","","1550791448922","","","","","","",""
"null","","html-keyboard-response","259","1723196","0.0-6.0-6.13","30","<p><img class= 'stimulus' src='images/baseline/02947v.jpg'></img></p>","null","","1550791449022","6","","","","","",""
"null","","html-keyboard-response","260","1723296","0.0-6.0-7.13","30","<p><img class= 'stimulus' src='images/baseline/lake 1.jpg'></img></p>","null","","1550791449122","","","","","","",""
"null","","html-keyboard-response","261","1723396","0.0-6.0-8.13","30","<p><img class= 'stimulus' src='images/target/lone-tree.png'></img></p>","null","","1550791449222","8","","","","","",""
"null","","html-keyboard-response","262","1723496","0.0-6.0-9.13","30","<p><img class= 'stimulus' src='images/baseline/pexels-photo-1287089.jpeg'></img></p>","null","","1550791449323","","","","","","",""
"null","","html-keyboard-response","263","1723596","0.0-6.0-10.13","30","<p><img class= 'stimulus' src='images/baseline/04196v.jpg'></img></p>","null","","1550791449422","","","","","","",""
"null","","html-keyboard-response","264","1723697","0.0-6.0-11.13","30","<p><img class= 'stimulus' src='images/baseline/house1.jpg'></img></p>","null","","1550791449522","","","","","","",""
"null","","html-keyboard-response","265","1723796","0.0-6.0-12.13","30","<p><img class= 'stimulus' src='images/baseline/pexels-photo-1054289.jpeg'></img></p>","null","","1550791449624","12","","","","","",""
"null","","html-keyboard-response","266","1723896","0.0-6.0-13.13","30","<p><img class= 'stimulus' src='images/baseline/03063v.jpg'></img></p>","null","","1550791449723","","","","","","",""
"null","","html-keyboard-response","267","1723995","0.0-6.0-14.13","30","<p><img class= 'stimulus' src='images/baseline/02977v.jpg'></img></p>","null","","1550791449823","14","","","","","",""
"null","","html-keyboard-response","268","1724096","0.0-6.0-15.13","30","<p><img class= 'stimulus' src='images/baseline/field 4.jpg'></img></p>","null","","1550791449922","","","","","","",""
"null","","html-keyboard-response","269","1724196","0.0-6.0-16.13","30","<p><img class= 'stimulus' src='images/baseline/foreclosed_home.jpg'></img></p>","null","","1550791450023","","","","","","",""
"null","","html-keyboard-response","270","1724312","0.0-6.0-17.13","30","<p><img class= 'stimulus' src='images/baseline/building4.jpg'></img></p>","null","","1550791450122","","","","","","",""
"1661.0999999684282","","html-button-response","271","1726979","0.0-6.0-18.13","30","<div class = ""response_question"">WAS THE IMAGE ROTATED...</div>","","3","","","6","2","bas","right","practice","true"
"1470.09999997681","","html-button-response","272","1728450","0.0-6.0-0.14","30","","","0","","","","","","","",""
"null","","html-keyboard-response","273","1728530","0.0-6.0-1.14","30","<p><img class= 'stimulus' src='images/baseline/house8.jpg'></img></p>","null","","1550791454356","","","","","","",""
"null","","html-keyboard-response","274","1728630","0.0-6.0-2.14","30","<p><img class= 'stimulus' src='images/baseline/03220v.jpg'></img></p>","null","","1550791454456","","","","","","",""
"null","","html-keyboard-response","275","1728729","0.0-6.0-3.14","30","<p><img class= 'stimulus' src='images/baseline/Paysage_enneige_02.jpg'></img></p>","null","","1550791454557","","","","","","",""
"null","","html-keyboard-response","276","1728830","0.0-6.0-4.14","30","<p><img class= 'stimulus' src='images/baseline/city-silhouette-at-sunset-871291580819Esw.jpg'></img></p>","null","","1550791454656","4","","","","","",""
"null","","html-keyboard-response","277","1728929","0.0-6.0-5.14","30","<p><img class= 'stimulus' src='images/baseline/landscape31.jpg'></img></p>","null","","1550791454756","","","","","","",""
"null","","html-keyboard-response","278","1729029","0.0-6.0-6.14","30","<p><img class= 'stimulus' src='images/baseline/landscape1.jpg'></img></p>","null","","1550791454856","6","","","","","",""
"null","","html-keyboard-response","279","1729129","0.0-6.0-7.14","30","<p><img class= 'stimulus' src='images/baseline/03045v.jpg'></img></p>","null","","1550791454955","","","","","","",""
"null","","html-keyboard-response","280","1729230","0.0-6.0-8.14","30","<p><img class= 'stimulus left-rotate' src='images/target/cactus1.jpg'></img></p>","null","","1550791455055","8","","","","","",""
"null","","html-keyboard-response","281","1729329","0.0-6.0-9.14","30","<p><img class= 'stimulus' src='images/baseline/03204v.jpg'></img></p>","null","","1550791455155","","","","","","",""
"null","","html-keyboard-response","282","1729429","0.0-6.0-10.14","30","<p><img class= 'stimulus' src='images/baseline/04117v.jpg'></img></p>","null","","1550791455256","","","","","","",""
"null","","html-keyboard-response","283","1729530","0.0-6.0-11.14","30","<p><img class= 'stimulus' src='images/baseline/field 3.jpg'></img></p>","null","","1550791455355","","","","","","",""
"null","","html-keyboard-response","284","1729631","0.0-6.0-12.14","30","<p><img class= 'stimulus' src='images/baseline/Lake 8.jpg'></img></p>","null","","1550791455456","12","","","","","",""
"null","","html-keyboard-response","285","1729729","0.0-6.0-13.14","30","<p><img class= 'stimulus' src='images/baseline/hills 4.jpg'></img></p>","null","","1550791455556","","","","","","",""
"null","","html-keyboard-response","286","1729829","0.0-6.0-14.14","30","<p><img class= 'stimulus' src='images/baseline/farmhouse6.jpg'></img></p>","null","","1550791455656","14","","","","","",""
"null","","html-keyboard-response","287","1729930","0.0-6.0-15.14","30","<p><img class= 'stimulus' src='images/baseline/Lake 5.jpg'></img></p>","null","","1550791455756","","","","","","",""
"null","","html-keyboard-response","288","1730029","0.0-6.0-16.14","30","<p><img class= 'stimulus' src='images/baseline/04158v.jpg'></img></p>","null","","1550791455857","","","","","","",""
"null","","html-keyboard-response","289","1730146","0.0-6.0-17.14","30","<p><img class= 'stimulus' src='images/baseline/landscape3.jpg'></img></p>","null","","1550791455955","","","","","","",""
"977.2000000230037","","html-button-response","290","1732138","0.0-6.0-18.14","30","<div class = ""response_question"">WAS THE IMAGE ROTATED...</div>","","0","","","6","2","bas","left","practice","true"
"894.399999990128","","html-button-response","291","1733035","0.0-6.0-0.15","30","","","0","","","","","","","",""
"null","","html-keyboard-response","292","1733114","0.0-6.0-1.15","30","<p><img class= 'stimulus' src='images/baseline/building16.jpg'></img></p>","null","","1550791458941","","","","","","",""
"null","","html-keyboard-response","293","1733214","0.0-6.0-2.15","30","<p><img class= 'stimulus' src='images/baseline/pexels-photo-221125.jpeg'></img></p>","null","","1550791459041","","","","","","",""
"null","","html-keyboard-response","294","1733314","0.0-6.0-3.15","30","<p><img class= 'stimulus' src='images/baseline/bird-flying-at-sunset.jpg'></img></p>","null","","1550791459142","","","","","","",""
"null","","html-keyboard-response","295","1733414","0.0-6.0-4.15","30","<p><img class= 'stimulus' src='images/baseline/farmhouse7.jpg'></img></p>","null","","1550791459241","4","","","","","",""
"null","","html-keyboard-response","296","1733514","0.0-6.0-5.15","30","<p><img class= 'stimulus' src='images/baseline/Aletschgletscher-Eggishorn.jpg'></img></p>","null","","1550791459341","","","","","","",""
"null","","html-keyboard-response","297","1733613","0.0-6.0-6.15","30","<p><img class= 'stimulus' src='images/target/pexels-photo-932328.jpeg'></img></p>","null","","1550791459441","6","","","","","",""
"null","","html-keyboard-response","298","1733713","0.0-6.0-7.15","30","<p><img class= 'stimulus' src='images/baseline/river 1.jpg'></img></p>","null","","1550791459540","","","","","","",""
"null","","html-keyboard-response","299","1733813","0.0-6.0-8.15","30","<p><img class= 'stimulus' src='images/baseline/horse_statue.jpg'></img></p>","null","","1550791459640","8","","","","","",""
"null","","html-keyboard-response","300","1733913","0.0-6.0-9.15","30","<p><img class= 'stimulus' src='images/baseline/house11.jpg'></img></p>","null","","1550791459739","","","","","","",""
"null","","html-keyboard-response","301","1734013","0.0-6.0-10.15","30","<p><img class= 'stimulus' src='images/baseline/building5.jpg'></img></p>","null","","1550791459840","","","","","","",""
"null","","html-keyboard-response","302","1734114","0.0-6.0-11.15","30","<p><img class= 'stimulus' src='images/baseline/Grass 6.jpg'></img></p>","null","","1550791459940","","","","","","",""
"null","","html-keyboard-response","303","1734212","0.0-6.0-12.15","30","<p><img class= 'stimulus' src='images/baseline/03098v.jpg'></img></p>","null","","1550791460040","12","","","","","",""
"null","","html-keyboard-response","304","1734312","0.0-6.0-13.15","30","<p><img class= 'stimulus' src='images/baseline/pexels-photo-351264.jpeg'></img></p>","null","","1550791460140","","","","","","",""
"null","","html-keyboard-response","305","1734413","0.0-6.0-14.15","30","<p><img class= 'stimulus' src='images/baseline/03098v.jpg'></img></p>","null","","1550791460239","14","","","","","",""
"null","","html-keyboard-response","306","1734512","0.0-6.0-15.15","30","<p><img class= 'stimulus' src='images/baseline/horse_statue.jpg'></img></p>","null","","1550791460340","","","","","","",""
"null","","html-keyboard-response","307","1734613","0.0-6.0-16.15","30","<p><img class= 'stimulus' src='images/baseline/04086v.jpg'></img></p>","null","","1550791460439","","","","","","",""
"null","","html-keyboard-response","308","1734729","0.0-6.0-17.15","30","<p><img class= 'stimulus' src='images/baseline/building5.jpg'></img></p>","null","","1550791460539","","","","","","",""
"1315.2000000118278","","html-button-response","309","1737051","0.0-6.0-18.15","30","<div class = ""response_question"">WAS THE IMAGE ROTATED...</div>","","3","","","4","2","bas","right","practice","true"
"31462.400000018533","","html-button-response","310","1768523","0.0-7.0","30","<p>You have now completed the practice phase. We will now begin the real trials.         This is a reminder that you will be searching for a rotated image among the series of upright images.</p>         <p>Remember, please do not blink or move your eyes while the images are on the screen.</p>         <p>At the end of the experiment, the experimenter will be able to show you how accurate you were.</p>","","0","","","","","","","",""
"1646.7999999877065","","html-button-response","311","1770171","0.0-8.0-0.0-0.0","30","","","0","","","","","","","",""
"null","","html-keyboard-response","312","1770257","0.0-8.0-0.0-1.0","30","<p><img class= 'stimulus' src='images/baseline/Street 4.jpg'></img></p>","null","","1550791496084","","","","","","",""
"null","","html-keyboard-response","313","1770357","0.0-8.0-0.0-2.0","30","<p><img class= 'stimulus' src='images/baseline/river 1.jpg'></img></p>","null","","1550791496183","","","","","","",""
"null","","html-keyboard-response","314","1770457","0.0-8.0-0.0-3.0","30","<p><img class= 'stimulus' src='images/baseline/Bridge 1.jpg'></img></p>","null","","1550791496283","","","","","","",""
"null","","html-keyboard-response","315","1770556","0.0-8.0-0.0-4.0","30","<p><img class= 'stimulus' src='images/baseline/Lake 15.jpg'></img></p>","null","","1550791496383","4","","","","","",""
"null","","html-keyboard-response","316","1770655","0.0-8.0-0.0-5.0","30","<p><img class= 'stimulus' src='images/baseline/Lake 14.jpg'></img></p>","null","","1550791496484","","","","","","",""
"null","","html-keyboard-response","317","1770756","0.0-8.0-0.0-6.0","30","<p><img class= 'stimulus' src='images/baseline/landscape31.jpg'></img></p>","null","","1550791496583","6","","","","","",""
"null","","html-keyboard-response","318","1770856","0.0-8.0-0.0-7.0","30","<p><img class= 'stimulus' src='images/baseline/pexels-photo-534164.jpeg'></img></p>","null","","1550791496682","","","","","","",""
"null","","html-keyboard-response","319","1770956","0.0-8.0-0.0-8.0","30","<p><img class= 'stimulus left-rotate' src='images/target/landscape20.jpg'></img></p>","null","","1550791496783","8","","","","","",""
"null","","html-keyboard-response","320","1771056","0.0-8.0-0.0-9.0","30","<p><img class= 'stimulus' src='images/baseline/landscape36.jpg'></img></p>","null","","1550791496882","","","","","","",""
"null","","html-keyboard-response","321","1771156","0.0-8.0-0.0-10.0","30","<p><img class= 'stimulus' src='images/baseline/vintage-art-deco-storefront.jpg'></img></p>","null","","1550791496983","","","","","","",""
"null","","html-keyboard-response","322","1771256","0.0-8.0-0.0-11.0","30","<p><img class= 'stimulus' src='images/baseline/house2.jpg'></img></p>","null","","1550791497082","","","","","","",""
"null","","html-keyboard-response","323","1771355","0.0-8.0-0.0-12.0","30","<p><img class= 'stimulus' src='images/baseline/Niinsaare_jarv.jpg'></img></p>","null","","1550791497182","12","","","","","",""
"null","","html-keyboard-response","324","1771456","0.0-8.0-0.0-13.0","30","<p><img class= 'stimulus' src='images/baseline/03114v.jpg'></img></p>","null","","1550791497282","","","","","","",""
"null","","html-keyboard-response","325","1771556","0.0-8.0-0.0-14.0","30","<p><img class= 'stimulus' src='images/baseline/tennis-court-net-buried-in-snow.jpg'></img></p>","null","","1550791497382","14","","","","","",""
"null","","html-keyboard-response","326","1771655","0.0-8.0-0.0-15.0","30","<p><img class= 'stimulus' src='images/baseline/05198v.jpg'></img></p>","null","","1550791497482","","","","","","",""
"null","","html-keyboard-response","327","1771755","0.0-8.0-0.0-16.0","30","<p><img class= 'stimulus' src='images/baseline/04098v.jpg'></img></p>","null","","1550791497583","","","","","","",""
"null","","html-keyboard-response","328","1771872","0.0-8.0-0.0-17.0","30","<p><img class= 'stimulus' src='images/baseline/farmhouse4.jpg'></img></p>","null","","1550791497682","","","","","","",""
"1118.1000000215136","","html-button-response","329","1773995","0.0-8.0-0.0-18.0","30","<div class = ""response_question"">WAS THE IMAGE ROTATED...</div>","","0","","","6","2","bas","left","test","true"
"822.4999999511056","","html-button-response","330","1774819","0.0-8.0-0.0-0.1","30","","","0","","","","","","","",""
"null","","html-keyboard-response","331","1774906","0.0-8.0-0.0-1.1","30","<p><img class= 'stimulus' src='images/baseline/03217v.jpg'></img></p>","null","","1550791500732","","","","","","",""
"null","","html-keyboard-response","332","1775007","0.0-8.0-0.0-2.1","30","<p><img class= 'stimulus' src='images/baseline/Dock 1.jpg'></img></p>","null","","1550791500832","","","","","","",""
"null","","html-keyboard-response","333","1775106","0.0-8.0-0.0-3.1","30","<p><img class= 'stimulus' src='images/baseline/road.jpg'></img></p>","null","","1550791500932","","","","","","",""
"null","","html-keyboard-response","334","1775206","0.0-8.0-0.0-4.1","30","<p><img class= 'stimulus' src='images/baseline/landscape29.jpg'></img></p>","null","","1550791501032","4","","","","","",""
"null","","html-keyboard-response","335","1775306","0.0-8.0-0.0-5.1","30","<p><img class= 'stimulus' src='images/baseline/architecture-956332_1280.jpg'></img></p>","null","","1550791501132","","","","","","",""
"null","","html-keyboard-response","336","1775406","0.0-8.0-0.0-6.1","30","<p><img class= 'stimulus' src='images/baseline/04201v.jpg'></img></p>","null","","1550791501233","6","","","","","",""
"null","","html-keyboard-response","337","1775506","0.0-8.0-0.0-7.1","30","<p><img class= 'stimulus' src='images/baseline/Nature 1.jpg'></img></p>","null","","1550791501333","","","","","","",""
"null","","html-keyboard-response","338","1775606","0.0-8.0-0.0-8.1","30","<p><img class= 'stimulus' src='images/baseline/building4.jpg'></img></p>","null","","1550791501431","8","","","","","",""
"null","","html-keyboard-response","339","1775705","0.0-8.0-0.0-9.1","30","<p><img class= 'stimulus' src='images/baseline/03148v.jpg'></img></p>","null","","1550791501532","","","","","","",""
"null","","html-keyboard-response","340","1775806","0.0-8.0-0.0-10.1","30","<p><img class= 'stimulus' src='images/baseline/building16.jpg'></img></p>","null","","1550791501633","","","","","","",""
"null","","html-keyboard-response","341","1775905","0.0-8.0-0.0-11.1","30","<p><img class= 'stimulus' src='images/baseline/Peyto_Lake-Banff_NP-Canada.jpg'></img></p>","null","","1550791501732","","","","","","",""
"null","","html-keyboard-response","342","1776005","0.0-8.0-0.0-12.1","30","<p><img class= 'stimulus' src='images/baseline/valley 2.jpg'></img></p>","null","","1550791501831","12","","","","","",""
"null","","html-keyboard-response","343","1776106","0.0-8.0-0.0-13.1","30","<p><img class= 'stimulus' src='images/baseline/scenic-mountain-landscape.jpg'></img></p>","null","","1550791501932","","","","","","",""
"null","","html-keyboard-response","344","1776205","0.0-8.0-0.0-14.1","30","<p><img class= 'stimulus' src='images/baseline/Lake 8.jpg'></img></p>","null","","1550791502031","14","","","","","",""
"null","","html-keyboard-response","345","1776305","0.0-8.0-0.0-15.1","30","<p><img class= 'stimulus' src='images/baseline/04229v.jpg'></img></p>","null","","1550791502132","","","","","","",""
"null","","html-keyboard-response","346","1776405","0.0-8.0-0.0-16.1","30","<p><img class= 'stimulus' src='images/baseline/bird-flying-at-sunset.jpg'></img></p>","null","","1550791502233","","","","","","",""
"null","","html-keyboard-response","347","1776522","0.0-8.0-0.0-17.1","30","<p><img class= 'stimulus' src='images/baseline/hills 4.jpg'></img></p>","null","","1550791502332","","","","","","",""
"3165.1999999885447","","html-button-response","348","1780692","0.0-8.0-0.0-18.1","30","<div class = ""response_question"">WAS THE IMAGE ROTATED...</div>","","2","","","null","null","null","null","test","null"
"622.399999992922","","html-button-response","349","1781315","0.0-8.0-0.0-0.2","30","","","0","","","","","","","",""
"null","","html-keyboard-response","350","1781389","0.0-8.0-0.0-1.2","30","<p><img class= 'stimulus' src='images/baseline/05189v.jpg'></img></p>","null","","1550791507216","","","","","","",""
"null","","html-keyboard-response","351","1781489","0.0-8.0-0.0-2.2","30","<p><img class= 'stimulus' src='images/baseline/meadow-with-mountain-in-background.jpg'></img></p>","null","","1550791507315","","","","","","",""
"null","","html-keyboard-response","352","1781589","0.0-8.0-0.0-3.2","30","<p><img class= 'stimulus' src='images/baseline/04222v.jpg'></img></p>","null","","1550791507416","","","","","","",""
"null","","html-keyboard-response","353","1781689","0.0-8.0-0.0-4.2","30","<p><img class= 'stimulus' src='images/baseline/05186v.jpg'></img></p>","null","","1550791507515","4","","","","","",""
"null","","html-keyboard-response","354","1781789","0.0-8.0-0.0-5.2","30","<p><img class= 'stimulus' src='images/baseline/Sky 1.jpg'></img></p>","null","","1550791507616","","","","","","",""
"null","","html-keyboard-response","355","1781889","0.0-8.0-0.0-6.2","30","<p><img class= 'stimulus' src='images/baseline/05240v.jpg'></img></p>","null","","1550791507716","6","","","","","",""
"null","","html-keyboard-response","356","1781990","0.0-8.0-0.0-7.2","30","<p><img class= 'stimulus' src='images/baseline/05264v.jpg'></img></p>","null","","1550791507817","","","","","","",""
"null","","html-keyboard-response","357","1782090","0.0-8.0-0.0-8.2","30","<p><img class= 'stimulus' src='images/baseline/05280v.jpg'></img></p>","null","","1550791507915","8","","","","","",""
"null","","html-keyboard-response","358","1782188","0.0-8.0-0.0-9.2","30","<p><img class= 'stimulus' src='images/baseline/house1.jpg'></img></p>","null","","1550791508015","","","","","","",""
"null","","html-keyboard-response","359","1782290","0.0-8.0-0.0-10.2","30","<p><img class= 'stimulus' src='images/baseline/Lake 5.jpg'></img></p>","null","","1550791508115","","","","","","",""
"null","","html-keyboard-response","360","1782388","0.0-8.0-0.0-11.2","30","<p><img class= 'stimulus' src='images/baseline/04040v.jpg'></img></p>","null","","1550791508215","","","","","","",""
"null","","html-keyboard-response","361","1782488","0.0-8.0-0.0-12.2","30","<p><img class= 'stimulus' src='images/baseline/pexels-photo-541101.jpeg'></img></p>","null","","1550791508316","12","","","","","",""
"null","","html-keyboard-response","362","1782589","0.0-8.0-0.0-13.2","30","<p><img class= 'stimulus' src='images/baseline/04010v.jpg'></img></p>","null","","1550791508415","","","","","","",""
"null","","html-keyboard-response","363","1782689","0.0-8.0-0.0-14.2","30","<p><img class= 'stimulus' src='images/baseline/landscape16.jpg'></img></p>","null","","1550791508516","14","","","","","",""
"null","","html-keyboard-response","364","1782789","0.0-8.0-0.0-15.2","30","<p><img class= 'stimulus' src='images/baseline/agriculture-cereal-clouds-175389.jpg'></img></p>","null","","1550791508616","","","","","","",""
"null","","html-keyboard-response","365","1782889","0.0-8.0-0.0-16.2","30","<p><img class= 'stimulus' src='images/baseline/02977v.jpg'></img></p>","null","","1550791508716","","","","","","",""
"null","","html-keyboard-response","366","1783006","0.0-8.0-0.0-17.2","30","<p><img class= 'stimulus' src='images/baseline/church-silhouette-8712964986014Kb.jpg'></img></p>","null","","1550791508817","","","","","","",""
"2025.0999999698251","","html-button-response","367","1786036","0.0-8.0-0.0-18.2","30","<div class = ""response_question"">WAS THE IMAGE ROTATED...</div>","","5","","","null","null","null","null","test","null"
"678.4999999799766","","html-button-response","368","1786716","0.0-8.0-0.0-0.3","30","","","0","","","","","","","",""
"null","","html-keyboard-response","369","1786789","0.0-8.0-0.0-1.3","30","<p><img class= 'stimulus' src='images/baseline/Kocherbaumwald-01.jpg'></img></p>","null","","1550791512616","","","","","","",""
"null","","html-keyboard-response","370","1786889","0.0-8.0-0.0-2.3","30","<p><img class= 'stimulus' src='images/baseline/02982v.jpg'></img></p>","null","","1550791512715","","","","","","",""
"null","","html-keyboard-response","371","1786990","0.0-8.0-0.0-3.3","30","<p><img class= 'stimulus' src='images/baseline/landscape7.jpg'></img></p>","null","","1550791512816","","","","","","",""
"null","","html-keyboard-response","372","1787089","0.0-8.0-0.0-4.3","30","<p><img class= 'stimulus' src='images/baseline/pexels-photo-1261728.jpeg'></img></p>","null","","1550791512915","4","","","","","",""
"null","","html-keyboard-response","373","1787188","0.0-8.0-0.0-5.3","30","<p><img class= 'stimulus' src='images/baseline/foreclosed_home.jpg'></img></p>","null","","1550791513017","","","","","","",""
"null","","html-keyboard-response","374","1787289","0.0-8.0-0.0-6.3","30","<p><img class= 'stimulus left-rotate' src='images/target/tree.jpeg'></img></p>","null","","1550791513115","6","","","","","",""
"null","","html-keyboard-response","375","1787389","0.0-8.0-0.0-7.3","30","<p><img class= 'stimulus' src='images/baseline/snowy tree.jpg'></img></p>","null","","1550791513215","","","","","","",""
"null","","html-keyboard-response","376","1787489","0.0-8.0-0.0-8.3","30","<p><img class= 'stimulus' src='images/baseline/Beach 2.jpg'></img></p>","null","","1550791513315","8","","","","","",""
"null","","html-keyboard-response","377","1787589","0.0-8.0-0.0-9.3","30","<p><img class= 'stimulus' src='images/baseline/geese-flying-over-lake-at-dusk.jpg'></img></p>","null","","1550791513415","","","","","","",""
"null","","html-keyboard-response","378","1787689","0.0-8.0-0.0-10.3","30","<p><img class= 'stimulus' src='images/baseline/house6.jpg'></img></p>","null","","1550791513515","","","","","","",""
"null","","html-keyboard-response","379","1787789","0.0-8.0-0.0-11.3","30","<p><img class= 'stimulus' src='images/baseline/pexels-photo-808465.jpeg'></img></p>","null","","1550791513615","","","","","","",""
"null","","html-keyboard-response","380","1787890","0.0-8.0-0.0-12.3","30","<p><img class= 'stimulus' src='images/baseline/03162v.jpg'></img></p>","null","","1550791513716","12","","","","","",""
"null","","html-keyboard-response","381","1787990","0.0-8.0-0.0-13.3","30","<p><img class= 'stimulus' src='images/baseline/05303v.jpg'></img></p>","null","","1550791513815","","","","","","",""
"null","","html-keyboard-response","382","1788089","0.0-8.0-0.0-14.3","30","<p><img class= 'stimulus' src='images/baseline/05161v.jpg'></img></p>","null","","1550791513915","14","","","","","",""
"null","","html-keyboard-response","383","1788189","0.0-8.0-0.0-15.3","30","<p><img class= 'stimulus' src='images/baseline/Freudenberg_sg_Switzerland.jpg'></img></p>","null","","1550791514016","","","","","","",""
"null","","html-keyboard-response","384","1788290","0.0-8.0-0.0-16.3","30","<p><img class= 'stimulus' src='images/baseline/building_at_national_conservation.jpg'></img></p>","null","","1550791514117","","","","","","",""
"null","","html-keyboard-response","385","1788406","0.0-8.0-0.0-17.3","30","<p><img class= 'stimulus' src='images/baseline/04031v.jpg'></img></p>","null","","1550791514216","","","","","","",""
"817.5000000046566","","html-button-response","386","1790228","0.0-8.0-0.0-18.3","30","<div class = ""response_question"">WAS THE IMAGE ROTATED...</div>","","2","","","4","2","bas","left","test","false"
"1278.3000000054017","","html-button-response","387","1791507","0.0-8.0-0.0-0.4","30","","","0","","","","","","","",""
"null","","html-keyboard-response","388","1791589","0.0-8.0-0.0-1.4","30","<p><img class= 'stimulus' src='images/baseline/landscape12.jpg'></img></p>","null","","1550791517416","","","","","","",""
"null","","html-keyboard-response","389","1791689","0.0-8.0-0.0-2.4","30","<p><img class= 'stimulus' src='images/baseline/04130v.jpg'></img></p>","null","","1550791517516","","","","","","",""
"null","","html-keyboard-response","390","1791789","0.0-8.0-0.0-3.4","30","<p><img class= 'stimulus' src='images/baseline/pexels-photo-1054289.jpeg'></img></p>","null","","1550791517616","","","","","","",""
"null","","html-keyboard-response","391","1791889","0.0-8.0-0.0-4.4","30","<p><img class= 'stimulus' src='images/baseline/03112v.jpg'></img></p>","null","","1550791517715","4","","","","","",""
"null","","html-keyboard-response","392","1791989","0.0-8.0-0.0-5.4","30","<p><img class= 'stimulus' src='images/baseline/landscape19.jpg'></img></p>","null","","1550791517815","","","","","","",""
"null","","html-keyboard-response","393","1792089","0.0-8.0-0.0-6.4","30","<p><img class= 'stimulus' src='images/neutral/cottontail-rabbit.jpg'></img></p>","null","","1550791517916","6","","","","","",""
"null","","html-keyboard-response","394","1792189","0.0-8.0-0.0-7.4","30","<p><img class= 'stimulus' src='images/baseline/Beach 3.jpg'></img></p>","null","","1550791518015","","","","","","",""
"null","","html-keyboard-response","395","1792289","0.0-8.0-0.0-8.4","30","<p><img class= 'stimulus left-rotate' src='images/target/pexels-photo-602607.jpeg'></img></p>","null","","1550791518117","8","","","","","",""
"null","","html-keyboard-response","396","1792390","0.0-8.0-0.0-9.4","30","<p><img class= 'stimulus' src='images/baseline/Cold 7.jpg'></img></p>","null","","1550791518215","","","","","","",""
"null","","html-keyboard-response","397","1792488","0.0-8.0-0.0-10.4","30","<p><img class= 'stimulus' src='images/baseline/landscape33.jpg'></img></p>","null","","1550791518315","","","","","","",""
"null","","html-keyboard-response","398","1792590","0.0-8.0-0.0-11.4","30","<p><img class= 'stimulus' src='images/baseline/landscape6.jpg'></img></p>","null","","1550791518416","","","","","","",""
"null","","html-keyboard-response","399","1792689","0.0-8.0-0.0-12.4","30","<p><img class= 'stimulus' src='images/baseline/hills 3.jpg'></img></p>","null","","1550791518516","12","","","","","",""
"null","","html-keyboard-response","400","1792789","0.0-8.0-0.0-13.4","30","<p><img class= 'stimulus' src='images/baseline/04085v.jpg'></img></p>","null","","1550791518615","","","","","","",""
"null","","html-keyboard-response","401","1792889","0.0-8.0-0.0-14.4","30","<p><img class= 'stimulus' src='images/baseline/field 4.jpg'></img></p>","null","","1550791518715","14","","","","","",""
"null","","html-keyboard-response","402","1792989","0.0-8.0-0.0-15.4","30","<p><img class= 'stimulus' src='images/baseline/02971v.jpg'></img></p>","null","","1550791518815","","","","","","",""
"null","","html-keyboard-response","403","1793090","0.0-8.0-0.0-16.4","30","<p><img class= 'stimulus' src='images/baseline/pexels-photo-351264.jpeg'></img></p>","null","","1550791518915","","","","","","",""
"null","","html-keyboard-response","404","1793206","0.0-8.0-0.0-17.4","30","<p><img class= 'stimulus' src='images/baseline/Paysage_enneige_02.jpg'></img></p>","null","","1550791519015","","","","","","",""
"6209.099999978207","","html-button-response","405","1800419","0.0-8.0-0.0-18.4","30","<div class = ""response_question"">WAS THE IMAGE ROTATED...</div>","","2","","","6","2","neu","left","test","false"
"758.6000000010245","","html-button-response","406","1801179","0.0-8.0-0.0-0.5","30","","","0","","","","","","","",""
"null","","html-keyboard-response","407","1801256","0.0-8.0-0.0-1.5","30","<p><img class= 'stimulus' src='images/baseline/lake3.jpg'></img></p>","null","","1550791527082","","","","","","",""
"null","","html-keyboard-response","408","1801355","0.0-8.0-0.0-2.5","30","<p><img class= 'stimulus' src='images/baseline/landscape37.jpg'></img></p>","null","","1550791527181","","","","","","",""
"null","","html-keyboard-response","409","1801456","0.0-8.0-0.0-3.5","30","<p><img class= 'stimulus' src='images/baseline/architecture_modern_architecture_852928.jpg'></img></p>","null","","1550791527282","","","","","","",""
"null","","html-keyboard-response","410","1801556","0.0-8.0-0.0-4.5","30","<p><img class= 'stimulus' src='images/baseline/farmhouse1.jpg'></img></p>","null","","1550791527382","4","","","","","",""
"null","","html-keyboard-response","411","1801656","0.0-8.0-0.0-5.5","30","<p><img class= 'stimulus' src='images/baseline/red-rocks-park.jpg'></img></p>","null","","1550791527483","","","","","","",""
"null","","html-keyboard-response","412","1801755","0.0-8.0-0.0-6.5","30","<p><img class= 'stimulus' src='images/neutral/Pig 1.jpg'></img></p>","null","","1550791527582","6","","","","","",""
"null","","html-keyboard-response","413","1801855","0.0-8.0-0.0-7.5","30","<p><img class= 'stimulus' src='images/baseline/landscape35.jpg'></img></p>","null","","1550791527683","","","","","","",""
"null","","html-keyboard-response","414","1801956","0.0-8.0-0.0-8.5","30","<p><img class= 'stimulus' src='images/target/tree-3563269_640.jpg'></img></p>","null","","1550791527782","8","","","","","",""
"null","","html-keyboard-response","415","1802055","0.0-8.0-0.0-9.5","30","<p><img class= 'stimulus' src='images/baseline/lake 1.jpg'></img></p>","null","","1550791527883","","","","","","",""
"null","","html-keyboard-response","416","1802155","0.0-8.0-0.0-10.5","30","<p><img class= 'stimulus' src='images/baseline/05158v.jpg'></img></p>","null","","1550791527982","","","","","","",""
"null","","html-keyboard-response","417","1802255","0.0-8.0-0.0-11.5","30","<p><img class= 'stimulus' src='images/baseline/agriculture-bright-clouds-440731.jpg'></img></p>","null","","1550791528081","","","","","","",""
"null","","html-keyboard-response","418","1802356","0.0-8.0-0.0-12.5","30","<p><img class= 'stimulus' src='images/baseline/hiking-trail.jpg'></img></p>","null","","1550791528182","12","","","","","",""
"null","","html-keyboard-response","419","1802456","0.0-8.0-0.0-13.5","30","<p><img class= 'stimulus' src='images/baseline/Street 3.jpg'></img></p>","null","","1550791528282","","","","","","",""
"null","","html-keyboard-response","420","1802556","0.0-8.0-0.0-14.5","30","<p><img class= 'stimulus' src='images/baseline/pexels-photo-221125.jpeg'></img></p>","null","","1550791528382","14","","","","","",""
"null","","html-keyboard-response","421","1802656","0.0-8.0-0.0-15.5","30","<p><img class= 'stimulus' src='images/baseline/04158v.jpg'></img></p>","null","","1550791528482","","","","","","",""
"null","","html-keyboard-response","422","1802756","0.0-8.0-0.0-16.5","30","<p><img class= 'stimulus' src='images/baseline/farmhouse11.jpg'></img></p>","null","","1550791528583","","","","","","",""
"null","","html-keyboard-response","423","1802872","0.0-8.0-0.0-17.5","30","<p><img class= 'stimulus' src='images/baseline/05279v.jpg'></img></p>","null","","1550791528682","","","","","","",""
"967.4000000231899","","html-button-response","424","1804843","0.0-8.0-0.0-18.5","30","<div class = ""response_question"">WAS THE IMAGE ROTATED...</div>","","1","","","6","2","neu","right","test","false"
"630.4999999701977","","html-button-response","425","1805475","0.0-8.0-0.0-0.6","30","","","0","","","","","","","",""
"null","","html-keyboard-response","426","1805555","0.0-8.0-0.0-1.6","30","<p><img class= 'stimulus' src='images/baseline/04284v.jpg'></img></p>","null","","1550791531383","","","","","","",""
"null","","html-keyboard-response","427","1805656","0.0-8.0-0.0-2.6","30","<p><img class= 'stimulus' src='images/baseline/building8.jpg'></img></p>","null","","1550791531483","","","","","","",""
"null","","html-keyboard-response","428","1805755","0.0-8.0-0.0-3.6","30","<p><img class= 'stimulus' src='images/baseline/Street 1.jpg'></img></p>","null","","1550791531582","","","","","","",""
"null","","html-keyboard-response","429","1805856","0.0-8.0-0.0-4.6","30","<p><img class= 'stimulus' src='images/neutral/neutrall (1).jpg'></img></p>","null","","1550791531682","4","","","","","",""
"null","","html-keyboard-response","430","1805956","0.0-8.0-0.0-5.6","30","<p><img class= 'stimulus' src='images/baseline/Lake 13.jpg'></img></p>","null","","1550791531782","","","","","","",""
"null","","html-keyboard-response","431","1806055","0.0-8.0-0.0-6.6","30","<p><img class= 'stimulus' src='images/target/building17.jpg'></img></p>","null","","1550791531883","6","","","","","",""
"null","","html-keyboard-response","432","1806155","0.0-8.0-0.0-7.6","30","<p><img class= 'stimulus' src='images/baseline/seoul-410266_1920.jpg'></img></p>","null","","1550791531982","","","","","","",""
"null","","html-keyboard-response","433","1806256","0.0-8.0-0.0-8.6","30","<p><img class= 'stimulus' src='images/baseline/landscape11.jpg'></img></p>","null","","1550791532083","8","","","","","",""
"null","","html-keyboard-response","434","1806355","0.0-8.0-0.0-9.6","30","<p><img class= 'stimulus' src='images/baseline/04062v.jpg'></img></p>","null","","1550791532182","","","","","","",""
"null","","html-keyboard-response","435","1806456","0.0-8.0-0.0-10.6","30","<p><img class= 'stimulus' src='images/baseline/grand-teton-mountains.jpg'></img></p>","null","","1550791532283","","","","","","",""
"null","","html-keyboard-response","436","1806556","0.0-8.0-0.0-11.6","30","<p><img class= 'stimulus' src='images/baseline/sunset-over-the-lake.jpg'></img></p>","null","","1550791532382","","","","","","",""
"null","","html-keyboard-response","437","1806656","0.0-8.0-0.0-12.6","30","<p><img class= 'stimulus' src='images/baseline/03204v.jpg'></img></p>","null","","1550791532483","12","","","","","",""
"null","","html-keyboard-response","438","1806756","0.0-8.0-0.0-13.6","30","<p><img class= 'stimulus' src='images/baseline/Nature 2.jpg'></img></p>","null","","1550791532582","","","","","","",""
"null","","html-keyboard-response","439","1806856","0.0-8.0-0.0-14.6","30","<p><img class= 'stimulus' src='images/baseline/__08_-_ITALY_-_Forli_under_snow_-_winter_landscape_of_city_(christmas).jpg'></img></p>","null","","1550791532682","14","","","","","",""
"null","","html-keyboard-response","440","1806956","0.0-8.0-0.0-15.6","30","<p><img class= 'stimulus' src='images/baseline/trees 23.jpg'></img></p>","null","","1550791532782","","","","","","",""
"null","","html-keyboard-response","441","1807056","0.0-8.0-0.0-16.6","30","<p><img class= 'stimulus' src='images/baseline/Sunset 4.jpg'></img></p>","null","","1550791532882","","","","","","",""
"null","","html-keyboard-response","442","1807172","0.0-8.0-0.0-17.6","30","<p><img class= 'stimulus' src='images/baseline/red rocks from afar.jpg'></img></p>","null","","1550791532982","","","","","","",""
"572.5000000093132","","html-button-response","443","1808747","0.0-8.0-0.0-18.6","30","<div class = ""response_question"">WAS THE IMAGE ROTATED...</div>","","3","","","4","2","neu","right","test","true"
"614.1000000061467","","html-button-response","444","1809364","0.0-8.0-0.0-0.7","30","","","0","","","","","","","",""
"null","","html-keyboard-response","445","1809439","0.0-8.0-0.0-1.7","30","<p><img class= 'stimulus' src='images/baseline/landscape4.jpg'></img></p>","null","","1550791535267","","","","","","",""
"null","","html-keyboard-response","446","1809540","0.0-8.0-0.0-2.7","30","<p><img class= 'stimulus' src='images/baseline/pexels-photo-280222.jpeg'></img></p>","null","","1550791535366","","","","","","",""
"null","","html-keyboard-response","447","1809639","0.0-8.0-0.0-3.7","30","<p><img class= 'stimulus' src='images/baseline/Sidewalk 4.jpg'></img></p>","null","","1550791535466","","","","","","",""
"null","","html-keyboard-response","448","1809739","0.0-8.0-0.0-4.7","30","<p><img class= 'stimulus' src='images/baseline/Desert_View_Indian_Wells.jpg'></img></p>","null","","1550791535565","4","","","","","",""
"null","","html-keyboard-response","449","1809840","0.0-8.0-0.0-5.7","30","<p><img class= 'stimulus' src='images/baseline/hills 1.jpg'></img></p>","null","","1550791535666","","","","","","",""
"null","","html-keyboard-response","450","1809939","0.0-8.0-0.0-6.7","30","<p><img class= 'stimulus' src='images/neutral/Dog 2.jpg'></img></p>","null","","1550791535766","6","","","","","",""
"null","","html-keyboard-response","451","1810039","0.0-8.0-0.0-7.7","30","<p><img class= 'stimulus' src='images/baseline/building6.jpg'></img></p>","null","","1550791535866","","","","","","",""
"null","","html-keyboard-response","452","1810141","0.0-8.0-0.0-8.7","30","<p><img class= 'stimulus left-rotate' src='images/target/pexels-photo-1123982.jpeg'></img></p>","null","","1550791535966","8","","","","","",""
"null","","html-keyboard-response","453","1810239","0.0-8.0-0.0-9.7","30","<p><img class= 'stimulus' src='images/baseline/agriculture-countryside-crop-259280.jpg'></img></p>","null","","1550791536066","","","","","","",""
"null","","html-keyboard-response","454","1810339","0.0-8.0-0.0-10.7","30","<p><img class= 'stimulus' src='images/baseline/05179v.jpg'></img></p>","null","","1550791536166","","","","","","",""
"null","","html-keyboard-response","455","1810440","0.0-8.0-0.0-11.7","30","<p><img class= 'stimulus' src='images/baseline/Sunset 6.jpg'></img></p>","null","","1550791536267","","","","","","",""
"null","","html-keyboard-response","456","1810539","0.0-8.0-0.0-12.7","30","<p><img class= 'stimulus' src='images/baseline/pexels-photo-59321.jpeg'></img></p>","null","","1550791536366","12","","","","","",""
"null","","html-keyboard-response","457","1810640","0.0-8.0-0.0-13.7","30","<p><img class= 'stimulus' src='images/baseline/03220v.jpg'></img></p>","null","","1550791536466","","","","","","",""
"null","","html-keyboard-response","458","1810739","0.0-8.0-0.0-14.7","30","<p><img class= 'stimulus' src='images/baseline/landscape15.jpg'></img></p>","null","","1550791536565","14","","","","","",""
"null","","html-keyboard-response","459","1810839","0.0-8.0-0.0-15.7","30","<p><img class= 'stimulus' src='images/baseline/Happy pose 3.jpg'></img></p>","null","","1550791536666","","","","","","",""
"null","","html-keyboard-response","460","1810939","0.0-8.0-0.0-16.7","30","<p><img class= 'stimulus' src='images/baseline/landscape23.jpg'></img></p>","null","","1550791536766","","","","","","",""
"null","","html-keyboard-response","461","1811056","0.0-8.0-0.0-17.7","30","<p><img class= 'stimulus' src='images/baseline/03056v.jpg'></img></p>","null","","1550791536866","","","","","","",""
"874.6999999857508","","html-button-response","462","1812948","0.0-8.0-0.0-18.7","30","<div class = ""response_question"">WAS THE IMAGE ROTATED...</div>","","0","","","6","2","neu","left","test","true"
"782.7999999863096","","html-button-response","463","1813732","0.0-8.0-0.0-0.8","30","","","0","","","","","","","",""
"null","","html-keyboard-response","464","1813806","0.0-8.0-0.0-1.8","30","<p><img class= 'stimulus' src='images/baseline/sun-through-winter-tree-branches1.jpg'></img></p>","null","","1550791539633","","","","","","",""
"null","","html-keyboard-response","465","1813907","0.0-8.0-0.0-2.8","30","<p><img class= 'stimulus' src='images/baseline/autumn-in-red-rocks-park.jpg'></img></p>","null","","1550791539732","","","","","","",""
"null","","html-keyboard-response","466","1814006","0.0-8.0-0.0-3.8","30","<p><img class= 'stimulus' src='images/baseline/Lake 16.jpg'></img></p>","null","","1550791539832","","","","","","",""
"null","","html-keyboard-response","467","1814106","0.0-8.0-0.0-4.8","30","<p><img class= 'stimulus' src='images/baseline/pexels-photo-1287089.jpeg'></img></p>","null","","1550791539932","4","","","","","",""
"null","","html-keyboard-response","468","1814207","0.0-8.0-0.0-5.8","30","<p><img class= 'stimulus' src='images/baseline/empire-state-building.jpg'></img></p>","null","","1550791540032","","","","","","",""
"null","","html-keyboard-response","469","1814306","0.0-8.0-0.0-6.8","30","<p><img class= 'stimulus' src='images/baseline/landscape39.jpg'></img></p>","null","","1550791540133","6","","","","","",""
"null","","html-keyboard-response","470","1814406","0.0-8.0-0.0-7.8","30","<p><img class= 'stimulus' src='images/baseline/04196v.jpg'></img></p>","null","","1550791540233","","","","","","",""
"null","","html-keyboard-response","471","1814506","0.0-8.0-0.0-8.8","30","<p><img class= 'stimulus' src='images/baseline/04014v.jpg'></img></p>","null","","1550791540334","8","","","","","",""
"null","","html-keyboard-response","472","1814605","0.0-8.0-0.0-9.8","30","<p><img class= 'stimulus' src='images/baseline/pexels-photo-750108.jpeg'></img></p>","null","","1550791540432","","","","","","",""
"null","","html-keyboard-response","473","1814706","0.0-8.0-0.0-10.8","30","<p><img class= 'stimulus' src='images/baseline/building2.jpg'></img></p>","null","","1550791540533","","","","","","",""
"null","","html-keyboard-response","474","1814806","0.0-8.0-0.0-11.8","30","<p><img class= 'stimulus' src='images/baseline/pexels-photo-414491.jpeg'></img></p>","null","","1550791540632","","","","","","",""
"null","","html-keyboard-response","475","1814906","0.0-8.0-0.0-12.8","30","<p><img class= 'stimulus' src='images/baseline/Lake 3.jpg'></img></p>","null","","1550791540732","12","","","","","",""
"null","","html-keyboard-response","476","1815006","0.0-8.0-0.0-13.8","30","<p><img class= 'stimulus' src='images/baseline/pexels-photo-1048039.jpeg'></img></p>","null","","1550791540832","","","","","","",""
"null","","html-keyboard-response","477","1815106","0.0-8.0-0.0-14.8","30","<p><img class= 'stimulus' src='images/target/building3.jpg'></img></p>","null","","1550791540932","14","","","","","",""
"null","","html-keyboard-response","478","1815206","0.0-8.0-0.0-15.8","30","<p><img class= 'stimulus' src='images/baseline/cranes 1.jpg'></img></p>","null","","1550791541032","","","","","","",""
"null","","html-keyboard-response","479","1815305","0.0-8.0-0.0-16.8","30","<p><img class= 'stimulus' src='images/baseline/05203v.jpg'></img></p>","null","","1550791541132","","","","","","",""
"null","","html-keyboard-response","480","1815422","0.0-8.0-0.0-17.8","30","<p><img class= 'stimulus' src='images/baseline/building3.jpg'></img></p>","null","","1550791541232","","","","","","",""
"1182.6000000000931","","html-button-response","481","1817611","0.0-8.0-0.0-18.8","30","<div class = ""response_question"">WAS THE IMAGE ROTATED...</div>","","3","","","6","8","bas","right","test","true"
"654.1999999899417","","html-button-response","482","1818268","0.0-8.0-0.0-0.9","30","","","0","","","","","","","",""
"null","","html-keyboard-response","483","1818339","0.0-8.0-0.0-1.9","30","<p><img class= 'stimulus' src='images/baseline/02962v.jpg'></img></p>","null","","1550791544165","","","","","","",""
"null","","html-keyboard-response","484","1818439","0.0-8.0-0.0-2.9","30","<p><img class= 'stimulus' src='images/baseline/farmhouse8.jpg'></img></p>","null","","1550791544266","","","","","","",""
"null","","html-keyboard-response","485","1818540","0.0-8.0-0.0-3.9","30","<p><img class= 'stimulus' src='images/baseline/cyrillic.jpg'></img></p>","null","","1550791544367","","","","","","",""
"null","","html-keyboard-response","486","1818639","0.0-8.0-0.0-4.9","30","<p><img class= 'stimulus' src='images/baseline/Sunset 3.jpg'></img></p>","null","","1550791544465","4","","","","","",""
"null","","html-keyboard-response","487","1818739","0.0-8.0-0.0-5.9","30","<p><img class= 'stimulus' src='images/baseline/Sailing 3.jpg'></img></p>","null","","1550791544566","","","","","","",""
"null","","html-keyboard-response","488","1818839","0.0-8.0-0.0-6.9","30","<p><img class= 'stimulus left-rotate' src='images/target/cactus2.jpg'></img></p>","null","","1550791544666","6","","","","","",""
"null","","html-keyboard-response","489","1818939","0.0-8.0-0.0-7.9","30","<p><img class= 'stimulus' src='images/baseline/landscape2.jpg'></img></p>","null","","1550791544765","","","","","","",""
"null","","html-keyboard-response","490","1819039","0.0-8.0-0.0-8.9","30","<p><img class= 'stimulus' src='images/baseline/02947v.jpg'></img></p>","null","","1550791544865","8","","","","","",""
"null","","html-keyboard-response","491","1819139","0.0-8.0-0.0-9.9","30","<p><img class= 'stimulus' src='images/baseline/02960v.jpg'></img></p>","null","","1550791544965","","","","","","",""
"null","","html-keyboard-response","492","1819240","0.0-8.0-0.0-10.9","30","<p><img class= 'stimulus' src='images/baseline/autumn-landscape-with-lake-fall-trees-mountains.jpg'></img></p>","null","","1550791545068","","","","","","",""
"null","","html-keyboard-response","493","1819339","0.0-8.0-0.0-11.9","30","<p><img class= 'stimulus' src='images/baseline/04063v.jpg'></img></p>","null","","1550791545166","","","","","","",""
"null","","html-keyboard-response","494","1819439","0.0-8.0-0.0-12.9","30","<p><img class= 'stimulus' src='images/baseline/pexels-photo-440731.jpeg'></img></p>","null","","1550791545267","12","","","","","",""
"null","","html-keyboard-response","495","1819539","0.0-8.0-0.0-13.9","30","<p><img class= 'stimulus' src='images/baseline/03041v.jpg'></img></p>","null","","1550791545367","","","","","","",""
"null","","html-keyboard-response","496","1819639","0.0-8.0-0.0-14.9","30","<p><img class= 'stimulus' src='images/baseline/Aletschgletscher-Eggishorn.jpg'></img></p>","null","","1550791545465","14","","","","","",""
"null","","html-keyboard-response","497","1819740","0.0-8.0-0.0-15.9","30","<p><img class= 'stimulus' src='images/baseline/Camping 10.jpg'></img></p>","null","","1550791545566","","","","","","",""
"null","","html-keyboard-response","498","1819838","0.0-8.0-0.0-16.9","30","<p><img class= 'stimulus' src='images/baseline/landscape34.jpg'></img></p>","null","","1550791545666","","","","","","",""
"null","","html-keyboard-response","499","1819956","0.0-8.0-0.0-17.9","30","<p><img class= 'stimulus' src='images/baseline/05247v.jpg'></img></p>","null","","1550791545765","","","","","","",""
"1131.299999949988","","html-button-response","500","1822091","0.0-8.0-0.0-18.9","30","<div class = ""response_question"">WAS THE IMAGE ROTATED...</div>","","0","","","4","2","bas","left","test","true"
"1102.4000000325032","","html-button-response","501","1823195","0.0-8.0-0.0-0.10","30","","","0","","","","","","","",""
"null","","html-keyboard-response","502","1823273","0.0-8.0-0.0-1.10","30","<p><img class= 'stimulus' src='images/baseline/landscape17.jpg'></img></p>","null","","1550791549099","","","","","","",""
"null","","html-keyboard-response","503","1823372","0.0-8.0-0.0-2.10","30","<p><img class= 'stimulus' src='images/baseline/dirt-road-or-trail-through-park.jpg'></img></p>","null","","1550791549199","","","","","","",""
"null","","html-keyboard-response","504","1823474","0.0-8.0-0.0-3.10","30","<p><img class= 'stimulus' src='images/baseline/lake 2.jpg'></img></p>","null","","1550791549299","","","","","","",""
"null","","html-keyboard-response","505","1823573","0.0-8.0-0.0-4.10","30","<p><img class= 'stimulus' src='images/negative/Car accident 4.jpg'></img></p>","null","","1550791549400","4","","","","","",""
"null","","html-keyboard-response","506","1823673","0.0-8.0-0.0-5.10","30","<p><img class= 'stimulus' src='images/baseline/field 3.jpg'></img></p>","null","","1550791549499","","","","","","",""
"null","","html-keyboard-response","507","1823772","0.0-8.0-0.0-6.10","30","<p><img class= 'stimulus' src='images/baseline/05139v.jpg'></img></p>","null","","1550791549600","6","","","","","",""
