"rt","responses","trial_type","trial_index","time_elapsed","internal_node_id","participant_id","stimulus","key_press","button_pressed","stim_onset","sequence_position","distractor_position","target_lag","distractor_type","target_orientation","phase","correct"
"69905.49999999348","{""Q0"":""45""}","survey-text","0","69904","0.0-0.0","45","","","","","","","","","","",""
"1089651.5999999829","","html-keyboard-response","1","1159572","0.0-1.0","45","Welcome to the experiment.","67","","","","","","","","",""
"33602.199999964796","","html-button-response","2","1193174","0.0-2.0","45","<p>Several images will be presented sequentially.        Each image will only be on the screen for about 100 milliseconds.</p>        <p> One of the images may be rotated 90 degrees right or left.        Watch for this image and remember if it is rotated right or left.</p>               <p>Images of people and animals will appear, and sometimes they will be unpleasant.        These will never be the rotated target image.</p>","","0","","","","","","","",""
"3014.3000000389293","","html-button-response","3","1196188","0.0-3.0","45","<p><img class=""stimulus left-rotate"" src=""images/target/oak-1913194_640.jpg""></img></p><p>This is an example of an image rotated to the left.</p>","","0","","","","","","","",""
"2062.8999999607913","","html-button-response","4","1198253","0.0-4.0","45","<p><img class=""stimulus"" src=""images/target/buildin5.jpg""></img></p><p>This is an example of an image rotated to the right.</p>","","0","","","","","","","",""
"19511.100000003353","","html-button-response","5","1217765","0.0-5.0","45","<p>We will now begin a short practice session.</p>         <p>A + symbol will appear in the middle of the screen. Please fix your gaze on the center of the +, and then click the mouse button to begin the image sequence.</p>         <p>Please avoid blinking or eye movements while the images are on the screen.</p>        <p>The image sequence will start relatively slow. After a few sequences, it will speed up.</p>","","0","","","","","","","",""
"2822.500000009313","","html-button-response","6","1220589","0.0-6.0-0.0","45","","","0","","","","","","","",""
"null","","html-keyboard-response","7","1220786","0.0-6.0-1.0","45","<p><img class= 'stimulus' src='images/baseline/Lake 9.jpg'></img></p>","null","","1551395927528","","","","","","",""
"null","","html-keyboard-response","8","1220986","0.0-6.0-2.0","45","<p><img class= 'stimulus' src='images/baseline/horse_statue.jpg'></img></p>","null","","1551395927728","","","","","","",""
"null","","html-keyboard-response","9","1221186","0.0-6.0-3.0","45","<p><img class= 'stimulus' src='images/baseline/lookout_tower.jpg'></img></p>","null","","1551395927929","","","","","","",""
"null","","html-keyboard-response","10","1221385","0.0-6.0-4.0","45","<p><img class= 'stimulus' src='images/baseline/landscape29.jpg'></img></p>","null","","1551395928129","4","","","","","",""
"null","","html-keyboard-response","11","1221586","0.0-6.0-5.0","45","<p><img class= 'stimulus' src='images/baseline/pexels-photo-210617.jpeg'></img></p>","null","","1551395928329","","","","","","",""
"null","","html-keyboard-response","12","1221786","0.0-6.0-6.0","45","<p><img class= 'stimulus' src='images/baseline/03063v.jpg'></img></p>","null","","1551395928529","6","","","","","",""
"null","","html-keyboard-response","13","1221985","0.0-6.0-7.0","45","<p><img class= 'stimulus' src='images/baseline/Kocherbaumwald-01.jpg'></img></p>","null","","1551395928729","","","","","","",""
"null","","html-keyboard-response","14","1222186","0.0-6.0-8.0","45","<p><img class= 'stimulus' src='images/target/building19.jpg'></img></p>","null","","1551395928929","8","","","","","",""
"null","","html-keyboard-response","15","1222386","0.0-6.0-9.0","45","<p><img class= 'stimulus' src='images/baseline/04040v.jpg'></img></p>","null","","1551395929130","","","","","","",""
"null","","html-keyboard-response","16","1222585","0.0-6.0-10.0","45","<p><img class= 'stimulus' src='images/baseline/pexels-photo-59321.jpeg'></img></p>","null","","1551395929329","","","","","","",""
"null","","html-keyboard-response","17","1222787","0.0-6.0-11.0","45","<p><img class= 'stimulus' src='images/baseline/4k-wallpaper-agriculture-clouds-842711.jpg'></img></p>","null","","1551395929529","","","","","","",""
"null","","html-keyboard-response","18","1222986","0.0-6.0-12.0","45","<p><img class= 'stimulus' src='images/baseline/farmhouse11.jpg'></img></p>","null","","1551395929730","12","","","","","",""
"null","","html-keyboard-response","19","1223186","0.0-6.0-13.0","45","<p><img class= 'stimulus' src='images/baseline/04222v.jpg'></img></p>","null","","1551395929930","","","","","","",""
"null","","html-keyboard-response","20","1223387","0.0-6.0-14.0","45","<p><img class= 'stimulus' src='images/baseline/farmhouse4.jpg'></img></p>","null","","1551395930129","14","","","","","",""
"null","","html-keyboard-response","21","1223587","0.0-6.0-15.0","45","<p><img class= 'stimulus' src='images/baseline/field 3.jpg'></img></p>","null","","1551395930330","","","","","","",""
"null","","html-keyboard-response","22","1223787","0.0-6.0-16.0","45","<p><img class= 'stimulus' src='images/baseline/Linden,_paysage.jpg'></img></p>","null","","1551395930531","","","","","","",""
"null","","html-keyboard-response","23","1224003","0.0-6.0-17.0","45","<p><img class= 'stimulus' src='images/baseline/landscape31.jpg'></img></p>","null","","1551395930730","","","","","","",""
"4707.400000013877","","html-button-response","24","1229717","0.0-6.0-18.0","45","<div class = ""response_question"">WAS THE IMAGE ROTATED...</div>","","4","","","6","2","bas","right","practice","true"
"2533.3999999566004","","html-button-response","25","1232252","0.0-6.0-0.1","45","","","0","","","","","","","",""
"null","","html-keyboard-response","26","1232437","0.0-6.0-1.1","45","<p><img class= 'stimulus' src='images/baseline/cyrillic.jpg'></img></p>","null","","1551395939180","","","","","","",""
"null","","html-keyboard-response","27","1232635","0.0-6.0-2.1","45","<p><img class= 'stimulus' src='images/baseline/geese-flying-over-lake-at-dusk.jpg'></img></p>","null","","1551395939379","","","","","","",""
"null","","html-keyboard-response","28","1232837","0.0-6.0-3.1","45","<p><img class= 'stimulus' src='images/baseline/02962v.jpg'></img></p>","null","","1551395939580","","","","","","",""
"null","","html-keyboard-response","29","1233037","0.0-6.0-4.1","45","<p><img class= 'stimulus' src='images/baseline/scenic-mountain-landscape.jpg'></img></p>","null","","1551395939780","4","","","","","",""
"null","","html-keyboard-response","30","1233237","0.0-6.0-5.1","45","<p><img class= 'stimulus' src='images/baseline/04201v.jpg'></img></p>","null","","1551395939981","","","","","","",""
"null","","html-keyboard-response","31","1233437","0.0-6.0-6.1","45","<p><img class= 'stimulus left-rotate' src='images/target/pexels-photo-1102846.jpeg'></img></p>","null","","1551395940180","6","","","","","",""
"null","","html-keyboard-response","32","1233639","0.0-6.0-7.1","45","<p><img class= 'stimulus' src='images/baseline/landscape34.jpg'></img></p>","null","","1551395940381","","","","","","",""
"null","","html-keyboard-response","33","1233839","0.0-6.0-8.1","45","<p><img class= 'stimulus' src='images/baseline/lake3.jpg'></img></p>","null","","1551395940582","8","","","","","",""
"null","","html-keyboard-response","34","1234038","0.0-6.0-9.1","45","<p><img class= 'stimulus' src='images/baseline/landscape11.jpg'></img></p>","null","","1551395940782","","","","","","",""
"null","","html-keyboard-response","35","1234238","0.0-6.0-10.1","45","<p><img class= 'stimulus' src='images/baseline/landscape3.jpg'></img></p>","null","","1551395940983","","","","","","",""
"null","","html-keyboard-response","36","1234439","0.0-6.0-11.1","45","<p><img class= 'stimulus' src='images/baseline/pexels-photo-440731.jpeg'></img></p>","null","","1551395941182","","","","","","",""
"null","","html-keyboard-response","37","1234638","0.0-6.0-12.1","45","<p><img class= 'stimulus' src='images/baseline/landscape8.jpg'></img></p>","null","","1551395941383","12","","","","","",""
"null","","html-keyboard-response","38","1234839","0.0-6.0-13.1","45","<p><img class= 'stimulus' src='images/baseline/Skyscraper 1.jpg'></img></p>","null","","1551395941582","","","","","","",""
"null","","html-keyboard-response","39","1235039","0.0-6.0-14.1","45","<p><img class= 'stimulus' src='images/baseline/pexels-photo-1261728.jpeg'></img></p>","null","","1551395941782","14","","","","","",""
"null","","html-keyboard-response","40","1235239","0.0-6.0-15.1","45","<p><img class= 'stimulus' src='images/baseline/Dirt 2.jpg'></img></p>","null","","1551395941982","","","","","","",""
"null","","html-keyboard-response","41","1235438","0.0-6.0-16.1","45","<p><img class= 'stimulus' src='images/baseline/03148v.jpg'></img></p>","null","","1551395942182","","","","","","",""
"null","","html-keyboard-response","42","1235655","0.0-6.0-17.1","45","<p><img class= 'stimulus' src='images/baseline/Peyto_Lake-Banff_NP-Canada.jpg'></img></p>","null","","1551395942382","","","","","","",""
"4480.099999986123","","html-button-response","43","1241141","0.0-6.0-18.1","45","<div class = ""response_question"">WAS THE IMAGE ROTATED...</div>","","1","","","4","2","bas","left","practice","true"
"2308.6999999941327","","html-button-response","44","1243453","0.0-6.0-0.2","45","","","0","","","","","","","",""
"null","","html-keyboard-response","45","1243637","0.0-6.0-1.2","45","<p><img class= 'stimulus' src='images/baseline/05252v.jpg'></img></p>","null","","1551395950381","","","","","","",""
"null","","html-keyboard-response","46","1243838","0.0-6.0-2.2","45","<p><img class= 'stimulus' src='images/baseline/04014v.jpg'></img></p>","null","","1551395950580","","","","","","",""
"null","","html-keyboard-response","47","1244038","0.0-6.0-3.2","45","<p><img class= 'stimulus' src='images/baseline/05186v.jpg'></img></p>","null","","1551395950781","","","","","","",""
"null","","html-keyboard-response","48","1244238","0.0-6.0-4.2","45","<p><img class= 'stimulus' src='images/baseline/landscape16.jpg'></img></p>","null","","1551395950981","4","","","","","",""
"null","","html-keyboard-response","49","1244437","0.0-6.0-5.2","45","<p><img class= 'stimulus' src='images/baseline/autumn-in-red-rocks-park.jpg'></img></p>","null","","1551395951181","","","","","","",""
"null","","html-keyboard-response","50","1244637","0.0-6.0-6.2","45","<p><img class= 'stimulus' src='images/baseline/05280v.jpg'></img></p>","null","","1551395951381","6","","","","","",""
"null","","html-keyboard-response","51","1244838","0.0-6.0-7.2","45","<p><img class= 'stimulus' src='images/baseline/road.jpg'></img></p>","null","","1551395951582","","","","","","",""
"null","","html-keyboard-response","52","1245037","0.0-6.0-8.2","45","<p><img class= 'stimulus' src='images/baseline/pexels-photo-568236.jpeg'></img></p>","null","","1551395951780","8","","","","","",""
"null","","html-keyboard-response","53","1245241","0.0-6.0-9.2","45","<p><img class= 'stimulus' src='images/baseline/pexels-photo-280222.jpeg'></img></p>","null","","1551395951981","","","","","","",""
"null","","html-keyboard-response","54","1245438","0.0-6.0-10.2","45","<p><img class= 'stimulus' src='images/baseline/Dock 1.jpg'></img></p>","null","","1551395952185","","","","","","",""
"null","","html-keyboard-response","55","1245639","0.0-6.0-11.2","45","<p><img class= 'stimulus' src='images/baseline/house6.jpg'></img></p>","null","","1551395952383","","","","","","",""
"null","","html-keyboard-response","56","1245839","0.0-6.0-12.2","45","<p><img class= 'stimulus left-rotate' src='images/target/oak-456524_640.jpg'></img></p>","null","","1551395952582","12","","","","","",""
"null","","html-keyboard-response","57","1246041","0.0-6.0-13.2","45","<p><img class= 'stimulus' src='images/baseline/05303v.jpg'></img></p>","null","","1551395952783","","","","","","",""
"null","","html-keyboard-response","58","1246238","0.0-6.0-14.2","45","<p><img class= 'stimulus' src='images/baseline/agriculture-bright-clouds-440731.jpg'></img></p>","null","","1551395952983","14","","","","","",""
"null","","html-keyboard-response","59","1246439","0.0-6.0-15.2","45","<p><img class= 'stimulus' src='images/baseline/Skyscraper 2.jpg'></img></p>","null","","1551395953182","","","","","","",""
"null","","html-keyboard-response","60","1246643","0.0-6.0-16.2","45","<p><img class= 'stimulus' src='images/baseline/05264v.jpg'></img></p>","null","","1551395953381","","","","","","",""
"null","","html-keyboard-response","61","1246856","0.0-6.0-17.2","45","<p><img class= 'stimulus' src='images/baseline/__08_-_ITALY_-_Forli_under_snow_-_winter_landscape_of_city_(christmas).jpg'></img></p>","null","","1551395953585","","","","","","",""
"1025.1000000280328","","html-button-response","62","1248885","0.0-6.0-18.2","45","<div class = ""response_question"">WAS THE IMAGE ROTATED...</div>","","0","","","4","8","bas","left","practice","true"
"2094.4000000017695","","html-button-response","63","1250981","0.0-6.0-0.3","45","","","0","","","","","","","",""
"null","","html-keyboard-response","64","1251153","0.0-6.0-1.3","45","<p><img class= 'stimulus' src='images/baseline/03056v.jpg'></img></p>","null","","1551395957897","","","","","","",""
"null","","html-keyboard-response","65","1251353","0.0-6.0-2.3","45","<p><img class= 'stimulus' src='images/baseline/landscape40.jpg'></img></p>","null","","1551395958096","","","","","","",""
"null","","html-keyboard-response","66","1251553","0.0-6.0-3.3","45","<p><img class= 'stimulus' src='images/baseline/cranes 1.jpg'></img></p>","null","","1551395958296","","","","","","",""
"null","","html-keyboard-response","67","1251753","0.0-6.0-4.3","45","<p><img class= 'stimulus' src='images/baseline/sun-through-winter-tree-branches1.jpg'></img></p>","null","","1551395958497","4","","","","","",""
"null","","html-keyboard-response","68","1251953","0.0-6.0-5.3","45","<p><img class= 'stimulus' src='images/baseline/meadow-with-mountain-in-background.jpg'></img></p>","null","","1551395958696","","","","","","",""
"null","","html-keyboard-response","69","1252153","0.0-6.0-6.3","45","<p><img class= 'stimulus' src='images/baseline/landscape39.jpg'></img></p>","null","","1551395958896","6","","","","","",""
"null","","html-keyboard-response","70","1252354","0.0-6.0-7.3","45","<p><img class= 'stimulus' src='images/baseline/Road 1.jpg'></img></p>","null","","1551395959096","","","","","","",""
"null","","html-keyboard-response","71","1252554","0.0-6.0-8.3","45","<p><img class= 'stimulus' src='images/baseline/farmhouse9.jpg'></img></p>","null","","1551395959297","8","","","","","",""
"null","","html-keyboard-response","72","1252753","0.0-6.0-9.3","45","<p><img class= 'stimulus' src='images/baseline/river 1.jpg'></img></p>","null","","1551395959497","","","","","","",""
"null","","html-keyboard-response","73","1252955","0.0-6.0-10.3","45","<p><img class= 'stimulus' src='images/baseline/landscape15.jpg'></img></p>","null","","1551395959697","","","","","","",""
"null","","html-keyboard-response","74","1253160","0.0-6.0-11.3","45","<p><img class= 'stimulus' src='images/baseline/05161v.jpg'></img></p>","null","","1551395959898","","","","","","",""
"null","","html-keyboard-response","75","1253359","0.0-6.0-12.3","45","<p><img class= 'stimulus' src='images/baseline/valley 2.jpg'></img></p>","null","","1551395960103","12","","","","","",""
"null","","html-keyboard-response","76","1253560","0.0-6.0-13.3","45","<p><img class= 'stimulus' src='images/baseline/agriculture-countryside-crop-259280.jpg'></img></p>","null","","1551395960303","","","","","","",""
"null","","html-keyboard-response","77","1253761","0.0-6.0-14.3","45","<p><img class= 'stimulus' src='images/target/sand-3339890_640.jpg'></img></p>","null","","1551395960503","14","","","","","",""
"null","","html-keyboard-response","78","1253962","0.0-6.0-15.3","45","<p><img class= 'stimulus' src='images/baseline/05158v.jpg'></img></p>","null","","1551395960704","","","","","","",""
"null","","html-keyboard-response","79","1254161","0.0-6.0-16.3","45","<p><img class= 'stimulus' src='images/baseline/pexels-photo-414491.jpeg'></img></p>","null","","1551395960906","","","","","","",""
"null","","html-keyboard-response","80","1254381","0.0-6.0-17.3","45","<p><img class= 'stimulus' src='images/baseline/04063v.jpg'></img></p>","null","","1551395961103","","","","","","",""
"997.399999992922","","html-button-response","81","1256395","0.0-6.0-18.3","45","<div class = ""response_question"">WAS THE IMAGE ROTATED...</div>","","3","","","6","8","bas","right","practice","true"
"1510.4000000283122","","html-button-response","82","1257907","0.0-6.0-0.4","45","","","0","","","","","","","",""
"null","","html-keyboard-response","83","1258043","0.0-6.0-1.4","45","<p><img class= 'stimulus' src='images/baseline/Lake 4.jpg'></img></p>","null","","1551395964837","","","","","","",""
"null","","html-keyboard-response","84","1258193","0.0-6.0-2.4","45","<p><img class= 'stimulus' src='images/baseline/building16.jpg'></img></p>","null","","1551395964986","","","","","","",""
"null","","html-keyboard-response","85","1258343","0.0-6.0-3.4","45","<p><img class= 'stimulus' src='images/baseline/pexels-photo-1048039.jpeg'></img></p>","null","","1551395965137","","","","","","",""
"null","","html-keyboard-response","86","1258493","0.0-6.0-4.4","45","<p><img class= 'stimulus' src='images/baseline/02971v.jpg'></img></p>","null","","1551395965287","4","","","","","",""
"null","","html-keyboard-response","87","1258643","0.0-6.0-5.4","45","<p><img class= 'stimulus' src='images/baseline/hills 1.jpg'></img></p>","null","","1551395965436","","","","","","",""
"null","","html-keyboard-response","88","1258793","0.0-6.0-6.4","45","<p><img class= 'stimulus' src='images/baseline/field 4.jpg'></img></p>","null","","1551395965586","6","","","","","",""
"null","","html-keyboard-response","89","1258942","0.0-6.0-7.4","45","<p><img class= 'stimulus' src='images/baseline/landscape36.jpg'></img></p>","null","","1551395965736","","","","","","",""
"null","","html-keyboard-response","90","1259092","0.0-6.0-8.4","45","<p><img class= 'stimulus' src='images/baseline/Camping 10.jpg'></img></p>","null","","1551395965886","8","","","","","",""
"null","","html-keyboard-response","91","1259242","0.0-6.0-9.4","45","<p><img class= 'stimulus' src='images/baseline/pexels-photo-259280.jpeg'></img></p>","null","","1551395966036","","","","","","",""
"null","","html-keyboard-response","92","1259393","0.0-6.0-10.4","45","<p><img class= 'stimulus' src='images/baseline/Sunset 5.jpg'></img></p>","null","","1551395966185","","","","","","",""
"null","","html-keyboard-response","93","1259543","0.0-6.0-11.4","45","<p><img class= 'stimulus' src='images/baseline/kokkari-1523011968Xfr.jpg'></img></p>","null","","1551395966336","","","","","","",""
"null","","html-keyboard-response","94","1259693","0.0-6.0-12.4","45","<p><img class= 'stimulus' src='images/baseline/house10.jpg'></img></p>","null","","1551395966486","12","","","","","",""
"null","","html-keyboard-response","95","1259842","0.0-6.0-13.4","45","<p><img class= 'stimulus' src='images/baseline/building_at_national_conservation.jpg'></img></p>","null","","1551395966636","","","","","","",""
"null","","html-keyboard-response","96","1259992","0.0-6.0-14.4","45","<p><img class= 'stimulus left-rotate' src='images/target/tree1.jpg'></img></p>","null","","1551395966786","14","","","","","",""
"null","","html-keyboard-response","97","1260142","0.0-6.0-15.4","45","<p><img class= 'stimulus' src='images/baseline/landscape37.jpg'></img></p>","null","","1551395966936","","","","","","",""
"null","","html-keyboard-response","98","1260293","0.0-6.0-16.4","45","<p><img class= 'stimulus' src='images/baseline/04300v.jpg'></img></p>","null","","1551395967085","","","","","","",""
"null","","html-keyboard-response","99","1260459","0.0-6.0-17.4","45","<p><img class= 'stimulus' src='images/baseline/Lake 5.jpg'></img></p>","null","","1551395967236","","","","","","",""
"7244.699999981094","","html-button-response","100","1268706","0.0-6.0-18.4","45","<div class = ""response_question"">WAS THE IMAGE ROTATED...</div>","","1","","","6","8","bas","left","practice","true"
"2358.799999987241","","html-button-response","101","1271067","0.0-6.0-0.5","45","","","0","","","","","","","",""
"null","","html-keyboard-response","102","1271192","0.0-6.0-1.5","45","<p><img class= 'stimulus' src='images/baseline/sunset-over-the-lake.jpg'></img></p>","null","","1551395977986","","","","","","",""
"null","","html-keyboard-response","103","1271342","0.0-6.0-2.5","45","<p><img class= 'stimulus' src='images/baseline/seoul-410266_1920.jpg'></img></p>","null","","1551395978135","","","","","","",""
"null","","html-keyboard-response","104","1271493","0.0-6.0-3.5","45","<p><img class= 'stimulus' src='images/baseline/03180v.jpg'></img></p>","null","","1551395978286","","","","","","",""
"null","","html-keyboard-response","105","1271642","0.0-6.0-4.5","45","<p><img class= 'stimulus' src='images/baseline/hills 4.jpg'></img></p>","null","","1551395978435","4","","","","","",""
"null","","html-keyboard-response","106","1271792","0.0-6.0-5.5","45","<p><img class= 'stimulus' src='images/baseline/farmhouse8.jpg'></img></p>","null","","1551395978586","","","","","","",""
"null","","html-keyboard-response","107","1271942","0.0-6.0-6.5","45","<p><img class= 'stimulus' src='images/target/torrotito-375925_640.jpg'></img></p>","null","","1551395978736","6","","","","","",""
"null","","html-keyboard-response","108","1272092","0.0-6.0-7.5","45","<p><img class= 'stimulus' src='images/baseline/Happy pose 3.jpg'></img></p>","null","","1551395978886","","","","","","",""
"null","","html-keyboard-response","109","1272242","0.0-6.0-8.5","45","<p><img class= 'stimulus' src='images/baseline/valley 1.jpg'></img></p>","null","","1551395979036","8","","","","","",""
"null","","html-keyboard-response","110","1272392","0.0-6.0-9.5","45","<p><img class= 'stimulus' src='images/baseline/Niinsaare_jarv.jpg'></img></p>","null","","1551395979185","","","","","","",""
"null","","html-keyboard-response","111","1272542","0.0-6.0-10.5","45","<p><img class= 'stimulus' src='images/baseline/architecture-1314416_1920.jpg'></img></p>","null","","1551395979336","","","","","","",""
"null","","html-keyboard-response","112","1272693","0.0-6.0-11.5","45","<p><img class= 'stimulus' src='images/baseline/05242v.jpg'></img></p>","null","","1551395979486","","","","","","",""
"null","","html-keyboard-response","113","1272843","0.0-6.0-12.5","45","<p><img class= 'stimulus' src='images/baseline/Lake 13.jpg'></img></p>","null","","1551395979635","12","","","","","",""
"null","","html-keyboard-response","114","1272992","0.0-6.0-13.5","45","<p><img class= 'stimulus' src='images/baseline/pexels-photo-1287089.jpeg'></img></p>","null","","1551395979786","","","","","","",""
"null","","html-keyboard-response","115","1273143","0.0-6.0-14.5","45","<p><img class= 'stimulus' src='images/baseline/03098v.jpg'></img></p>","null","","1551395979935","14","","","","","",""
"null","","html-keyboard-response","116","1273293","0.0-6.0-15.5","45","<p><img class= 'stimulus' src='images/baseline/04010v.jpg'></img></p>","null","","1551395980086","","","","","","",""
"null","","html-keyboard-response","117","1273442","0.0-6.0-16.5","45","<p><img class= 'stimulus' src='images/baseline/Lake 15.jpg'></img></p>","null","","1551395980235","","","","","","",""
"null","","html-keyboard-response","118","1273610","0.0-6.0-17.5","45","<p><img class= 'stimulus' src='images/baseline/05247v.jpg'></img></p>","null","","1551395980385","","","","","","",""
"1571.799999976065","","html-button-response","119","1276187","0.0-6.0-18.5","45","<div class = ""response_question"">WAS THE IMAGE ROTATED...</div>","","4","","","4","2","bas","right","practice","true"
"1334.3999999924563","","html-button-response","120","1277523","0.0-6.0-0.6","45","","","0","","","","","","","",""
"null","","html-keyboard-response","121","1277658","0.0-6.0-1.6","45","<p><img class= 'stimulus' src='images/baseline/foreclosed_home.jpg'></img></p>","null","","1551395984453","","","","","","",""
"null","","html-keyboard-response","122","1277809","0.0-6.0-2.6","45","<p><img class= 'stimulus' src='images/baseline/bird-flying-at-sunset.jpg'></img></p>","null","","1551395984603","","","","","","",""
"null","","html-keyboard-response","123","1277959","0.0-6.0-3.6","45","<p><img class= 'stimulus' src='images/baseline/04179v.jpg'></img></p>","null","","1551395984753","","","","","","",""
"null","","html-keyboard-response","124","1278109","0.0-6.0-4.6","45","<p><img class= 'stimulus' src='images/baseline/farmhouse6.jpg'></img></p>","null","","1551395984902","4","","","","","",""
"null","","html-keyboard-response","125","1278259","0.0-6.0-5.6","45","<p><img class= 'stimulus' src='images/baseline/Cold 7.jpg'></img></p>","null","","1551395985052","","","","","","",""
"null","","html-keyboard-response","126","1278409","0.0-6.0-6.6","45","<p><img class= 'stimulus' src='images/baseline/house2.jpg'></img></p>","null","","1551395985203","6","","","","","",""
"null","","html-keyboard-response","127","1278559","0.0-6.0-7.6","45","<p><img class= 'stimulus' src='images/baseline/building8.jpg'></img></p>","null","","1551395985353","","","","","","",""
"null","","html-keyboard-response","128","1278709","0.0-6.0-8.6","45","<p><img class= 'stimulus' src='images/baseline/pexels-photo-894312.jpeg'></img></p>","null","","1551395985502","8","","","","","",""
"null","","html-keyboard-response","129","1278859","0.0-6.0-9.6","45","<p><img class= 'stimulus' src='images/baseline/farmhouse7.jpg'></img></p>","null","","1551395985653","","","","","","",""
"null","","html-keyboard-response","130","1279008","0.0-6.0-10.6","45","<p><img class= 'stimulus' src='images/baseline/05279v.jpg'></img></p>","null","","1551395985803","","","","","","",""
"null","","html-keyboard-response","131","1279159","0.0-6.0-11.6","45","<p><img class= 'stimulus' src='images/baseline/Freudenberg_sg_Switzerland.jpg'></img></p>","null","","1551395985953","","","","","","",""
"null","","html-keyboard-response","132","1279309","0.0-6.0-12.6","45","<p><img class= 'stimulus' src='images/target/dubai-1113262_640.jpg'></img></p>","null","","1551395986102","12","","","","","",""
"null","","html-keyboard-response","133","1279458","0.0-6.0-13.6","45","<p><img class= 'stimulus' src='images/baseline/Sunset 6.jpg'></img></p>","null","","1551395986253","","","","","","",""
"null","","html-keyboard-response","134","1279610","0.0-6.0-14.6","45","<p><img class= 'stimulus' src='images/baseline/pexels-photo-750108.jpeg'></img></p>","null","","1551395986402","14","","","","","",""
"null","","html-keyboard-response","135","1279760","0.0-6.0-15.6","45","<p><img class= 'stimulus' src='images/baseline/Sunset 3.jpg'></img></p>","null","","1551395986552","","","","","","",""
"null","","html-keyboard-response","136","1279908","0.0-6.0-16.6","45","<p><img class= 'stimulus' src='images/baseline/dirt-road-or-trail-through-park.jpg'></img></p>","null","","1551395986702","","","","","","",""
"null","","html-keyboard-response","137","1280075","0.0-6.0-17.6","45","<p><img class= 'stimulus' src='images/baseline/architecture_modern_architecture_852928.jpg'></img></p>","null","","1551395986853","","","","","","",""
"1379.7999999951571","","html-button-response","138","1282459","0.0-6.0-18.6","45","<div class = ""response_question"">WAS THE IMAGE ROTATED...</div>","","4","","","4","8","bas","right","practice","true"
"1270.3999999794178","","html-button-response","139","1283731","0.0-6.0-0.7","45","","","0","","","","","","","",""
"null","","html-keyboard-response","140","1283860","0.0-6.0-1.7","45","<p><img class= 'stimulus' src='images/baseline/02977v.jpg'></img></p>","null","","1551395990652","","","","","","",""
"null","","html-keyboard-response","141","1284009","0.0-6.0-2.7","45","<p><img class= 'stimulus' src='images/baseline/Paysage_karabagh_02.jpg'></img></p>","null","","1551395990802","","","","","","",""
"null","","html-keyboard-response","142","1284159","0.0-6.0-3.7","45","<p><img class= 'stimulus' src='images/baseline/04158v.jpg'></img></p>","null","","1551395990952","","","","","","",""
"null","","html-keyboard-response","143","1284309","0.0-6.0-4.7","45","<p><img class= 'stimulus' src='images/baseline/landscape4.jpg'></img></p>","null","","1551395991101","4","","","","","",""
"null","","html-keyboard-response","144","1284459","0.0-6.0-5.7","45","<p><img class= 'stimulus' src='images/baseline/Street 1.jpg'></img></p>","null","","1551395991252","","","","","","",""
"null","","html-keyboard-response","145","1284609","0.0-6.0-6.7","45","<p><img class= 'stimulus' src='images/baseline/03114v.jpg'></img></p>","null","","1551395991402","6","","","","","",""
"null","","html-keyboard-response","146","1284759","0.0-6.0-7.7","45","<p><img class= 'stimulus' src='images/baseline/red-rocks-park.jpg'></img></p>","null","","1551395991553","","","","","","",""
"null","","html-keyboard-response","147","1284908","0.0-6.0-8.7","45","<p><img class= 'stimulus left-rotate' src='images/target/mitre peak.jpg'></img></p>","null","","1551395991702","8","","","","","",""
"null","","html-keyboard-response","148","1285060","0.0-6.0-9.7","45","<p><img class= 'stimulus' src='images/baseline/02945v.jpg'></img></p>","null","","1551395991852","","","","","","",""
"null","","html-keyboard-response","149","1285209","0.0-6.0-10.7","45","<p><img class= 'stimulus' src='images/baseline/04031v.jpg'></img></p>","null","","1551395992004","","","","","","",""
"null","","html-keyboard-response","150","1285359","0.0-6.0-11.7","45","<p><img class= 'stimulus' src='images/baseline/03066v.jpg'></img></p>","null","","1551395992152","","","","","","",""
"null","","html-keyboard-response","151","1285509","0.0-6.0-12.7","45","<p><img class= 'stimulus' src='images/baseline/pexels-photo-541101.jpeg'></img></p>","null","","1551395992303","12","","","","","",""
"null","","html-keyboard-response","152","1285659","0.0-6.0-13.7","45","<p><img class= 'stimulus' src='images/baseline/Bahia_Onelli_Parque_Nacional_Los_Glaciares_Patagonia_Argentina_Luca_Galuzzi_2005.jpg'></img></p>","null","","1551395992452","","","","","","",""
"null","","html-keyboard-response","153","1285809","0.0-6.0-14.7","45","<p><img class= 'stimulus' src='images/baseline/road 1(1).jpg'></img></p>","null","","1551395992603","14","","","","","",""
"null","","html-keyboard-response","154","1285958","0.0-6.0-15.7","45","<p><img class= 'stimulus' src='images/baseline/lake 2.jpg'></img></p>","null","","1551395992753","","","","","","",""
"null","","html-keyboard-response","155","1286109","0.0-6.0-16.7","45","<p><img class= 'stimulus' src='images/baseline/pexels-photo-221125.jpeg'></img></p>","null","","1551395992902","","","","","","",""
"null","","html-keyboard-response","156","1286276","0.0-6.0-17.7","45","<p><img class= 'stimulus' src='images/baseline/05145v.jpg'></img></p>","null","","1551395993053","","","","","","",""
"2178.8999999989755","","html-button-response","157","1289459","0.0-6.0-18.7","45","<div class = ""response_question"">WAS THE IMAGE ROTATED...</div>","","2","","","6","2","bas","left","practice","false"
"2542.299999971874","","html-button-response","158","1292003","0.0-6.0-0.8","45","","","0","","","","","","","",""
"null","","html-keyboard-response","159","1292075","0.0-6.0-1.8","45","<p><img class= 'stimulus' src='images/baseline/farmhouse3.jpg'></img></p>","null","","1551395998919","","","","","","",""
"null","","html-keyboard-response","160","1292175","0.0-6.0-2.8","45","<p><img class= 'stimulus' src='images/baseline/02982v.jpg'></img></p>","null","","1551395999021","","","","","","",""
"null","","html-keyboard-response","161","1292275","0.0-6.0-3.8","45","<p><img class= 'stimulus' src='images/baseline/05189v.jpg'></img></p>","null","","1551395999119","","","","","","",""
"null","","html-keyboard-response","162","1292376","0.0-6.0-4.8","45","<p><img class= 'stimulus' src='images/baseline/05179v.jpg'></img></p>","null","","1551395999219","4","","","","","",""
"null","","html-keyboard-response","163","1292475","0.0-6.0-5.8","45","<p><img class= 'stimulus' src='images/baseline/03075v.jpg'></img></p>","null","","1551395999320","","","","","","",""
"null","","html-keyboard-response","164","1292576","0.0-6.0-6.8","45","<p><img class= 'stimulus left-rotate' src='images/target/tree.jpeg'></img></p>","null","","1551395999418","6","","","","","",""
"null","","html-keyboard-response","165","1292676","0.0-6.0-7.8","45","<p><img class= 'stimulus' src='images/baseline/chicago-skyline-at-night-1476869511p8U.jpg'></img></p>","null","","1551395999519","","","","","","",""
"null","","html-keyboard-response","166","1292776","0.0-6.0-8.8","45","<p><img class= 'stimulus' src='images/baseline/02947v.jpg'></img></p>","null","","1551395999619","8","","","","","",""
"null","","html-keyboard-response","167","1292876","0.0-6.0-9.8","45","<p><img class= 'stimulus' src='images/baseline/04021v.jpg'></img></p>","null","","1551395999719","","","","","","",""
"null","","html-keyboard-response","168","1292975","0.0-6.0-10.8","45","<p><img class= 'stimulus' src='images/baseline/empire-state-building.jpg'></img></p>","null","","1551395999819","","","","","","",""
"null","","html-keyboard-response","169","1293076","0.0-6.0-11.8","45","<p><img class= 'stimulus' src='images/baseline/lone-old-cottonwood-tree.jpg'></img></p>","null","","1551395999920","","","","","","",""
"null","","html-keyboard-response","170","1293175","0.0-6.0-12.8","45","<p><img class= 'stimulus' src='images/baseline/landscape35.jpg'></img></p>","null","","1551396000019","12","","","","","",""
"null","","html-keyboard-response","171","1293275","0.0-6.0-13.8","45","<p><img class= 'stimulus' src='images/baseline/Lake 14.jpg'></img></p>","null","","1551396000120","","","","","","",""
"null","","html-keyboard-response","172","1293375","0.0-6.0-14.8","45","<p><img class= 'stimulus' src='images/baseline/Beach 2.jpg'></img></p>","null","","1551396000218","14","","","","","",""
"null","","html-keyboard-response","173","1293476","0.0-6.0-15.8","45","<p><img class= 'stimulus' src='images/baseline/03201v.jpg'></img></p>","null","","1551396000319","","","","","","",""
"null","","html-keyboard-response","174","1293575","0.0-6.0-16.8","45","<p><img class= 'stimulus' src='images/baseline/landscape17.jpg'></img></p>","null","","1551396000419","","","","","","",""
"null","","html-keyboard-response","175","1293692","0.0-6.0-17.8","45","<p><img class= 'stimulus' src='images/baseline/05131v.jpg'></img></p>","null","","1551396000519","","","","","","",""
"4401.899999997113","","html-button-response","176","1299099","0.0-6.0-18.8","45","<div class = ""response_question"">WAS THE IMAGE ROTATED...</div>","","5","","","4","2","bas","left","practice","false"
"1598.3000000123866","","html-button-response","177","1300699","0.0-6.0-0.9","45","","","0","","","","","","","",""
"null","","html-keyboard-response","178","1300776","0.0-6.0-1.9","45","<p><img class= 'stimulus' src='images/baseline/02988v.jpg'></img></p>","null","","1551396007619","","","","","","",""
"null","","html-keyboard-response","179","1300875","0.0-6.0-2.9","45","<p><img class= 'stimulus' src='images/baseline/landscape6.jpg'></img></p>","null","","1551396007719","","","","","","",""
"null","","html-keyboard-response","180","1300975","0.0-6.0-3.9","45","<p><img class= 'stimulus' src='images/baseline/04117v.jpg'></img></p>","null","","1551396007819","","","","","","",""
"null","","html-keyboard-response","181","1301076","0.0-6.0-4.9","45","<p><img class= 'stimulus' src='images/baseline/landscape23.jpg'></img></p>","null","","1551396007919","4","","","","","",""
"null","","html-keyboard-response","182","1301176","0.0-6.0-5.9","45","<p><img class= 'stimulus' src='images/baseline/pexels-photo-1840893.jpeg'></img></p>","null","","1551396008019","","","","","","",""
"null","","html-keyboard-response","183","1301276","0.0-6.0-6.9","45","<p><img class= 'stimulus' src='images/baseline/04085v.jpg'></img></p>","null","","1551396008119","6","","","","","",""
"null","","html-keyboard-response","184","1301376","0.0-6.0-7.9","45","<p><img class= 'stimulus' src='images/baseline/house8.jpg'></img></p>","null","","1551396008220","","","","","","",""
"null","","html-keyboard-response","185","1301476","0.0-6.0-8.9","45","<p><img class= 'stimulus' src='images/baseline/city-silhouette-at-sunset-871291580819Esw.jpg'></img></p>","null","","1551396008319","8","","","","","",""
"null","","html-keyboard-response","186","1301577","0.0-6.0-9.9","45","<p><img class= 'stimulus' src='images/baseline/farmhouse2.jpg'></img></p>","null","","1551396008419","","","","","","",""
"null","","html-keyboard-response","187","1301676","0.0-6.0-10.9","45","<p><img class= 'stimulus' src='images/baseline/autumn-landscape-with-lake-fall-trees-mountains.jpg'></img></p>","null","","1551396008519","","","","","","",""
"null","","html-keyboard-response","188","1301775","0.0-6.0-11.9","45","<p><img class= 'stimulus' src='images/baseline/field 2.jpg'></img></p>","null","","1551396008620","","","","","","",""
"null","","html-keyboard-response","189","1301876","0.0-6.0-12.9","45","<p><img class= 'stimulus left-rotate' src='images/target/oak-1913194_640.jpg'></img></p>","null","","1551396008719","12","","","","","",""
"null","","html-keyboard-response","190","1301976","0.0-6.0-13.9","45","<p><img class= 'stimulus' src='images/baseline/03045v.jpg'></img></p>","null","","1551396008819","","","","","","",""
"null","","html-keyboard-response","191","1302075","0.0-6.0-14.9","45","<p><img class= 'stimulus' src='images/baseline/pexels-photo-351264.jpeg'></img></p>","null","","1551396008920","14","","","","","",""
"null","","html-keyboard-response","192","1302175","0.0-6.0-15.9","45","<p><img class= 'stimulus' src='images/baseline/landscape7.jpg'></img></p>","null","","1551396009019","","","","","","",""
"null","","html-keyboard-response","193","1302276","0.0-6.0-16.9","45","<p><img class= 'stimulus' src='images/baseline/04130v.jpg'></img></p>","null","","1551396009119","","","","","","",""
"null","","html-keyboard-response","194","1302393","0.0-6.0-17.9","45","<p><img class= 'stimulus' src='images/baseline/05198v.jpg'></img></p>","null","","1551396009219","","","","","","",""
"1326.3000000151806","","html-button-response","195","1304723","0.0-6.0-18.9","45","<div class = ""response_question"">WAS THE IMAGE ROTATED...</div>","","0","","","4","8","bas","left","practice","true"
"1854.4000000110827","","html-button-response","196","1306579","0.0-6.0-0.10","45","","","0","","","","","","","",""
"null","","html-keyboard-response","197","1306660","0.0-6.0-1.10","45","<p><img class= 'stimulus' src='images/baseline/05203v.jpg'></img></p>","null","","1551396013503","","","","","","",""
"null","","html-keyboard-response","198","1306760","0.0-6.0-2.10","45","<p><img class= 'stimulus' src='images/baseline/building6.jpg'></img></p>","null","","1551396013603","","","","","","",""
"null","","html-keyboard-response","199","1306859","0.0-6.0-3.10","45","<p><img class= 'stimulus' src='images/baseline/red rocks from afar.jpg'></img></p>","null","","1551396013704","","","","","","",""
"null","","html-keyboard-response","200","1306959","0.0-6.0-4.10","45","<p><img class= 'stimulus' src='images/baseline/03112v.jpg'></img></p>","null","","1551396013804","4","","","","","",""
"null","","html-keyboard-response","201","1307059","0.0-6.0-5.10","45","<p><img class= 'stimulus' src='images/baseline/05139v.jpg'></img></p>","null","","1551396013904","","","","","","",""
"null","","html-keyboard-response","202","1307160","0.0-6.0-6.10","45","<p><img class= 'stimulus' src='images/baseline/pexels-photo-459203.jpeg'></img></p>","null","","1551396014003","6","","","","","",""
"null","","html-keyboard-response","203","1307259","0.0-6.0-7.10","45","<p><img class= 'stimulus' src='images/baseline/building9.jpg'></img></p>","null","","1551396014102","","","","","","",""
"null","","html-keyboard-response","204","1307359","0.0-6.0-8.10","45","<p><img class= 'stimulus' src='images/baseline/landscape38.jpg'></img></p>","null","","1551396014203","8","","","","","",""
"null","","html-keyboard-response","205","1307460","0.0-6.0-9.10","45","<p><img class= 'stimulus' src='images/baseline/building12.jpg'></img></p>","null","","1551396014302","","","","","","",""
"null","","html-keyboard-response","206","1307559","0.0-6.0-10.10","45","<p><img class= 'stimulus' src='images/baseline/hiking-trail.jpg'></img></p>","null","","1551396014403","","","","","","",""
"null","","html-keyboard-response","207","1307659","0.0-6.0-11.10","45","<p><img class= 'stimulus' src='images/baseline/05255v.jpg'></img></p>","null","","1551396014503","","","","","","",""
"null","","html-keyboard-response","208","1307759","0.0-6.0-12.10","45","<p><img class= 'stimulus' src='images/baseline/04060v.jpg'></img></p>","null","","1551396014603","12","","","","","",""
"null","","html-keyboard-response","209","1307860","0.0-6.0-13.10","45","<p><img class= 'stimulus' src='images/baseline/Lake 7.jpg'></img></p>","null","","1551396014703","","","","","","",""
"null","","html-keyboard-response","210","1307961","0.0-6.0-14.10","45","<p><img class= 'stimulus' src='images/target/Tree-Landscape-Winter-Nature-Winter-Trees-Snow-2117951.jpg'></img></p>","null","","1551396014802","14","","","","","",""
"null","","html-keyboard-response","211","1308059","0.0-6.0-15.10","45","<p><img class= 'stimulus' src='images/baseline/landscape12.jpg'></img></p>","null","","1551396014903","","","","","","",""
"null","","html-keyboard-response","212","1308160","0.0-6.0-16.10","45","<p><img class= 'stimulus' src='images/baseline/Beach 8.jpg'></img></p>","null","","1551396015003","","","","","","",""
"null","","html-keyboard-response","213","1308277","0.0-6.0-17.10","45","<p><img class= 'stimulus' src='images/baseline/house3.jpg'></img></p>","null","","1551396015103","","","","","","",""
"1231.1000000336207","","html-button-response","214","1310523","0.0-6.0-18.10","45","<div class = ""response_question"">WAS THE IMAGE ROTATED...</div>","","3","","","6","8","bas","right","practice","true"
"1366.0000000381842","","html-button-response","215","1311891","0.0-6.0-0.11","45","","","0","","","","","","","",""
"null","","html-keyboard-response","216","1311977","0.0-6.0-1.11","45","<p><img class= 'stimulus' src='images/baseline/Street 5.jpg'></img></p>","null","","1551396018820","","","","","","",""
"null","","html-keyboard-response","217","1312076","0.0-6.0-2.11","45","<p><img class= 'stimulus' src='images/baseline/farmhouse1.jpg'></img></p>","null","","1551396018919","","","","","","",""
"null","","html-keyboard-response","218","1312176","0.0-6.0-3.11","45","<p><img class= 'stimulus' src='images/baseline/05292v.jpg'></img></p>","null","","1551396019019","","","","","","",""
"null","","html-keyboard-response","219","1312276","0.0-6.0-4.11","45","<p><img class= 'stimulus' src='images/baseline/building5.jpg'></img></p>","null","","1551396019120","4","","","","","",""
"null","","html-keyboard-response","220","1312376","0.0-6.0-5.11","45","<p><img class= 'stimulus' src='images/baseline/trees 23.jpg'></img></p>","null","","1551396019219","","","","","","",""
"null","","html-keyboard-response","221","1312476","0.0-6.0-6.11","45","<p><img class= 'stimulus' src='images/baseline/landscape33.jpg'></img></p>","null","","1551396019319","6","","","","","",""
"null","","html-keyboard-response","222","1312575","0.0-6.0-7.11","45","<p><img class= 'stimulus' src='images/baseline/tennis-court-net-buried-in-snow.jpg'></img></p>","null","","1551396019421","","","","","","",""
"null","","html-keyboard-response","223","1312676","0.0-6.0-8.11","45","<p><img class= 'stimulus' src='images/baseline/pexels-photo-1054289.jpeg'></img></p>","null","","1551396019520","8","","","","","",""
"null","","html-keyboard-response","224","1312776","0.0-6.0-9.11","45","<p><img class= 'stimulus' src='images/baseline/Sunset 4.jpg'></img></p>","null","","1551396019620","","","","","","",""
"null","","html-keyboard-response","225","1312876","0.0-6.0-10.11","45","<p><img class= 'stimulus' src='images/baseline/landscape22.jpg'></img></p>","null","","1551396019718","","","","","","",""
"null","","html-keyboard-response","226","1312976","0.0-6.0-11.11","45","<p><img class= 'stimulus' src='images/baseline/03162v.jpg'></img></p>","null","","1551396019819","","","","","","",""
"null","","html-keyboard-response","227","1313076","0.0-6.0-12.11","45","<p><img class= 'stimulus' src='images/baseline/landscape13.jpg'></img></p>","null","","1551396019919","12","","","","","",""
"null","","html-keyboard-response","228","1313176","0.0-6.0-13.11","45","<p><img class= 'stimulus' src='images/baseline/Street 3.jpg'></img></p>","null","","1551396020019","","","","","","",""
"null","","html-keyboard-response","229","1313275","0.0-6.0-14.11","45","<p><img class= 'stimulus left-rotate' src='images/target/petronas-towers-433081_1920.jpg'></img></p>","null","","1551396020120","14","","","","","",""
"null","","html-keyboard-response","230","1313376","0.0-6.0-15.11","45","<p><img class= 'stimulus' src='images/baseline/vintage-art-deco-storefront.jpg'></img></p>","null","","1551396020220","","","","","","",""
"null","","html-keyboard-response","231","1313476","0.0-6.0-16.11","45","<p><img class= 'stimulus' src='images/baseline/Skijump 1.jpg'></img></p>","null","","1551396020320","","","","","","",""
"null","","html-keyboard-response","232","1313593","0.0-6.0-17.11","45","<p><img class= 'stimulus' src='images/baseline/04162v.jpg'></img></p>","null","","1551396020420","","","","","","",""
"895.1000000233762","","html-button-response","233","1315491","0.0-6.0-18.11","45","<div class = ""response_question"">WAS THE IMAGE ROTATED...</div>","","1","","","6","8","bas","left","practice","true"
"2478.000000002794","","html-button-response","234","1317971","0.0-6.0-0.12","45","","","0","","","","","","","",""
"null","","html-keyboard-response","235","1318059","0.0-6.0-1.12","45","<p><img class= 'stimulus' src='images/baseline/landscape14.jpg'></img></p>","null","","1551396024902","","","","","","",""
"null","","html-keyboard-response","236","1318159","0.0-6.0-2.12","45","<p><img class= 'stimulus' src='images/baseline/Street 2.jpg'></img></p>","null","","1551396025002","","","","","","",""
"null","","html-keyboard-response","237","1318260","0.0-6.0-3.12","45","<p><img class= 'stimulus' src='images/baseline/Waterfall 1.jpg'></img></p>","null","","1551396025102","","","","","","",""
"null","","html-keyboard-response","238","1318359","0.0-6.0-4.12","45","<p><img class= 'stimulus' src='images/baseline/town-square-in-wroclaw-1539098440MZy.jpg'></img></p>","null","","1551396025202","4","","","","","",""
"null","","html-keyboard-response","239","1318460","0.0-6.0-5.12","45","<p><img class= 'stimulus' src='images/baseline/04098v.jpg'></img></p>","null","","1551396025304","","","","","","",""
"null","","html-keyboard-response","240","1318559","0.0-6.0-6.12","45","<p><img class= 'stimulus' src='images/baseline/Paysage_enneige_02.jpg'></img></p>","null","","1551396025403","6","","","","","",""
"null","","html-keyboard-response","241","1318659","0.0-6.0-7.12","45","<p><img class= 'stimulus' src='images/baseline/04064v.jpg'></img></p>","null","","1551396025502","","","","","","",""
"null","","html-keyboard-response","242","1318759","0.0-6.0-8.12","45","<p><img class= 'stimulus left-rotate' src='images/target/church-2306128_640.jpg'></img></p>","null","","1551396025603","8","","","","","",""
"null","","html-keyboard-response","243","1318859","0.0-6.0-9.12","45","<p><img class= 'stimulus' src='images/baseline/building4.jpg'></img></p>","null","","1551396025703","","","","","","",""
"null","","html-keyboard-response","244","1318959","0.0-6.0-10.12","45","<p><img class= 'stimulus' src='images/baseline/Beach 3.jpg'></img></p>","null","","1551396025803","","","","","","",""
"null","","html-keyboard-response","245","1319059","0.0-6.0-11.12","45","<p><img class= 'stimulus' src='images/baseline/architecture-956332_1280.jpg'></img></p>","null","","1551396025904","","","","","","",""
"null","","html-keyboard-response","246","1319160","0.0-6.0-12.12","45","<p><img class= 'stimulus' src='images/baseline/04086v.jpg'></img></p>","null","","1551396026003","12","","","","","",""
"null","","html-keyboard-response","247","1319259","0.0-6.0-13.12","45","<p><img class= 'stimulus' src='images/baseline/05167v.jpg'></img></p>","null","","1551396026103","","","","","","",""
"null","","html-keyboard-response","248","1319359","0.0-6.0-14.12","45","<p><img class= 'stimulus' src='images/baseline/sunny-landscape-with-dry-brush-and-mountain-background.jpg'></img></p>","null","","1551396026202","14","","","","","",""
"null","","html-keyboard-response","249","1319459","0.0-6.0-15.12","45","<p><img class= 'stimulus' src='images/baseline/house7.jpg'></img></p>","null","","1551396026303","","","","","","",""
"null","","html-keyboard-response","250","1319560","0.0-6.0-16.12","45","<p><img class= 'stimulus' src='images/baseline/03041v.jpg'></img></p>","null","","1551396026403","","","","","","",""
"null","","html-keyboard-response","251","1319676","0.0-6.0-17.12","45","<p><img class= 'stimulus' src='images/baseline/flooded-bridge.jpg'></img></p>","null","","1551396026503","","","","","","",""
"1574.2000000318512","","html-button-response","252","1322267","0.0-6.0-18.12","45","<div class = ""response_question"">WAS THE IMAGE ROTATED...</div>","","1","","","6","2","bas","left","practice","true"
"1430.3000000072643","","html-button-response","253","1323699","0.0-6.0-0.13","45","","","0","","","","","","","",""
"null","","html-keyboard-response","254","1323777","0.0-6.0-1.13","45","<p><img class= 'stimulus' src='images/baseline/Grass 6.jpg'></img></p>","null","","1551396030620","","","","","","",""
"null","","html-keyboard-response","255","1323876","0.0-6.0-2.13","45","<p><img class= 'stimulus' src='images/baseline/building3.jpg'></img></p>","null","","1551396030719","","","","","","",""
"null","","html-keyboard-response","256","1323977","0.0-6.0-3.13","45","<p><img class= 'stimulus' src='images/baseline/landscape19.jpg'></img></p>","null","","1551396030819","","","","","","",""
"null","","html-keyboard-response","257","1324077","0.0-6.0-4.13","45","<p><img class= 'stimulus' src='images/baseline/03204v.jpg'></img></p>","null","","1551396030919","4","","","","","",""
"null","","html-keyboard-response","258","1324177","0.0-6.0-5.13","45","<p><img class= 'stimulus' src='images/baseline/Bridge 1.jpg'></img></p>","null","","1551396031020","","","","","","",""
"null","","html-keyboard-response","259","1324276","0.0-6.0-6.13","45","<p><img class= 'stimulus' src='images/target/beach1.jpeg'></img></p>","null","","1551396031119","6","","","","","",""
"null","","html-keyboard-response","260","1324375","0.0-6.0-7.13","45","<p><img class= 'stimulus' src='images/baseline/pexels-photo-534164.jpeg'></img></p>","null","","1551396031220","","","","","","",""
"null","","html-keyboard-response","261","1324476","0.0-6.0-8.13","45","<p><img class= 'stimulus' src='images/baseline/04193v.jpg'></img></p>","null","","1551396031320","8","","","","","",""
"null","","html-keyboard-response","262","1324576","0.0-6.0-9.13","45","<p><img class= 'stimulus' src='images/baseline/Sailing 3.jpg'></img></p>","null","","1551396031419","","","","","","",""
"null","","html-keyboard-response","263","1324676","0.0-6.0-10.13","45","<p><img class= 'stimulus' src='images/baseline/04229v.jpg'></img></p>","null","","1551396031519","","","","","","",""
"null","","html-keyboard-response","264","1324776","0.0-6.0-11.13","45","<p><img class= 'stimulus' src='images/baseline/Lake 3.jpg'></img></p>","null","","1551396031619","","","","","","",""
"null","","html-keyboard-response","265","1324876","0.0-6.0-12.13","45","<p><img class= 'stimulus' src='images/baseline/Nature 2.jpg'></img></p>","null","","1551396031719","12","","","","","",""
"null","","html-keyboard-response","266","1324976","0.0-6.0-13.13","45","<p><img class= 'stimulus' src='images/baseline/snowy tree.jpg'></img></p>","null","","1551396031819","","","","","","",""
"null","","html-keyboard-response","267","1325076","0.0-6.0-14.13","45","<p><img class= 'stimulus' src='images/baseline/99_-_Machu_Picchu_-_Juin_2009.edit3.jpg'></img></p>","null","","1551396031919","14","","","","","",""
"null","","html-keyboard-response","268","1325177","0.0-6.0-15.13","45","<p><img class= 'stimulus' src='images/baseline/Lake 8.jpg'></img></p>","null","","1551396032019","","","","","","",""
"null","","html-keyboard-response","269","1325275","0.0-6.0-16.13","45","<p><img class= 'stimulus' src='images/baseline/Street 4.jpg'></img></p>","null","","1551396032119","","","","","","",""
"null","","html-keyboard-response","270","1325393","0.0-6.0-17.13","45","<p><img class= 'stimulus' src='images/baseline/house1.jpg'></img></p>","null","","1551396032220","","","","","","",""
"1063.0999999702908","","html-button-response","271","1327459","0.0-6.0-18.13","45","<div class = ""response_question"">WAS THE IMAGE ROTATED...</div>","","5","","","4","2","bas","right","practice","false"
"1550.199999997858","","html-button-response","272","1329011","0.0-6.0-0.14","45","","","0","","","","","","","",""
"null","","html-keyboard-response","273","1329093","0.0-6.0-1.14","45","<p><img class= 'stimulus' src='images/baseline/02960v.jpg'></img></p>","null","","1551396035936","","","","","","",""
"null","","html-keyboard-response","274","1329193","0.0-6.0-2.14","45","<p><img class= 'stimulus' src='images/baseline/church-silhouette-8712964986014Kb.jpg'></img></p>","null","","1551396036037","","","","","","",""
"null","","html-keyboard-response","275","1329292","0.0-6.0-3.14","45","<p><img class= 'stimulus' src='images/baseline/Desert_View_Indian_Wells.jpg'></img></p>","null","","1551396036136","","","","","","",""
"null","","html-keyboard-response","276","1329393","0.0-6.0-4.14","45","<p><img class= 'stimulus' src='images/baseline/landscape1.jpg'></img></p>","null","","1551396036236","4","","","","","",""
"null","","html-keyboard-response","277","1329492","0.0-6.0-5.14","45","<p><img class= 'stimulus' src='images/baseline/04196v.jpg'></img></p>","null","","1551396036336","","","","","","",""
"null","","html-keyboard-response","278","1329592","0.0-6.0-6.14","45","<p><img class= 'stimulus' src='images/baseline/grand-teton-mountains.jpg'></img></p>","null","","1551396036436","6","","","","","",""
"null","","html-keyboard-response","279","1329693","0.0-6.0-7.14","45","<p><img class= 'stimulus' src='images/baseline/03220v.jpg'></img></p>","null","","1551396036536","","","","","","",""
"null","","html-keyboard-response","280","1329792","0.0-6.0-8.14","45","<p><img class= 'stimulus' src='images/baseline/hills 3.jpg'></img></p>","null","","1551396036637","8","","","","","",""
"null","","html-keyboard-response","281","1329894","0.0-6.0-9.14","45","<p><img class= 'stimulus' src='images/baseline/landscape2.jpg'></img></p>","null","","1551396036736","","","","","","",""
"null","","html-keyboard-response","282","1329994","0.0-6.0-10.14","45","<p><img class= 'stimulus' src='images/baseline/Path 1.jpg'></img></p>","null","","1551396036836","","","","","","",""
"null","","html-keyboard-response","283","1330092","0.0-6.0-11.14","45","<p><img class= 'stimulus' src='images/baseline/03217v.jpg'></img></p>","null","","1551396036937","","","","","","",""
"null","","html-keyboard-response","284","1330193","0.0-6.0-12.14","45","<p><img class= 'stimulus' src='images/target/coconut-3396945_640.jpg'></img></p>","null","","1551396037038","12","","","","","",""
"null","","html-keyboard-response","285","1330294","0.0-6.0-13.14","45","<p><img class= 'stimulus' src='images/baseline/house11.jpg'></img></p>","null","","1551396037136","","","","","","",""
"null","","html-keyboard-response","286","1330393","0.0-6.0-14.14","45","<p><img class= 'stimulus' src='images/baseline/03212v.jpg'></img></p>","null","","1551396037236","14","","","","","",""
"null","","html-keyboard-response","287","1330493","0.0-6.0-15.14","45","<p><img class= 'stimulus' src='images/baseline/Aletschgletscher-Eggishorn.jpg'></img></p>","null","","1551396037336","","","","","","",""
"null","","html-keyboard-response","288","1330593","0.0-6.0-16.14","45","<p><img class= 'stimulus' src='images/baseline/Nature 1.jpg'></img></p>","null","","1551396037436","","","","","","",""
"null","","html-keyboard-response","289","1330710","0.0-6.0-17.14","45","<p><img class= 'stimulus' src='images/baseline/04062v.jpg'></img></p>","null","","1551396037536","","","","","","",""
"1744.9999999953434","","html-button-response","290","1333459","0.0-6.0-18.14","45","<div class = ""response_question"">WAS THE IMAGE ROTATED...</div>","","2","","","4","8","bas","right","practice","false"
"1310.2999999537133","","html-button-response","291","1334771","0.0-6.0-0.15","45","","","0","","","","","","","",""
"null","","html-keyboard-response","292","1334859","0.0-6.0-1.15","45","<p><img class= 'stimulus' src='images/baseline/Lake 16.jpg'></img></p>","null","","1551396041703","","","","","","",""
"null","","html-keyboard-response","293","1334960","0.0-6.0-2.15","45","<p><img class= 'stimulus' src='images/baseline/Sidewalk 4.jpg'></img></p>","null","","1551396041803","","","","","","",""
"null","","html-keyboard-response","294","1335060","0.0-6.0-3.15","45","<p><img class= 'stimulus' src='images/baseline/field 1.jpg'></img></p>","null","","1551396041904","","","","","","",""
"null","","html-keyboard-response","295","1335160","0.0-6.0-4.15","45","<p><img class= 'stimulus' src='images/baseline/building2.jpg'></img></p>","null","","1551396042003","4","","","","","",""
"null","","html-keyboard-response","296","1335259","0.0-6.0-5.15","45","<p><img class= 'stimulus' src='images/baseline/lake 1.jpg'></img></p>","null","","1551396042104","","","","","","",""
"null","","html-keyboard-response","297","1335360","0.0-6.0-6.15","45","<p><img class= 'stimulus' src='images/baseline/pexels-photo-808465.jpeg'></img></p>","null","","1551396042203","6","","","","","",""
"null","","html-keyboard-response","298","1335461","0.0-6.0-7.15","45","<p><img class= 'stimulus' src='images/baseline/05240v.jpg'></img></p>","null","","1551396042304","","","","","","",""
"null","","html-keyboard-response","299","1335559","0.0-6.0-8.15","45","<p><img class= 'stimulus' src='images/target/transamerica-pyramid-530061_640.jpg'></img></p>","null","","1551396042402","8","","","","","",""
"null","","html-keyboard-response","300","1335659","0.0-6.0-9.15","45","<p><img class= 'stimulus' src='images/baseline/pexels-photo-1837621.jpeg'></img></p>","null","","1551396042502","","","","","","",""
"null","","html-keyboard-response","301","1335760","0.0-6.0-10.15","45","<p><img class= 'stimulus' src='images/baseline/agriculture-cereal-clouds-175389.jpg'></img></p>","null","","1551396042602","","","","","","",""
"null","","html-keyboard-response","302","1335859","0.0-6.0-11.15","45","<p><img class= 'stimulus' src='images/baseline/Sky 1.jpg'></img></p>","null","","1551396042703","","","","","","",""
"null","","html-keyboard-response","303","1335959","0.0-6.0-12.15","45","<p><img class= 'stimulus' src='images/baseline/04284v.jpg'></img></p>","null","","1551396042803","12","","","","","",""
"null","","html-keyboard-response","304","1336059","0.0-6.0-13.15","45","<p><img class= 'stimulus' src='images/baseline/pexels-photo-427676.jpeg'></img></p>","null","","1551396042903","","","","","","",""
"null","","html-keyboard-response","305","1336159","0.0-6.0-14.15","45","<p><img class= 'stimulus' src='images/baseline/landscape39.jpg'></img></p>","null","","1551396043003","14","","","","","",""
"null","","html-keyboard-response","306","1336260","0.0-6.0-15.15","45","<p><img class= 'stimulus' src='images/baseline/04162v.jpg'></img></p>","null","","1551396043104","","","","","","",""
"null","","html-keyboard-response","307","1336359","0.0-6.0-16.15","45","<p><img class= 'stimulus' src='images/baseline/Street 5.jpg'></img></p>","null","","1551396043202","","","","","","",""
"null","","html-keyboard-response","308","1336477","0.0-6.0-17.15","45","<p><img class= 'stimulus' src='images/baseline/Nature 2.jpg'></img></p>","null","","1551396043304","","","","","","",""
"825.5999999819323","","html-button-response","309","1338307","0.0-6.0-18.15","45","<div class = ""response_question"">WAS THE IMAGE ROTATED...</div>","","4","","","6","2","bas","right","practice","true"
"50238.1999999634","","html-button-response","310","1388533","0.0-7.0","45","<p>You have now completed the practice phase. We will now begin the real trials.         This is a reminder that you will be searching for a rotated image among the series of upright images.</p>         <p>Remember, please do not blink or move your eyes while the images are on the screen.</p>         <p>At the end of the experiment, the experimenter will be able to show you how accurate you were.</p>","","0","","","","","","","",""
"2207.399999955669","","html-button-response","311","1390742","0.0-8.0-0.0-0.0","45","","","0","","","","","","","",""
"null","","html-keyboard-response","312","1390815","0.0-8.0-0.0-1.0","45","<p><img class= 'stimulus' src='images/baseline/04063v.jpg'></img></p>","null","","1551396097657","","","","","","",""
"null","","html-keyboard-response","313","1390914","0.0-8.0-0.0-2.0","45","<p><img class= 'stimulus' src='images/baseline/03204v.jpg'></img></p>","null","","1551396097757","","","","","","",""
"null","","html-keyboard-response","314","1391013","0.0-8.0-0.0-3.0","45","<p><img class= 'stimulus' src='images/baseline/pexels-photo-259280.jpeg'></img></p>","null","","1551396097858","","","","","","",""
"null","","html-keyboard-response","315","1391115","0.0-8.0-0.0-4.0","45","<p><img class= 'stimulus' src='images/baseline/Niinsaare_jarv.jpg'></img></p>","null","","1551396097957","4","","","","","",""
"null","","html-keyboard-response","316","1391213","0.0-8.0-0.0-5.0","45","<p><img class= 'stimulus' src='images/baseline/building12.jpg'></img></p>","null","","1551396098057","","","","","","",""
"null","","html-keyboard-response","317","1391314","0.0-8.0-0.0-6.0","45","<p><img class= 'stimulus' src='images/negative/Fire 8.jpg'></img></p>","null","","1551396098158","6","","","","","",""
"null","","html-keyboard-response","318","1391413","0.0-8.0-0.0-7.0","45","<p><img class= 'stimulus' src='images/baseline/town-square-in-wroclaw-1539098440MZy.jpg'></img></p>","null","","1551396098256","","","","","","",""
"null","","html-keyboard-response","319","1391514","0.0-8.0-0.0-8.0","45","<p><img class= 'stimulus' src='images/baseline/Bridge 1.jpg'></img></p>","null","","1551396098356","8","","","","","",""
"null","","html-keyboard-response","320","1391614","0.0-8.0-0.0-9.0","45","<p><img class= 'stimulus' src='images/baseline/landscape33.jpg'></img></p>","null","","1551396098457","","","","","","",""
"null","","html-keyboard-response","321","1391714","0.0-8.0-0.0-10.0","45","<p><img class= 'stimulus' src='images/baseline/02982v.jpg'></img></p>","null","","1551396098557","","","","","","",""
"null","","html-keyboard-response","322","1391814","0.0-8.0-0.0-11.0","45","<p><img class= 'stimulus' src='images/baseline/building6.jpg'></img></p>","null","","1551396098658","","","","","","",""
"null","","html-keyboard-response","323","1391914","0.0-8.0-0.0-12.0","45","<p><img class= 'stimulus' src='images/baseline/pexels-photo-568236.jpeg'></img></p>","null","","1551396098758","12","","","","","",""
"null","","html-keyboard-response","324","1392014","0.0-8.0-0.0-13.0","45","<p><img class= 'stimulus' src='images/baseline/pexels-photo-427676.jpeg'></img></p>","null","","1551396098857","","","","","","",""
"null","","html-keyboard-response","325","1392114","0.0-8.0-0.0-14.0","45","<p><img class= 'stimulus' src='images/target/mexico_tower_latin_american.jpg'></img></p>","null","","1551396098958","14","","","","","",""
"null","","html-keyboard-response","326","1392215","0.0-8.0-0.0-15.0","45","<p><img class= 'stimulus' src='images/baseline/02988v.jpg'></img></p>","null","","1551396099057","","","","","","",""
"null","","html-keyboard-response","327","1392315","0.0-8.0-0.0-16.0","45","<p><img class= 'stimulus' src='images/baseline/building8.jpg'></img></p>","null","","1551396099158","","","","","","",""
"null","","html-keyboard-response","328","1392431","0.0-8.0-0.0-17.0","45","<p><img class= 'stimulus' src='images/baseline/lake3.jpg'></img></p>","null","","1551396099258","","","","","","",""
"995.2000000048429","","html-button-response","329","1394430","0.0-8.0-0.0-18.0","45","<div class = ""response_question"">WAS THE IMAGE ROTATED...</div>","","4","","","6","8","neg","right","test","true"
"1030.0999999744818","","html-button-response","330","1395462","0.0-8.0-0.0-0.1","45","","","0","","","","","","","",""
"null","","html-keyboard-response","331","1395547","0.0-8.0-0.0-1.1","45","<p><img class= 'stimulus' src='images/baseline/landscape16.jpg'></img></p>","null","","1551396102392","","","","","","",""
"null","","html-keyboard-response","332","1395648","0.0-8.0-0.0-2.1","45","<p><img class= 'stimulus' src='images/baseline/road.jpg'></img></p>","null","","1551396102490","","","","","","",""
"null","","html-keyboard-response","333","1395748","0.0-8.0-0.0-3.1","45","<p><img class= 'stimulus' src='images/baseline/pexels-photo-1837621.jpeg'></img></p>","null","","1551396102591","","","","","","",""
"null","","html-keyboard-response","334","1395847","0.0-8.0-0.0-4.1","45","<p><img class= 'stimulus' src='images/baseline/03217v.jpg'></img></p>","null","","1551396102692","4","","","","","",""
"null","","html-keyboard-response","335","1395947","0.0-8.0-0.0-5.1","45","<p><img class= 'stimulus' src='images/baseline/tennis-court-net-buried-in-snow.jpg'></img></p>","null","","1551396102790","","","","","","",""
"null","","html-keyboard-response","336","1396048","0.0-8.0-0.0-6.1","45","<p><img class= 'stimulus' src='images/neutral/Camping 4.jpg'></img></p>","null","","1551396102891","6","","","","","",""
"null","","html-keyboard-response","337","1396147","0.0-8.0-0.0-7.1","45","<p><img class= 'stimulus' src='images/baseline/04085v.jpg'></img></p>","null","","1551396102990","","","","","","",""
"null","","html-keyboard-response","338","1396248","0.0-8.0-0.0-8.1","45","<p><img class= 'stimulus' src='images/baseline/05179v.jpg'></img></p>","null","","1551396103091","8","","","","","",""
"null","","html-keyboard-response","339","1396347","0.0-8.0-0.0-9.1","45","<p><img class= 'stimulus' src='images/baseline/architecture-1314416_1920.jpg'></img></p>","null","","1551396103190","","","","","","",""
"null","","html-keyboard-response","340","1396447","0.0-8.0-0.0-10.1","45","<p><img class= 'stimulus' src='images/baseline/landscape6.jpg'></img></p>","null","","1551396103290","","","","","","",""
"null","","html-keyboard-response","341","1396547","0.0-8.0-0.0-11.1","45","<p><img class= 'stimulus' src='images/baseline/Kocherbaumwald-01.jpg'></img></p>","null","","1551396103390","","","","","","",""
"null","","html-keyboard-response","342","1396647","0.0-8.0-0.0-12.1","45","<p><img class= 'stimulus' src='images/baseline/landscape2.jpg'></img></p>","null","","1551396103490","12","","","","","",""
"null","","html-keyboard-response","343","1396748","0.0-8.0-0.0-13.1","45","<p><img class= 'stimulus' src='images/baseline/03045v.jpg'></img></p>","null","","1551396103591","","","","","","",""
"null","","html-keyboard-response","344","1396847","0.0-8.0-0.0-14.1","45","<p><img class= 'stimulus left-rotate' src='images/target/building5.jpg'></img></p>","null","","1551396103691","14","","","","","",""
"null","","html-keyboard-response","345","1396948","0.0-8.0-0.0-15.1","45","<p><img class= 'stimulus' src='images/baseline/pexels-photo-1840893.jpeg'></img></p>","null","","1551396103792","","","","","","",""
"null","","html-keyboard-response","346","1397047","0.0-8.0-0.0-16.1","45","<p><img class= 'stimulus' src='images/baseline/house8.jpg'></img></p>","null","","1551396103890","","","","","","",""
"null","","html-keyboard-response","347","1397163","0.0-8.0-0.0-17.1","45","<p><img class= 'stimulus' src='images/baseline/pexels-photo-750108.jpeg'></img></p>","null","","1551396103991","","","","","","",""
"1677.9000000096858","","html-button-response","348","1399846","0.0-8.0-0.0-18.1","45","<div class = ""response_question"">WAS THE IMAGE ROTATED...</div>","","1","","","6","8","neu","left","test","true"
"782.500000030268","","html-button-response","349","1400630","0.0-8.0-0.0-0.2","45","","","0","","","","","","","",""
"null","","html-keyboard-response","350","1400713","0.0-8.0-0.0-1.2","45","<p><img class= 'stimulus' src='images/baseline/geese-flying-over-lake-at-dusk.jpg'></img></p>","null","","1551396107558","","","","","","",""
"null","","html-keyboard-response","351","1400814","0.0-8.0-0.0-2.2","45","<p><img class= 'stimulus' src='images/baseline/05279v.jpg'></img></p>","null","","1551396107657","","","","","","",""
"null","","html-keyboard-response","352","1400914","0.0-8.0-0.0-3.2","45","<p><img class= 'stimulus' src='images/baseline/Road 1.jpg'></img></p>","null","","1551396107757","","","","","","",""
"null","","html-keyboard-response","353","1401014","0.0-8.0-0.0-4.2","45","<p><img class= 'stimulus' src='images/baseline/landscape40.jpg'></img></p>","null","","1551396107857","4","","","","","",""
"null","","html-keyboard-response","354","1401114","0.0-8.0-0.0-5.2","45","<p><img class= 'stimulus' src='images/baseline/03148v.jpg'></img></p>","null","","1551396107957","","","","","","",""
"null","","html-keyboard-response","355","1401214","0.0-8.0-0.0-6.2","45","<p><img class= 'stimulus' src='images/baseline/Path 1.jpg'></img></p>","null","","1551396108057","6","","","","","",""
"null","","html-keyboard-response","356","1401314","0.0-8.0-0.0-7.2","45","<p><img class= 'stimulus' src='images/baseline/agriculture-bright-clouds-440731.jpg'></img></p>","null","","1551396108157","","","","","","",""
"null","","html-keyboard-response","357","1401414","0.0-8.0-0.0-8.2","45","<p><img class= 'stimulus' src='images/baseline/pexels-photo-894312.jpeg'></img></p>","null","","1551396108257","8","","","","","",""
"null","","html-keyboard-response","358","1401513","0.0-8.0-0.0-9.2","45","<p><img class= 'stimulus' src='images/baseline/Sunset 5.jpg'></img></p>","null","","1551396108358","","","","","","",""
"null","","html-keyboard-response","359","1401614","0.0-8.0-0.0-10.2","45","<p><img class= 'stimulus' src='images/baseline/landscape8.jpg'></img></p>","null","","1551396108457","","","","","","",""
"null","","html-keyboard-response","360","1401715","0.0-8.0-0.0-11.2","45","<p><img class= 'stimulus' src='images/baseline/Sunset 4.jpg'></img></p>","null","","1551396108558","","","","","","",""
"null","","html-keyboard-response","361","1401814","0.0-8.0-0.0-12.2","45","<p><img class= 'stimulus' src='images/baseline/04031v.jpg'></img></p>","null","","1551396108658","12","","","","","",""
"null","","html-keyboard-response","362","1401913","0.0-8.0-0.0-13.2","45","<p><img class= 'stimulus' src='images/baseline/pexels-photo-808465.jpeg'></img></p>","null","","1551396108756","","","","","","",""
"null","","html-keyboard-response","363","1402013","0.0-8.0-0.0-14.2","45","<p><img class= 'stimulus' src='images/baseline/05161v.jpg'></img></p>","null","","1551396108856","14","","","","","",""
"null","","html-keyboard-response","364","1402113","0.0-8.0-0.0-15.2","45","<p><img class= 'stimulus' src='images/baseline/03180v.jpg'></img></p>","null","","1551396108957","","","","","","",""
"null","","html-keyboard-response","365","1402214","0.0-8.0-0.0-16.2","45","<p><img class= 'stimulus' src='images/baseline/05264v.jpg'></img></p>","null","","1551396109057","","","","","","",""
"null","","html-keyboard-response","366","1402331","0.0-8.0-0.0-17.2","45","<p><img class= 'stimulus' src='images/baseline/Freudenberg_sg_Switzerland.jpg'></img></p>","null","","1551396109158","","","","","","",""
"1365.8999999752268","","html-button-response","367","1404703","0.0-8.0-0.0-18.2","45","<div class = ""response_question"">WAS THE IMAGE ROTATED...</div>","","2","","","null","null","null","null","test","null"
"710.2999999769963","","html-button-response","368","1405414","0.0-8.0-0.0-0.3","45","","","0","","","","","","","",""
"null","","html-keyboard-response","369","1405497","0.0-8.0-0.0-1.3","45","<p><img class= 'stimulus' src='images/baseline/Waterfall 1.jpg'></img></p>","null","","1551396112340","","","","","","",""
"null","","html-keyboard-response","370","1405597","0.0-8.0-0.0-2.3","45","<p><img class= 'stimulus' src='images/baseline/lone-old-cottonwood-tree.jpg'></img></p>","null","","1551396112442","","","","","","",""
"null","","html-keyboard-response","371","1405697","0.0-8.0-0.0-3.3","45","<p><img class= 'stimulus' src='images/baseline/Street 4.jpg'></img></p>","null","","1551396112540","","","","","","",""
"null","","html-keyboard-response","372","1405799","0.0-8.0-0.0-4.3","45","<p><img class= 'stimulus' src='images/baseline/pexels-photo-1048039.jpeg'></img></p>","null","","1551396112642","4","","","","","",""
"null","","html-keyboard-response","373","1405897","0.0-8.0-0.0-5.3","45","<p><img class= 'stimulus' src='images/baseline/farmhouse11.jpg'></img></p>","null","","1551396112741","","","","","","",""
"null","","html-keyboard-response","374","1405998","0.0-8.0-0.0-6.3","45","<p><img class= 'stimulus' src='images/neutral/Doctor 5.jpg'></img></p>","null","","1551396112841","6","","","","","",""
"null","","html-keyboard-response","375","1406098","0.0-8.0-0.0-7.3","45","<p><img class= 'stimulus' src='images/baseline/05158v.jpg'></img></p>","null","","1551396112941","","","","","","",""
"null","","html-keyboard-response","376","1406198","0.0-8.0-0.0-8.3","45","<p><img class= 'stimulus' src='images/target/lookout_tower.jpg'></img></p>","null","","1551396113042","8","","","","","",""
"null","","html-keyboard-response","377","1406297","0.0-8.0-0.0-9.3","45","<p><img class= 'stimulus' src='images/baseline/Sunset 6.jpg'></img></p>","null","","1551396113140","","","","","","",""
"null","","html-keyboard-response","378","1406398","0.0-8.0-0.0-10.3","45","<p><img class= 'stimulus' src='images/baseline/landscape37.jpg'></img></p>","null","","1551396113241","","","","","","",""
"null","","html-keyboard-response","379","1406497","0.0-8.0-0.0-11.3","45","<p><img class= 'stimulus' src='images/baseline/04222v.jpg'></img></p>","null","","1551396113341","","","","","","",""
"null","","html-keyboard-response","380","1406597","0.0-8.0-0.0-12.3","45","<p><img class= 'stimulus' src='images/baseline/building9.jpg'></img></p>","null","","1551396113442","12","","","","","",""
"null","","html-keyboard-response","381","1406697","0.0-8.0-0.0-13.3","45","<p><img class= 'stimulus' src='images/baseline/pexels-photo-210617.jpeg'></img></p>","null","","1551396113540","","","","","","",""
"null","","html-keyboard-response","382","1406798","0.0-8.0-0.0-14.3","45","<p><img class= 'stimulus' src='images/baseline/05186v.jpg'></img></p>","null","","1551396113640","14","","","","","",""
"null","","html-keyboard-response","383","1406898","0.0-8.0-0.0-15.3","45","<p><img class= 'stimulus' src='images/baseline/Beach 2.jpg'></img></p>","null","","1551396113740","","","","","","",""
"null","","html-keyboard-response","384","1406998","0.0-8.0-0.0-16.3","45","<p><img class= 'stimulus' src='images/baseline/road 1(1).jpg'></img></p>","null","","1551396113840","","","","","","",""
"null","","html-keyboard-response","385","1407113","0.0-8.0-0.0-17.3","45","<p><img class= 'stimulus' src='images/baseline/03063v.jpg'></img></p>","null","","1551396113942","","","","","","",""
"1047.0999999670312","","html-button-response","386","1409167","0.0-8.0-0.0-18.3","45","<div class = ""response_question"">WAS THE IMAGE ROTATED...</div>","","4","","","6","2","neu","right","test","true"
"614.3000000156462","","html-button-response","387","1409782","0.0-8.0-0.0-0.4","45","","","0","","","","","","","",""
"null","","html-keyboard-response","388","1409863","0.0-8.0-0.0-1.4","45","<p><img class= 'stimulus' src='images/baseline/Paysage_enneige_02.jpg'></img></p>","null","","1551396116707","","","","","","",""
"null","","html-keyboard-response","389","1409965","0.0-8.0-0.0-2.4","45","<p><img class= 'stimulus' src='images/baseline/Sunset 3.jpg'></img></p>","null","","1551396116807","","","","","","",""
"null","","html-keyboard-response","390","1410063","0.0-8.0-0.0-3.4","45","<p><img class= 'stimulus' src='images/baseline/pexels-photo-280222.jpeg'></img></p>","null","","1551396116907","","","","","","",""
"null","","html-keyboard-response","391","1410164","0.0-8.0-0.0-4.4","45","<p><img class= 'stimulus' src='images/baseline/03112v.jpg'></img></p>","null","","1551396117007","4","","","","","",""
"null","","html-keyboard-response","392","1410263","0.0-8.0-0.0-5.4","45","<p><img class= 'stimulus' src='images/baseline/04300v.jpg'></img></p>","null","","1551396117107","","","","","","",""
"null","","html-keyboard-response","393","1410364","0.0-8.0-0.0-6.4","45","<p><img class= 'stimulus' src='images/neutral/Sleepy pose 2.jpg'></img></p>","null","","1551396117207","6","","","","","",""
"null","","html-keyboard-response","394","1410463","0.0-8.0-0.0-7.4","45","<p><img class= 'stimulus' src='images/baseline/pexels-photo-440731.jpeg'></img></p>","null","","1551396117307","","","","","","",""
"null","","html-keyboard-response","395","1410564","0.0-8.0-0.0-8.4","45","<p><img class= 'stimulus' src='images/baseline/river 1.jpg'></img></p>","null","","1551396117407","8","","","","","",""
"null","","html-keyboard-response","396","1410664","0.0-8.0-0.0-9.4","45","<p><img class= 'stimulus' src='images/baseline/Sidewalk 4.jpg'></img></p>","null","","1551396117507","","","","","","",""
"null","","html-keyboard-response","397","1410765","0.0-8.0-0.0-10.4","45","<p><img class= 'stimulus' src='images/baseline/hills 1.jpg'></img></p>","null","","1551396117608","","","","","","",""
"null","","html-keyboard-response","398","1410865","0.0-8.0-0.0-11.4","45","<p><img class= 'stimulus' src='images/baseline/02977v.jpg'></img></p>","null","","1551396117707","","","","","","",""
"null","","html-keyboard-response","399","1410963","0.0-8.0-0.0-12.4","45","<p><img class= 'stimulus' src='images/baseline/meadow-with-mountain-in-background.jpg'></img></p>","null","","1551396117808","12","","","","","",""
"null","","html-keyboard-response","400","1411064","0.0-8.0-0.0-13.4","45","<p><img class= 'stimulus' src='images/baseline/05145v.jpg'></img></p>","null","","1551396117908","","","","","","",""
"null","","html-keyboard-response","401","1411164","0.0-8.0-0.0-14.4","45","<p><img class= 'stimulus left-rotate' src='images/target/pexels-photo-1534411.jpeg'></img></p>","null","","1551396118009","14","","","","","",""
"null","","html-keyboard-response","402","1411264","0.0-8.0-0.0-15.4","45","<p><img class= 'stimulus' src='images/baseline/landscape35.jpg'></img></p>","null","","1551396118107","","","","","","",""
"null","","html-keyboard-response","403","1411364","0.0-8.0-0.0-16.4","45","<p><img class= 'stimulus' src='images/baseline/02947v.jpg'></img></p>","null","","1551396118208","","","","","","",""
"null","","html-keyboard-response","404","1411481","0.0-8.0-0.0-17.4","45","<p><img class= 'stimulus' src='images/baseline/cyrillic.jpg'></img></p>","null","","1551396118307","","","","","","",""
"1069.199999968987","","html-button-response","405","1413566","0.0-8.0-0.0-18.4","45","<div class = ""response_question"">WAS THE IMAGE ROTATED...</div>","","1","","","6","8","neu","left","test","true"
"1022.3999999579974","","html-button-response","406","1414590","0.0-8.0-0.0-0.5","45","","","0","","","","","","","",""
"null","","html-keyboard-response","407","1414664","0.0-8.0-0.0-1.5","45","<p><img class= 'stimulus' src='images/baseline/04021v.jpg'></img></p>","null","","1551396121507","","","","","","",""
"null","","html-keyboard-response","408","1414764","0.0-8.0-0.0-2.5","45","<p><img class= 'stimulus' src='images/baseline/4k-wallpaper-agriculture-clouds-842711.jpg'></img></p>","null","","1551396121608","","","","","","",""
"null","","html-keyboard-response","409","1414863","0.0-8.0-0.0-3.5","45","<p><img class= 'stimulus' src='images/baseline/04179v.jpg'></img></p>","null","","1551396121708","","","","","","",""
"null","","html-keyboard-response","410","1414964","0.0-8.0-0.0-4.5","45","<p><img class= 'stimulus' src='images/neutral/Goat 1.jpg'></img></p>","null","","1551396121807","4","","","","","",""
"null","","html-keyboard-response","411","1415064","0.0-8.0-0.0-5.5","45","<p><img class= 'stimulus' src='images/baseline/Lake 14.jpg'></img></p>","null","","1551396121908","","","","","","",""
"null","","html-keyboard-response","412","1415163","0.0-8.0-0.0-6.5","45","<p><img class= 'stimulus' src='images/target/landscape1.jpg'></img></p>","null","","1551396122007","6","","","","","",""
"null","","html-keyboard-response","413","1415263","0.0-8.0-0.0-7.5","45","<p><img class= 'stimulus' src='images/baseline/house6.jpg'></img></p>","null","","1551396122107","","","","","","",""
"null","","html-keyboard-response","414","1415364","0.0-8.0-0.0-8.5","45","<p><img class= 'stimulus' src='images/baseline/landscape1.jpg'></img></p>","null","","1551396122208","8","","","","","",""
"null","","html-keyboard-response","415","1415464","0.0-8.0-0.0-9.5","45","<p><img class= 'stimulus' src='images/baseline/03066v.jpg'></img></p>","null","","1551396122308","","","","","","",""
"null","","html-keyboard-response","416","1415564","0.0-8.0-0.0-10.5","45","<p><img class= 'stimulus' src='images/baseline/02962v.jpg'></img></p>","null","","1551396122407","","","","","","",""
"null","","html-keyboard-response","417","1415664","0.0-8.0-0.0-11.5","45","<p><img class= 'stimulus' src='images/baseline/building4.jpg'></img></p>","null","","1551396122509","","","","","","",""
"null","","html-keyboard-response","418","1415765","0.0-8.0-0.0-12.5","45","<p><img class= 'stimulus' src='images/baseline/valley 1.jpg'></img></p>","null","","1551396122607","12","","","","","",""
"null","","html-keyboard-response","419","1415865","0.0-8.0-0.0-13.5","45","<p><img class= 'stimulus' src='images/baseline/04064v.jpg'></img></p>","null","","1551396122708","","","","","","",""
"null","","html-keyboard-response","420","1415963","0.0-8.0-0.0-14.5","45","<p><img class= 'stimulus' src='images/baseline/landscape38.jpg'></img></p>","null","","1551396122807","14","","","","","",""
"null","","html-keyboard-response","421","1416064","0.0-8.0-0.0-15.5","45","<p><img class= 'stimulus' src='images/baseline/building16.jpg'></img></p>","null","","1551396122908","","","","","","",""
"null","","html-keyboard-response","422","1416165","0.0-8.0-0.0-16.5","45","<p><img class= 'stimulus' src='images/baseline/04158v.jpg'></img></p>","null","","1551396123007","","","","","","",""
"null","","html-keyboard-response","423","1416281","0.0-8.0-0.0-17.5","45","<p><img class= 'stimulus' src='images/baseline/agriculture-cereal-clouds-175389.jpg'></img></p>","null","","1551396123107","","","","","","",""
"1747.6000000024214","","html-button-response","424","1419039","0.0-8.0-0.0-18.5","45","<div class = ""response_question"">WAS THE IMAGE ROTATED...</div>","","5","","","4","2","neu","right","test","false"
"1381.8999999784864","","html-button-response","425","1420422","0.0-8.0-0.0-0.6","45","","","0","","","","","","","",""
"null","","html-keyboard-response","426","1420498","0.0-8.0-0.0-1.6","45","<p><img class= 'stimulus' src='images/baseline/05131v.jpg'></img></p>","null","","1551396127342","","","","","","",""
"null","","html-keyboard-response","427","1420597","0.0-8.0-0.0-2.6","45","<p><img class= 'stimulus' src='images/baseline/landscape14.jpg'></img></p>","null","","1551396127440","","","","","","",""
"null","","html-keyboard-response","428","1420697","0.0-8.0-0.0-3.6","45","<p><img class= 'stimulus' src='images/baseline/landscape12.jpg'></img></p>","null","","1551396127540","","","","","","",""
"null","","html-keyboard-response","429","1420797","0.0-8.0-0.0-4.6","45","<p><img class= 'stimulus' src='images/baseline/04040v.jpg'></img></p>","null","","1551396127640","4","","","","","",""
"null","","html-keyboard-response","430","1420897","0.0-8.0-0.0-5.6","45","<p><img class= 'stimulus' src='images/baseline/04014v.jpg'></img></p>","null","","1551396127740","","","","","","",""
"null","","html-keyboard-response","431","1420998","0.0-8.0-0.0-6.6","45","<p><img class= 'stimulus' src='images/baseline/Paysage_karabagh_02.jpg'></img></p>","null","","1551396127840","6","","","","","",""
"null","","html-keyboard-response","432","1421097","0.0-8.0-0.0-7.6","45","<p><img class= 'stimulus' src='images/baseline/04117v.jpg'></img></p>","null","","1551396127941","","","","","","",""
"null","","html-keyboard-response","433","1421198","0.0-8.0-0.0-8.6","45","<p><img class= 'stimulus' src='images/baseline/Aletschgletscher-Eggishorn.jpg'></img></p>","null","","1551396128043","8","","","","","",""
"null","","html-keyboard-response","434","1421298","0.0-8.0-0.0-9.6","45","<p><img class= 'stimulus' src='images/baseline/lake 2.jpg'></img></p>","null","","1551396128142","","","","","","",""
"null","","html-keyboard-response","435","1421397","0.0-8.0-0.0-10.6","45","<p><img class= 'stimulus' src='images/baseline/Sailing 3.jpg'></img></p>","null","","1551396128241","","","","","","",""
"null","","html-keyboard-response","436","1421497","0.0-8.0-0.0-11.6","45","<p><img class= 'stimulus' src='images/baseline/farmhouse3.jpg'></img></p>","null","","1551396128341","","","","","","",""
"null","","html-keyboard-response","437","1421597","0.0-8.0-0.0-12.6","45","<p><img class= 'stimulus' src='images/baseline/house11.jpg'></img></p>","null","","1551396128441","12","","","","","",""
"null","","html-keyboard-response","438","1421697","0.0-8.0-0.0-13.6","45","<p><img class= 'stimulus' src='images/baseline/vintage-art-deco-storefront.jpg'></img></p>","null","","1551396128540","","","","","","",""
"null","","html-keyboard-response","439","1421797","0.0-8.0-0.0-14.6","45","<p><img class= 'stimulus left-rotate' src='images/target/skyscraper-3855012_640.jpg'></img></p>","null","","1551396128642","14","","","","","",""
"null","","html-keyboard-response","440","1421897","0.0-8.0-0.0-15.6","45","<p><img class= 'stimulus' src='images/baseline/pexels-photo-459203.jpeg'></img></p>","null","","1551396128740","","","","","","",""
"null","","html-keyboard-response","441","1421997","0.0-8.0-0.0-16.6","45","<p><img class= 'stimulus' src='images/baseline/valley 2.jpg'></img></p>","null","","1551396128841","","","","","","",""
"null","","html-keyboard-response","442","1422114","0.0-8.0-0.0-17.6","45","<p><img class= 'stimulus' src='images/baseline/Lake 9.jpg'></img></p>","null","","1551396128942","","","","","","",""
"1077.1999999997206","","html-button-response","443","1424206","0.0-8.0-0.0-18.6","45","<div class = ""response_question"">WAS THE IMAGE ROTATED...</div>","","1","","","6","8","bas","left","test","true"
"1038.300000014715","","html-button-response","444","1425246","0.0-8.0-0.0-0.7","45","","","0","","","","","","","",""
"null","","html-keyboard-response","445","1425331","0.0-8.0-0.0-1.7","45","<p><img class= 'stimulus' src='images/baseline/building5.jpg'></img></p>","null","","1551396132174","","","","","","",""
"null","","html-keyboard-response","446","1425431","0.0-8.0-0.0-2.7","45","<p><img class= 'stimulus' src='images/baseline/lookout_tower.jpg'></img></p>","null","","1551396132274","","","","","","",""
"null","","html-keyboard-response","447","1425531","0.0-8.0-0.0-3.7","45","<p><img class= 'stimulus' src='images/baseline/02945v.jpg'></img></p>","null","","1551396132375","","","","","","",""
"null","","html-keyboard-response","448","1425630","0.0-8.0-0.0-4.7","45","<p><img class= 'stimulus' src='images/baseline/04010v.jpg'></img></p>","null","","1551396132476","4","","","","","",""
"null","","html-keyboard-response","449","1425730","0.0-8.0-0.0-5.7","45","<p><img class= 'stimulus' src='images/baseline/agriculture-countryside-crop-259280.jpg'></img></p>","null","","1551396132574","","","","","","",""
"null","","html-keyboard-response","450","1425831","0.0-8.0-0.0-6.7","45","<p><img class= 'stimulus' src='images/baseline/05303v.jpg'></img></p>","null","","1551396132673","6","","","","","",""
"null","","html-keyboard-response","451","1425931","0.0-8.0-0.0-7.7","45","<p><img class= 'stimulus' src='images/baseline/pexels-photo-1054289.jpeg'></img></p>","null","","1551396132774","","","","","","",""
"null","","html-keyboard-response","452","1426031","0.0-8.0-0.0-8.7","45","<p><img class= 'stimulus' src='images/baseline/farmhouse4.jpg'></img></p>","null","","1551396132874","8","","","","","",""
"null","","html-keyboard-response","453","1426131","0.0-8.0-0.0-9.7","45","<p><img class= 'stimulus' src='images/baseline/building2.jpg'></img></p>","null","","1551396132975","","","","","","",""
"null","","html-keyboard-response","454","1426231","0.0-8.0-0.0-10.7","45","<p><img class= 'stimulus' src='images/baseline/Lake 8.jpg'></img></p>","null","","1551396133074","","","","","","",""
"null","","html-keyboard-response","455","1426331","0.0-8.0-0.0-11.7","45","<p><img class= 'stimulus' src='images/baseline/05292v.jpg'></img></p>","null","","1551396133174","","","","","","",""
"null","","html-keyboard-response","456","1426431","0.0-8.0-0.0-12.7","45","<p><img class= 'stimulus' src='images/baseline/Skyscraper 2.jpg'></img></p>","null","","1551396133276","12","","","","","",""
"null","","html-keyboard-response","457","1426531","0.0-8.0-0.0-13.7","45","<p><img class= 'stimulus' src='images/baseline/red-rocks-park.jpg'></img></p>","null","","1551396133374","","","","","","",""
"null","","html-keyboard-response","458","1426630","0.0-8.0-0.0-14.7","45","<p><img class= 'stimulus' src='images/baseline/Street 1.jpg'></img></p>","null","","1551396133474","14","","","","","",""
"null","","html-keyboard-response","459","1426730","0.0-8.0-0.0-15.7","45","<p><img class= 'stimulus' src='images/baseline/Desert_View_Indian_Wells.jpg'></img></p>","null","","1551396133575","","","","","","",""
"null","","html-keyboard-response","460","1426831","0.0-8.0-0.0-16.7","45","<p><img class= 'stimulus' src='images/baseline/03201v.jpg'></img></p>","null","","1551396133674","","","","","","",""
"null","","html-keyboard-response","461","1426948","0.0-8.0-0.0-17.7","45","<p><img class= 'stimulus' src='images/baseline/04201v.jpg'></img></p>","null","","1551396133775","","","","","","",""
"1358.1000000122003","","html-button-response","462","1429311","0.0-8.0-0.0-18.7","45","<div class = ""response_question"">WAS THE IMAGE ROTATED...</div>","","2","","","null","null","null","null","test","null"
"1350.2999999909662","","html-button-response","463","1430662","0.0-8.0-0.0-0.8","45","","","0","","","","","","","",""
"null","","html-keyboard-response","464","1430747","0.0-8.0-0.0-1.8","45","<p><img class= 'stimulus' src='images/baseline/pexels-photo-534164.jpeg'></img></p>","null","","1551396137591","","","","","","",""
"null","","html-keyboard-response","465","1430847","0.0-8.0-0.0-2.8","45","<p><img class= 'stimulus' src='images/baseline/flooded-bridge.jpg'></img></p>","null","","1551396137690","","","","","","",""
"null","","html-keyboard-response","466","1430947","0.0-8.0-0.0-3.8","45","<p><img class= 'stimulus' src='images/baseline/autumn-in-red-rocks-park.jpg'></img></p>","null","","1551396137791","","","","","","",""
"null","","html-keyboard-response","467","1431049","0.0-8.0-0.0-4.8","45","<p><img class= 'stimulus' src='images/baseline/landscape23.jpg'></img></p>","null","","1551396137891","4","","","","","",""
"null","","html-keyboard-response","468","1431148","0.0-8.0-0.0-5.8","45","<p><img class= 'stimulus' src='images/baseline/pexels-photo-541101.jpeg'></img></p>","null","","1551396137991","","","","","","",""
"null","","html-keyboard-response","469","1431248","0.0-8.0-0.0-6.8","45","<p><img class= 'stimulus' src='images/baseline/dirt-road-or-trail-through-park.jpg'></img></p>","null","","1551396138090","6","","","","","",""
"null","","html-keyboard-response","470","1431348","0.0-8.0-0.0-7.8","45","<p><img class= 'stimulus' src='images/baseline/landscape34.jpg'></img></p>","null","","1551396138192","","","","","","",""
"null","","html-keyboard-response","471","1431449","0.0-8.0-0.0-8.8","45","<p><img class= 'stimulus' src='images/baseline/Linden,_paysage.jpg'></img></p>","null","","1551396138290","8","","","","","",""
"null","","html-keyboard-response","472","1431547","0.0-8.0-0.0-9.8","45","<p><img class= 'stimulus' src='images/baseline/Skijump 1.jpg'></img></p>","null","","1551396138391","","","","","","",""
"null","","html-keyboard-response","473","1431647","0.0-8.0-0.0-10.8","45","<p><img class= 'stimulus' src='images/baseline/landscape36.jpg'></img></p>","null","","1551396138492","","","","","","",""
"null","","html-keyboard-response","474","1431748","0.0-8.0-0.0-11.8","45","<p><img class= 'stimulus' src='images/baseline/03220v.jpg'></img></p>","null","","1551396138592","","","","","","",""
"null","","html-keyboard-response","475","1431847","0.0-8.0-0.0-12.8","45","<p><img class= 'stimulus' src='images/baseline/church-silhouette-8712964986014Kb.jpg'></img></p>","null","","1551396138691","12","","","","","",""
"null","","html-keyboard-response","476","1431947","0.0-8.0-0.0-13.8","45","<p><img class= 'stimulus' src='images/baseline/Lake 5.jpg'></img></p>","null","","1551396138792","","","","","","",""
"null","","html-keyboard-response","477","1432047","0.0-8.0-0.0-14.8","45","<p><img class= 'stimulus' src='images/baseline/hiking-trail.jpg'></img></p>","null","","1551396138890","14","","","","","",""
"null","","html-keyboard-response","478","1432148","0.0-8.0-0.0-15.8","45","<p><img class= 'stimulus' src='images/baseline/field 3.jpg'></img></p>","null","","1551396138991","","","","","","",""
"null","","html-keyboard-response","479","1432247","0.0-8.0-0.0-16.8","45","<p><img class= 'stimulus' src='images/baseline/field 1.jpg'></img></p>","null","","1551396139091","","","","","","",""
"null","","html-keyboard-response","480","1432363","0.0-8.0-0.0-17.8","45","<p><img class= 'stimulus' src='images/baseline/05198v.jpg'></img></p>","null","","1551396139192","","","","","","",""
"2102.7999999932945","","html-button-response","481","1435471","0.0-8.0-0.0-18.8","45","<div class = ""response_question"">WAS THE IMAGE ROTATED...</div>","","5","","","null","null","null","null","test","null"
"5542.199999967124","","html-button-response","482","1441015","0.0-8.0-0.0-0.9","45","","","0","","","","","","","",""
"null","","html-keyboard-response","483","1441097","0.0-8.0-0.0-1.9","45","<p><img class= 'stimulus' src='images/baseline/landscape3.jpg'></img></p>","null","","1551396147943","","","","","","",""
"null","","html-keyboard-response","484","1441197","0.0-8.0-0.0-2.9","45","<p><img class= 'stimulus' src='images/baseline/04130v.jpg'></img></p>","null","","1551396148041","","","","","","",""
"null","","html-keyboard-response","485","1441297","0.0-8.0-0.0-3.9","45","<p><img class= 'stimulus' src='images/baseline/pexels-photo-221125.jpeg'></img></p>","null","","1551396148141","","","","","","",""
"null","","html-keyboard-response","486","1441398","0.0-8.0-0.0-4.9","45","<p><img class= 'stimulus' src='images/baseline/pexels-photo-1287089.jpeg'></img></p>","null","","1551396148240","4","","","","","",""
"null","","html-keyboard-response","487","1441498","0.0-8.0-0.0-5.9","45","<p><img class= 'stimulus' src='images/baseline/foreclosed_home.jpg'></img></p>","null","","1551396148341","","","","","","",""
"null","","html-keyboard-response","488","1441598","0.0-8.0-0.0-6.9","45","<p><img class= 'stimulus' src='images/negative/Dog attack 1.jpg'></img></p>","null","","1551396148441","6","","","","","",""
"null","","html-keyboard-response","489","1441698","0.0-8.0-0.0-7.9","45","<p><img class= 'stimulus' src='images/baseline/grand-teton-mountains.jpg'></img></p>","null","","1551396148542","","","","","","",""
"null","","html-keyboard-response","490","1441798","0.0-8.0-0.0-8.9","45","<p><img class= 'stimulus' src='images/target/specphotops-563427-unsplash.jpg'></img></p>","null","","1551396148642","8","","","","","",""
"null","","html-keyboard-response","491","1441897","0.0-8.0-0.0-9.9","45","<p><img class= 'stimulus' src='images/baseline/landscape7.jpg'></img></p>","null","","1551396148741","","","","","","",""
"null","","html-keyboard-response","492","1441999","0.0-8.0-0.0-10.9","45","<p><img class= 'stimulus' src='images/baseline/04062v.jpg'></img></p>","null","","1551396148842","","","","","","",""
"null","","html-keyboard-response","493","1442097","0.0-8.0-0.0-11.9","45","<p><img class= 'stimulus' src='images/baseline/landscape11.jpg'></img></p>","null","","1551396148941","","","","","","",""
"null","","html-keyboard-response","494","1442197","0.0-8.0-0.0-12.9","45","<p><img class= 'stimulus' src='images/baseline/Nature 1.jpg'></img></p>","null","","1551396149041","12","","","","","",""
"null","","html-keyboard-response","495","1442297","0.0-8.0-0.0-13.9","45","<p><img class= 'stimulus' src='images/baseline/04086v.jpg'></img></p>","null","","1551396149140","","","","","","",""
"null","","html-keyboard-response","496","1442398","0.0-8.0-0.0-14.9","45","<p><img class= 'stimulus' src='images/baseline/scenic-mountain-landscape.jpg'></img></p>","null","","1551396149241","14","","","","","",""
"null","","html-keyboard-response","497","1442497","0.0-8.0-0.0-15.9","45","<p><img class= 'stimulus' src='images/baseline/landscape31.jpg'></img></p>","null","","1551396149340","","","","","","",""
"null","","html-keyboard-response","498","1442597","0.0-8.0-0.0-16.9","45","<p><img class= 'stimulus' src='images/baseline/05189v.jpg'></img></p>","null","","1551396149441","","","","","","",""
"null","","html-keyboard-response","499","1442715","0.0-8.0-0.0-17.9","45","<p><img class= 'stimulus' src='images/baseline/Lake 4.jpg'></img></p>","null","","1551396149541","","","","","","",""
"857.2999999742024","","html-button-response","500","1444582","0.0-8.0-0.0-18.9","45","<div class = ""response_question"">WAS THE IMAGE ROTATED...</div>","","4","","","6","2","neg","right","test","true"
"1878.400000045076","","html-button-response","501","1446463","0.0-8.0-0.0-0.10","45","","","0","","","","","","","",""
"null","","html-keyboard-response","502","1446547","0.0-8.0-0.0-1.10","45","<p><img class= 'stimulus' src='images/baseline/99_-_Machu_Picchu_-_Juin_2009.edit3.jpg'></img></p>","null","","1551396153390","","","","","","",""
"null","","html-keyboard-response","503","1446647","0.0-8.0-0.0-2.10","45","<p><img class= 'stimulus' src='images/baseline/field 2.jpg'></img></p>","null","","1551396153491","","","","","","",""
"null","","html-keyboard-response","504","1446748","0.0-8.0-0.0-3.10","45","<p><img class= 'stimulus' src='images/baseline/05167v.jpg'></img></p>","null","","1551396153591","","","","","","",""
