"rt","responses","trial_type","trial_index","time_elapsed","internal_node_id","participant_id","stimulus","key_press","button_pressed","stim_onset","sequence_position","distractor_position","target_lag","distractor_type","target_orientation","phase","correct"
"4001.6000000177883","{""Q0"":""49""}","survey-text","0","4007","0.0-0.0","49","","","","","","","","","","",""
"2009277.8000000399","","html-keyboard-response","1","2013302","0.0-1.0","49","Welcome to the experiment.","67","","","","","","","","",""
"22392.20000000205","","html-button-response","2","2035701","0.0-2.0","49","<p>Several images will be presented sequentially.        Each image will only be on the screen for about 100 milliseconds.</p>        <p> One of the images may be rotated 90 degrees right or left.        Watch for this image and remember if it is rotated right or left.</p>               <p>Images of people and animals will appear, and sometimes they will be unpleasant.        These will never be the rotated target image.</p>","","0","","","","","","","",""
"4190.3000000165775","","html-button-response","3","2039893","0.0-3.0","49","<p><img class=""stimulus left-rotate"" src=""images/target/chicago-673558_640.jpg""></img></p><p>This is an example of an image rotated to the left.</p>","","0","","","","","","","",""
"2310.399999958463","","html-button-response","4","2042205","0.0-4.0","49","<p><img class=""stimulus"" src=""images/target/tree.jpeg""></img></p><p>This is an example of an image rotated to the right.</p>","","0","","","","","","","",""
"16286.800000001676","","html-button-response","5","2058493","0.0-5.0","49","<p>We will now begin a short practice session.</p>         <p>A + symbol will appear in the middle of the screen. Please fix your gaze on the center of the +, and then click the mouse button to begin the image sequence.</p>         <p>Please avoid blinking or eye movements while the images are on the screen.</p>        <p>The image sequence will start relatively slow. After a few sequences, it will speed up.</p>","","0","","","","","","","",""
"19038.799999980256","","html-button-response","6","2077533","0.0-6.0-0.0","49","","","0","","","","","","","",""
"null","","html-keyboard-response","7","2077714","0.0-6.0-1.0","49","<p><img class= 'stimulus' src='images/baseline/04086v.jpg'></img></p>","null","","1551558215889","","","","","","",""
"null","","html-keyboard-response","8","2077913","0.0-6.0-2.0","49","<p><img class= 'stimulus' src='images/baseline/Niinsaare_jarv.jpg'></img></p>","null","","1551558216090","","","","","","",""
"null","","html-keyboard-response","9","2078113","0.0-6.0-3.0","49","<p><img class= 'stimulus' src='images/baseline/Lake 14.jpg'></img></p>","null","","1551558216290","","","","","","",""
"null","","html-keyboard-response","10","2078314","0.0-6.0-4.0","49","<p><img class= 'stimulus' src='images/baseline/lake3.jpg'></img></p>","null","","1551558216489","4","","","","","",""
"null","","html-keyboard-response","11","2078514","0.0-6.0-5.0","49","<p><img class= 'stimulus' src='images/baseline/05242v.jpg'></img></p>","null","","1551558216688","","","","","","",""
"null","","html-keyboard-response","12","2078714","0.0-6.0-6.0","49","<p><img class= 'stimulus' src='images/baseline/landscape3.jpg'></img></p>","null","","1551558216889","6","","","","","",""
"null","","html-keyboard-response","13","2078913","0.0-6.0-7.0","49","<p><img class= 'stimulus' src='images/baseline/Lake 13.jpg'></img></p>","null","","1551558217089","","","","","","",""
"null","","html-keyboard-response","14","2079113","0.0-6.0-8.0","49","<p><img class= 'stimulus' src='images/baseline/03114v.jpg'></img></p>","null","","1551558217289","8","","","","","",""
"null","","html-keyboard-response","15","2079314","0.0-6.0-9.0","49","<p><img class= 'stimulus' src='images/baseline/landscape35.jpg'></img></p>","null","","1551558217489","","","","","","",""
"null","","html-keyboard-response","16","2079514","0.0-6.0-10.0","49","<p><img class= 'stimulus' src='images/baseline/hills 3.jpg'></img></p>","null","","1551558217688","","","","","","",""
"null","","html-keyboard-response","17","2079714","0.0-6.0-11.0","49","<p><img class= 'stimulus' src='images/baseline/03066v.jpg'></img></p>","null","","1551558217889","","","","","","",""
"null","","html-keyboard-response","18","2079913","0.0-6.0-12.0","49","<p><img class= 'stimulus' src='images/baseline/landscape8.jpg'></img></p>","null","","1551558218089","12","","","","","",""
"null","","html-keyboard-response","19","2080114","0.0-6.0-13.0","49","<p><img class= 'stimulus' src='images/baseline/farmhouse3.jpg'></img></p>","null","","1551558218289","","","","","","",""
"null","","html-keyboard-response","20","2080315","0.0-6.0-14.0","49","<p><img class= 'stimulus left-rotate' src='images/target/shotstash_0036-1-1100x734.jpg'></img></p>","null","","1551558218490","14","","","","","",""
"null","","html-keyboard-response","21","2080515","0.0-6.0-15.0","49","<p><img class= 'stimulus' src='images/baseline/landscape23.jpg'></img></p>","null","","1551558218689","","","","","","",""
"null","","html-keyboard-response","22","2080715","0.0-6.0-16.0","49","<p><img class= 'stimulus' src='images/baseline/05186v.jpg'></img></p>","null","","1551558218891","","","","","","",""
"null","","html-keyboard-response","23","2080933","0.0-6.0-17.0","49","<p><img class= 'stimulus' src='images/baseline/landscape7.jpg'></img></p>","null","","1551558219091","","","","","","",""
"4402.7000000933185","","html-button-response","24","2086340","0.0-6.0-18.0","49","<div class = ""response_question"">WAS THE IMAGE ROTATED...</div>","","0","","","6","8","bas","left","practice","true"
"4125.999999931082","","html-button-response","25","2090466","0.0-6.0-0.1","49","","","0","","","","","","","",""
"null","","html-keyboard-response","26","2090645","0.0-6.0-1.1","49","<p><img class= 'stimulus' src='images/baseline/cyrillic.jpg'></img></p>","null","","1551558228821","","","","","","",""
"null","","html-keyboard-response","27","2090845","0.0-6.0-2.1","49","<p><img class= 'stimulus' src='images/baseline/seoul-410266_1920.jpg'></img></p>","null","","1551558229020","","","","","","",""
"null","","html-keyboard-response","28","2091045","0.0-6.0-3.1","49","<p><img class= 'stimulus' src='images/baseline/autumn-landscape-with-lake-fall-trees-mountains.jpg'></img></p>","null","","1551558229220","","","","","","",""
"null","","html-keyboard-response","29","2091244","0.0-6.0-4.1","49","<p><img class= 'stimulus' src='images/baseline/field 2.jpg'></img></p>","null","","1551558229420","4","","","","","",""
"null","","html-keyboard-response","30","2091446","0.0-6.0-5.1","49","<p><img class= 'stimulus' src='images/baseline/Happy pose 3.jpg'></img></p>","null","","1551558229621","","","","","","",""
"null","","html-keyboard-response","31","2091646","0.0-6.0-6.1","49","<p><img class= 'stimulus' src='images/baseline/05179v.jpg'></img></p>","null","","1551558229821","6","","","","","",""
"null","","html-keyboard-response","32","2091846","0.0-6.0-7.1","49","<p><img class= 'stimulus' src='images/baseline/Lake 7.jpg'></img></p>","null","","1551558230021","","","","","","",""
"null","","html-keyboard-response","33","2092048","0.0-6.0-8.1","49","<p><img class= 'stimulus' src='images/baseline/pexels-photo-1261728.jpeg'></img></p>","null","","1551558230221","8","","","","","",""
"null","","html-keyboard-response","34","2092247","0.0-6.0-9.1","49","<p><img class= 'stimulus' src='images/baseline/pexels-photo-427676.jpeg'></img></p>","null","","1551558230424","","","","","","",""
"null","","html-keyboard-response","35","2092447","0.0-6.0-10.1","49","<p><img class= 'stimulus' src='images/baseline/04062v.jpg'></img></p>","null","","1551558230622","","","","","","",""
"null","","html-keyboard-response","36","2092647","0.0-6.0-11.1","49","<p><img class= 'stimulus' src='images/baseline/03148v.jpg'></img></p>","null","","1551558230822","","","","","","",""
"null","","html-keyboard-response","37","2092846","0.0-6.0-12.1","49","<p><img class= 'stimulus' src='images/target/tree1.jpg'></img></p>","null","","1551558231022","12","","","","","",""
"null","","html-keyboard-response","38","2093046","0.0-6.0-13.1","49","<p><img class= 'stimulus' src='images/baseline/05139v.jpg'></img></p>","null","","1551558231221","","","","","","",""
"null","","html-keyboard-response","39","2093246","0.0-6.0-14.1","49","<p><img class= 'stimulus' src='images/baseline/architecture_modern_architecture_852928.jpg'></img></p>","null","","1551558231422","14","","","","","",""
"null","","html-keyboard-response","40","2093446","0.0-6.0-15.1","49","<p><img class= 'stimulus' src='images/baseline/landscape33.jpg'></img></p>","null","","1551558231622","","","","","","",""
"null","","html-keyboard-response","41","2093646","0.0-6.0-16.1","49","<p><img class= 'stimulus' src='images/baseline/Sunset 3.jpg'></img></p>","null","","1551558231821","","","","","","",""
"null","","html-keyboard-response","42","2093864","0.0-6.0-17.1","49","<p><img class= 'stimulus' src='images/baseline/04300v.jpg'></img></p>","null","","1551558232022","","","","","","",""
"2406.6999999340624","","html-button-response","43","2097274","0.0-6.0-18.1","49","<div class = ""response_question"">WAS THE IMAGE ROTATED...</div>","","3","","","4","8","bas","right","practice","true"
"2846.2000000290573","","html-button-response","44","2100122","0.0-6.0-0.2","49","","","0","","","","","","","",""
"null","","html-keyboard-response","45","2100296","0.0-6.0-1.2","49","<p><img class= 'stimulus' src='images/baseline/building4.jpg'></img></p>","null","","1551558238472","","","","","","",""
"null","","html-keyboard-response","46","2100496","0.0-6.0-2.2","49","<p><img class= 'stimulus' src='images/baseline/Road 1.jpg'></img></p>","null","","1551558238671","","","","","","",""
"null","","html-keyboard-response","47","2100697","0.0-6.0-3.2","49","<p><img class= 'stimulus' src='images/baseline/02977v.jpg'></img></p>","null","","1551558238871","","","","","","",""
"null","","html-keyboard-response","48","2100896","0.0-6.0-4.2","49","<p><img class= 'stimulus' src='images/baseline/05292v.jpg'></img></p>","null","","1551558239071","4","","","","","",""
"null","","html-keyboard-response","49","2101096","0.0-6.0-5.2","49","<p><img class= 'stimulus' src='images/baseline/04063v.jpg'></img></p>","null","","1551558239271","","","","","","",""
"null","","html-keyboard-response","50","2101296","0.0-6.0-6.2","49","<p><img class= 'stimulus' src='images/baseline/agriculture-cereal-clouds-175389.jpg'></img></p>","null","","1551558239471","6","","","","","",""
"null","","html-keyboard-response","51","2101496","0.0-6.0-7.2","49","<p><img class= 'stimulus' src='images/baseline/03063v.jpg'></img></p>","null","","1551558239672","","","","","","",""
"null","","html-keyboard-response","52","2101696","0.0-6.0-8.2","49","<p><img class= 'stimulus' src='images/baseline/Path 1.jpg'></img></p>","null","","1551558239871","8","","","","","",""
"null","","html-keyboard-response","53","2101897","0.0-6.0-9.2","49","<p><img class= 'stimulus' src='images/baseline/Lake 3.jpg'></img></p>","null","","1551558240072","","","","","","",""
"null","","html-keyboard-response","54","2102097","0.0-6.0-10.2","49","<p><img class= 'stimulus' src='images/baseline/Skyscraper 1.jpg'></img></p>","null","","1551558240272","","","","","","",""
"null","","html-keyboard-response","55","2102297","0.0-6.0-11.2","49","<p><img class= 'stimulus' src='images/baseline/dirt-road-or-trail-through-park.jpg'></img></p>","null","","1551558240473","","","","","","",""
"null","","html-keyboard-response","56","2102497","0.0-6.0-12.2","49","<p><img class= 'stimulus' src='images/baseline/landscape29.jpg'></img></p>","null","","1551558240672","12","","","","","",""
"null","","html-keyboard-response","57","2102696","0.0-6.0-13.2","49","<p><img class= 'stimulus' src='images/baseline/Lake 8.jpg'></img></p>","null","","1551558240873","","","","","","",""
"null","","html-keyboard-response","58","2102897","0.0-6.0-14.2","49","<p><img class= 'stimulus' src='images/target/cactus2.jpg'></img></p>","null","","1551558241073","14","","","","","",""
"null","","html-keyboard-response","59","2103097","0.0-6.0-15.2","49","<p><img class= 'stimulus' src='images/baseline/road.jpg'></img></p>","null","","1551558241272","","","","","","",""
"null","","html-keyboard-response","60","2103296","0.0-6.0-16.2","49","<p><img class= 'stimulus' src='images/baseline/chicago-skyline-at-night-1476869511p8U.jpg'></img></p>","null","","1551558241472","","","","","","",""
"null","","html-keyboard-response","61","2103513","0.0-6.0-17.2","49","<p><img class= 'stimulus' src='images/baseline/Lake 16.jpg'></img></p>","null","","1551558241672","","","","","","",""
"2035.0000000325963","","html-button-response","62","2106554","0.0-6.0-18.2","49","<div class = ""response_question"">WAS THE IMAGE ROTATED...</div>","","3","","","6","8","bas","right","practice","true"
"3318.3000000426546","","html-button-response","63","2109874","0.0-6.0-0.3","49","","","0","","","","","","","",""
"null","","html-keyboard-response","64","2110045","0.0-6.0-1.3","49","<p><img class= 'stimulus' src='images/baseline/landscape4.jpg'></img></p>","null","","1551558248220","","","","","","",""
"null","","html-keyboard-response","65","2110247","0.0-6.0-2.3","49","<p><img class= 'stimulus' src='images/baseline/lookout_tower.jpg'></img></p>","null","","1551558248422","","","","","","",""
"null","","html-keyboard-response","66","2110446","0.0-6.0-3.3","49","<p><img class= 'stimulus' src='images/baseline/building_at_national_conservation.jpg'></img></p>","null","","1551558248622","","","","","","",""
"null","","html-keyboard-response","67","2110646","0.0-6.0-4.3","49","<p><img class= 'stimulus' src='images/baseline/Dock 1.jpg'></img></p>","null","","1551558248821","4","","","","","",""
"null","","html-keyboard-response","68","2110845","0.0-6.0-5.3","49","<p><img class= 'stimulus' src='images/baseline/landscape1.jpg'></img></p>","null","","1551558249021","","","","","","",""
"null","","html-keyboard-response","69","2111047","0.0-6.0-6.3","49","<p><img class= 'stimulus' src='images/target/tree-197536_640.jpg'></img></p>","null","","1551558249222","6","","","","","",""
"null","","html-keyboard-response","70","2111247","0.0-6.0-7.3","49","<p><img class= 'stimulus' src='images/baseline/04196v.jpg'></img></p>","null","","1551558249422","","","","","","",""
"null","","html-keyboard-response","71","2111447","0.0-6.0-8.3","49","<p><img class= 'stimulus' src='images/baseline/agriculture-bright-clouds-440731.jpg'></img></p>","null","","1551558249622","8","","","","","",""
"null","","html-keyboard-response","72","2111648","0.0-6.0-9.3","49","<p><img class= 'stimulus' src='images/baseline/Dirt 2.jpg'></img></p>","null","","1551558249822","","","","","","",""
"null","","html-keyboard-response","73","2111847","0.0-6.0-10.3","49","<p><img class= 'stimulus' src='images/baseline/landscape16.jpg'></img></p>","null","","1551558250023","","","","","","",""
"null","","html-keyboard-response","74","2112047","0.0-6.0-11.3","49","<p><img class= 'stimulus' src='images/baseline/05189v.jpg'></img></p>","null","","1551558250223","","","","","","",""
"null","","html-keyboard-response","75","2112246","0.0-6.0-12.3","49","<p><img class= 'stimulus' src='images/baseline/landscape39.jpg'></img></p>","null","","1551558250422","12","","","","","",""
"null","","html-keyboard-response","76","2112447","0.0-6.0-13.3","49","<p><img class= 'stimulus' src='images/baseline/Aletschgletscher-Eggishorn.jpg'></img></p>","null","","1551558250623","","","","","","",""
"null","","html-keyboard-response","77","2112648","0.0-6.0-14.3","49","<p><img class= 'stimulus' src='images/baseline/05255v.jpg'></img></p>","null","","1551558250823","14","","","","","",""
"null","","html-keyboard-response","78","2112848","0.0-6.0-15.3","49","<p><img class= 'stimulus' src='images/baseline/landscape14.jpg'></img></p>","null","","1551558251022","","","","","","",""
"null","","html-keyboard-response","79","2113048","0.0-6.0-16.3","49","<p><img class= 'stimulus' src='images/baseline/Lake 15.jpg'></img></p>","null","","1551558251223","","","","","","",""
"null","","html-keyboard-response","80","2113264","0.0-6.0-17.3","49","<p><img class= 'stimulus' src='images/baseline/Sailing 3.jpg'></img></p>","null","","1551558251424","","","","","","",""
"1652.7999999234453","","html-button-response","81","2115930","0.0-6.0-18.3","49","<div class = ""response_question"">WAS THE IMAGE ROTATED...</div>","","3","","","4","2","bas","right","practice","true"
"2326.200000010431","","html-button-response","82","2118258","0.0-6.0-0.4","49","","","0","","","","","","","",""
"null","","html-keyboard-response","83","2118379","0.0-6.0-1.4","49","<p><img class= 'stimulus' src='images/baseline/landscape19.jpg'></img></p>","null","","1551558256607","","","","","","",""
"null","","html-keyboard-response","84","2118529","0.0-6.0-2.4","49","<p><img class= 'stimulus' src='images/baseline/building3.jpg'></img></p>","null","","1551558256755","","","","","","",""
"null","","html-keyboard-response","85","2118680","0.0-6.0-3.4","49","<p><img class= 'stimulus' src='images/baseline/Lake 9.jpg'></img></p>","null","","1551558256906","","","","","","",""
"null","","html-keyboard-response","86","2118830","0.0-6.0-4.4","49","<p><img class= 'stimulus' src='images/baseline/pexels-photo-221125.jpeg'></img></p>","null","","1551558257055","4","","","","","",""
"null","","html-keyboard-response","87","2118978","0.0-6.0-5.4","49","<p><img class= 'stimulus' src='images/baseline/pexels-photo-534164.jpeg'></img></p>","null","","1551558257206","","","","","","",""
"null","","html-keyboard-response","88","2119129","0.0-6.0-6.4","49","<p><img class= 'stimulus' src='images/baseline/foreclosed_home.jpg'></img></p>","null","","1551558257356","6","","","","","",""
"null","","html-keyboard-response","89","2119280","0.0-6.0-7.4","49","<p><img class= 'stimulus' src='images/baseline/04229v.jpg'></img></p>","null","","1551558257504","","","","","","",""
"null","","html-keyboard-response","90","2119429","0.0-6.0-8.4","49","<p><img class= 'stimulus left-rotate' src='images/target/tree_1.jpg'></img></p>","null","","1551558257655","8","","","","","",""
"null","","html-keyboard-response","91","2119579","0.0-6.0-9.4","49","<p><img class= 'stimulus' src='images/baseline/landscape2.jpg'></img></p>","null","","1551558257805","","","","","","",""
"null","","html-keyboard-response","92","2119728","0.0-6.0-10.4","49","<p><img class= 'stimulus' src='images/baseline/building12.jpg'></img></p>","null","","1551558257954","","","","","","",""
"null","","html-keyboard-response","93","2119879","0.0-6.0-11.4","49","<p><img class= 'stimulus' src='images/baseline/town-square-in-wroclaw-1539098440MZy.jpg'></img></p>","null","","1551558258104","","","","","","",""
"null","","html-keyboard-response","94","2120029","0.0-6.0-12.4","49","<p><img class= 'stimulus' src='images/baseline/04179v.jpg'></img></p>","null","","1551558258254","12","","","","","",""
"null","","html-keyboard-response","95","2120179","0.0-6.0-13.4","49","<p><img class= 'stimulus' src='images/baseline/04021v.jpg'></img></p>","null","","1551558258404","","","","","","",""
"null","","html-keyboard-response","96","2120328","0.0-6.0-14.4","49","<p><img class= 'stimulus' src='images/baseline/Cold 7.jpg'></img></p>","null","","1551558258554","14","","","","","",""
"null","","html-keyboard-response","97","2120478","0.0-6.0-15.4","49","<p><img class= 'stimulus' src='images/baseline/pexels-photo-280222.jpeg'></img></p>","null","","1551558258704","","","","","","",""
"null","","html-keyboard-response","98","2120629","0.0-6.0-16.4","49","<p><img class= 'stimulus' src='images/baseline/horse_statue.jpg'></img></p>","null","","1551558258853","","","","","","",""
"null","","html-keyboard-response","99","2120795","0.0-6.0-17.4","49","<p><img class= 'stimulus' src='images/baseline/Street 3.jpg'></img></p>","null","","1551558259003","","","","","","",""
"1218.8000000314787","","html-button-response","100","2123018","0.0-6.0-18.4","49","<div class = ""response_question"">WAS THE IMAGE ROTATED...</div>","","0","","","6","2","bas","left","practice","true"
"2966.5000000968575","","html-button-response","101","2125986","0.0-6.0-0.5","49","","","0","","","","","","","",""
"null","","html-keyboard-response","102","2126111","0.0-6.0-1.5","49","<p><img class= 'stimulus' src='images/baseline/river 1.jpg'></img></p>","null","","1551558264337","","","","","","",""
"null","","html-keyboard-response","103","2126261","0.0-6.0-2.5","49","<p><img class= 'stimulus' src='images/baseline/landscape12.jpg'></img></p>","null","","1551558264486","","","","","","",""
"null","","html-keyboard-response","104","2126411","0.0-6.0-3.5","49","<p><img class= 'stimulus' src='images/baseline/pexels-photo-750108.jpeg'></img></p>","null","","1551558264636","","","","","","",""
"null","","html-keyboard-response","105","2126561","0.0-6.0-4.5","49","<p><img class= 'stimulus' src='images/baseline/Lake 5.jpg'></img></p>","null","","1551558264786","4","","","","","",""
"null","","html-keyboard-response","106","2126711","0.0-6.0-5.5","49","<p><img class= 'stimulus' src='images/baseline/Camping 10.jpg'></img></p>","null","","1551558264937","","","","","","",""
"null","","html-keyboard-response","107","2126860","0.0-6.0-6.5","49","<p><img class= 'stimulus' src='images/baseline/hiking-trail.jpg'></img></p>","null","","1551558265087","6","","","","","",""
"null","","html-keyboard-response","108","2127011","0.0-6.0-7.5","49","<p><img class= 'stimulus' src='images/baseline/05203v.jpg'></img></p>","null","","1551558265237","","","","","","",""
"null","","html-keyboard-response","109","2127161","0.0-6.0-8.5","49","<p><img class= 'stimulus' src='images/target/chicago-673558_640.jpg'></img></p>","null","","1551558265386","8","","","","","",""
"null","","html-keyboard-response","110","2127311","0.0-6.0-9.5","49","<p><img class= 'stimulus' src='images/baseline/Sunset 4.jpg'></img></p>","null","","1551558265537","","","","","","",""
"null","","html-keyboard-response","111","2127462","0.0-6.0-10.5","49","<p><img class= 'stimulus' src='images/baseline/03162v.jpg'></img></p>","null","","1551558265686","","","","","","",""
"null","","html-keyboard-response","112","2127611","0.0-6.0-11.5","49","<p><img class= 'stimulus' src='images/baseline/kokkari-1523011968Xfr.jpg'></img></p>","null","","1551558265837","","","","","","",""
"null","","html-keyboard-response","113","2127760","0.0-6.0-12.5","49","<p><img class= 'stimulus' src='images/baseline/building9.jpg'></img></p>","null","","1551558265988","12","","","","","",""
"null","","html-keyboard-response","114","2127911","0.0-6.0-13.5","49","<p><img class= 'stimulus' src='images/baseline/05131v.jpg'></img></p>","null","","1551558266138","","","","","","",""
"null","","html-keyboard-response","115","2128061","0.0-6.0-14.5","49","<p><img class= 'stimulus' src='images/baseline/lake 2.jpg'></img></p>","null","","1551558266287","14","","","","","",""
"null","","html-keyboard-response","116","2128211","0.0-6.0-15.5","49","<p><img class= 'stimulus' src='images/baseline/sunny-landscape-with-dry-brush-and-mountain-background.jpg'></img></p>","null","","1551558266436","","","","","","",""
"null","","html-keyboard-response","117","2128361","0.0-6.0-16.5","49","<p><img class= 'stimulus' src='images/baseline/pexels-photo-1054289.jpeg'></img></p>","null","","1551558266586","","","","","","",""
"null","","html-keyboard-response","118","2128528","0.0-6.0-17.5","49","<p><img class= 'stimulus' src='images/baseline/snowy tree.jpg'></img></p>","null","","1551558266737","","","","","","",""
"2630.0999999511987","","html-button-response","119","2132171","0.0-6.0-18.5","49","<div class = ""response_question"">WAS THE IMAGE ROTATED...</div>","","3","","","6","2","bas","right","practice","true"
"2869.9999999953434","","html-button-response","120","2135041","0.0-6.0-0.6","49","","","0","","","","","","","",""
"null","","html-keyboard-response","121","2135177","0.0-6.0-1.6","49","<p><img class= 'stimulus' src='images/baseline/Street 4.jpg'></img></p>","null","","1551558273403","","","","","","",""
"null","","html-keyboard-response","122","2135328","0.0-6.0-2.6","49","<p><img class= 'stimulus' src='images/baseline/04031v.jpg'></img></p>","null","","1551558273553","","","","","","",""
"null","","html-keyboard-response","123","2135477","0.0-6.0-3.6","49","<p><img class= 'stimulus' src='images/baseline/02947v.jpg'></img></p>","null","","1551558273704","","","","","","",""
"null","","html-keyboard-response","124","2135628","0.0-6.0-4.6","49","<p><img class= 'stimulus' src='images/baseline/03112v.jpg'></img></p>","null","","1551558273852","4","","","","","",""
"null","","html-keyboard-response","125","2135777","0.0-6.0-5.6","49","<p><img class= 'stimulus' src='images/baseline/building2.jpg'></img></p>","null","","1551558274004","","","","","","",""
"null","","html-keyboard-response","126","2135927","0.0-6.0-6.6","49","<p><img class= 'stimulus left-rotate' src='images/target/oak-456524_640.jpg'></img></p>","null","","1551558274154","6","","","","","",""
"null","","html-keyboard-response","127","2136078","0.0-6.0-7.6","49","<p><img class= 'stimulus' src='images/baseline/04085v.jpg'></img></p>","null","","1551558274304","","","","","","",""
"null","","html-keyboard-response","128","2136228","0.0-6.0-8.6","49","<p><img class= 'stimulus' src='images/baseline/05167v.jpg'></img></p>","null","","1551558274454","8","","","","","",""
"null","","html-keyboard-response","129","2136378","0.0-6.0-9.6","49","<p><img class= 'stimulus' src='images/baseline/05252v.jpg'></img></p>","null","","1551558274603","","","","","","",""
"null","","html-keyboard-response","130","2136528","0.0-6.0-10.6","49","<p><img class= 'stimulus' src='images/baseline/Sunset 6.jpg'></img></p>","null","","1551558274753","","","","","","",""
"null","","html-keyboard-response","131","2136677","0.0-6.0-11.6","49","<p><img class= 'stimulus' src='images/baseline/landscape38.jpg'></img></p>","null","","1551558274903","","","","","","",""
"null","","html-keyboard-response","132","2136828","0.0-6.0-12.6","49","<p><img class= 'stimulus' src='images/baseline/building6.jpg'></img></p>","null","","1551558275054","12","","","","","",""
"null","","html-keyboard-response","133","2136978","0.0-6.0-13.6","49","<p><img class= 'stimulus' src='images/baseline/building16.jpg'></img></p>","null","","1551558275203","","","","","","",""
"null","","html-keyboard-response","134","2137128","0.0-6.0-14.6","49","<p><img class= 'stimulus' src='images/baseline/landscape17.jpg'></img></p>","null","","1551558275353","14","","","","","",""
"null","","html-keyboard-response","135","2137278","0.0-6.0-15.6","49","<p><img class= 'stimulus' src='images/baseline/pexels-photo-541101.jpeg'></img></p>","null","","1551558275503","","","","","","",""
"null","","html-keyboard-response","136","2137427","0.0-6.0-16.6","49","<p><img class= 'stimulus' src='images/baseline/sun-through-winter-tree-branches1.jpg'></img></p>","null","","1551558275653","","","","","","",""
"null","","html-keyboard-response","137","2137595","0.0-6.0-17.6","49","<p><img class= 'stimulus' src='images/baseline/pexels-photo-1837621.jpeg'></img></p>","null","","1551558275804","","","","","","",""
"1500.800000037998","","html-button-response","138","2140098","0.0-6.0-18.6","49","<div class = ""response_question"">WAS THE IMAGE ROTATED...</div>","","0","","","4","2","bas","left","practice","true"
"2310.5000000214204","","html-button-response","139","2142410","0.0-6.0-0.7","49","","","0","","","","","","","",""
"null","","html-keyboard-response","140","2142545","0.0-6.0-1.7","49","<p><img class= 'stimulus' src='images/baseline/05145v.jpg'></img></p>","null","","1551558280771","","","","","","",""
"null","","html-keyboard-response","141","2142695","0.0-6.0-2.7","49","<p><img class= 'stimulus' src='images/baseline/Peyto_Lake-Banff_NP-Canada.jpg'></img></p>","null","","1551558280919","","","","","","",""
"null","","html-keyboard-response","142","2142844","0.0-6.0-3.7","49","<p><img class= 'stimulus' src='images/baseline/pexels-photo-808465.jpeg'></img></p>","null","","1551558281069","","","","","","",""
"null","","html-keyboard-response","143","2142994","0.0-6.0-4.7","49","<p><img class= 'stimulus' src='images/baseline/scenic-mountain-landscape.jpg'></img></p>","null","","1551558281220","4","","","","","",""
"null","","html-keyboard-response","144","2143146","0.0-6.0-5.7","49","<p><img class= 'stimulus' src='images/baseline/99_-_Machu_Picchu_-_Juin_2009.edit3.jpg'></img></p>","null","","1551558281369","","","","","","",""
"null","","html-keyboard-response","145","2143294","0.0-6.0-6.7","49","<p><img class= 'stimulus' src='images/baseline/field 3.jpg'></img></p>","null","","1551558281520","6","","","","","",""
"null","","html-keyboard-response","146","2143445","0.0-6.0-7.7","49","<p><img class= 'stimulus' src='images/baseline/agriculture-countryside-crop-259280.jpg'></img></p>","null","","1551558281670","","","","","","",""
"null","","html-keyboard-response","147","2143594","0.0-6.0-8.7","49","<p><img class= 'stimulus' src='images/baseline/Bridge 1.jpg'></img></p>","null","","1551558281820","8","","","","","",""
"null","","html-keyboard-response","148","2143744","0.0-6.0-9.7","49","<p><img class= 'stimulus' src='images/baseline/05279v.jpg'></img></p>","null","","1551558281970","","","","","","",""
"null","","html-keyboard-response","149","2143895","0.0-6.0-10.7","49","<p><img class= 'stimulus' src='images/baseline/landscape15.jpg'></img></p>","null","","1551558282119","","","","","","",""
"null","","html-keyboard-response","150","2144045","0.0-6.0-11.7","49","<p><img class= 'stimulus' src='images/baseline/red rocks from afar.jpg'></img></p>","null","","1551558282269","","","","","","",""
"null","","html-keyboard-response","151","2144196","0.0-6.0-12.7","49","<p><img class= 'stimulus left-rotate' src='images/target/building2.jpg'></img></p>","null","","1551558282421","12","","","","","",""
"null","","html-keyboard-response","152","2144344","0.0-6.0-13.7","49","<p><img class= 'stimulus' src='images/baseline/4k-wallpaper-agriculture-clouds-842711.jpg'></img></p>","null","","1551558282569","","","","","","",""
"null","","html-keyboard-response","153","2144495","0.0-6.0-14.7","49","<p><img class= 'stimulus' src='images/baseline/house3.jpg'></img></p>","null","","1551558282719","14","","","","","",""
"null","","html-keyboard-response","154","2144644","0.0-6.0-15.7","49","<p><img class= 'stimulus' src='images/baseline/04060v.jpg'></img></p>","null","","1551558282870","","","","","","",""
"null","","html-keyboard-response","155","2144794","0.0-6.0-16.7","49","<p><img class= 'stimulus' src='images/baseline/pexels-photo-568236.jpeg'></img></p>","null","","1551558283019","","","","","","",""
"null","","html-keyboard-response","156","2144961","0.0-6.0-17.7","49","<p><img class= 'stimulus' src='images/baseline/05247v.jpg'></img></p>","null","","1551558283170","","","","","","",""
"1372.7000000653788","","html-button-response","157","2147338","0.0-6.0-18.7","49","<div class = ""response_question"">WAS THE IMAGE ROTATED...</div>","","0","","","4","8","bas","left","practice","true"
"2030.4999999934807","","html-button-response","158","2149370","0.0-6.0-0.8","49","","","0","","","","","","","",""
"null","","html-keyboard-response","159","2149445","0.0-6.0-1.8","49","<p><img class= 'stimulus' src='images/baseline/Desert_View_Indian_Wells.jpg'></img></p>","null","","1551558287720","","","","","","",""
"null","","html-keyboard-response","160","2149545","0.0-6.0-2.8","49","<p><img class= 'stimulus' src='images/baseline/03041v.jpg'></img></p>","null","","1551558287821","","","","","","",""
"null","","html-keyboard-response","161","2149645","0.0-6.0-3.8","49","<p><img class= 'stimulus' src='images/baseline/farmhouse7.jpg'></img></p>","null","","1551558287921","","","","","","",""
"null","","html-keyboard-response","162","2149744","0.0-6.0-4.8","49","<p><img class= 'stimulus' src='images/baseline/03201v.jpg'></img></p>","null","","1551558288021","4","","","","","",""
"null","","html-keyboard-response","163","2149845","0.0-6.0-5.8","49","<p><img class= 'stimulus' src='images/baseline/house7.jpg'></img></p>","null","","1551558288120","","","","","","",""
"null","","html-keyboard-response","164","2149944","0.0-6.0-6.8","49","<p><img class= 'stimulus' src='images/baseline/05240v.jpg'></img></p>","null","","1551558288220","6","","","","","",""
"null","","html-keyboard-response","165","2150045","0.0-6.0-7.8","49","<p><img class= 'stimulus' src='images/baseline/farmhouse1.jpg'></img></p>","null","","1551558288319","","","","","","",""
"null","","html-keyboard-response","166","2150145","0.0-6.0-8.8","49","<p><img class= 'stimulus left-rotate' src='images/target/building19.jpg'></img></p>","null","","1551558288419","8","","","","","",""
"null","","html-keyboard-response","167","2150245","0.0-6.0-9.8","49","<p><img class= 'stimulus' src='images/baseline/Beach 2.jpg'></img></p>","null","","1551558288520","","","","","","",""
"null","","html-keyboard-response","168","2150349","0.0-6.0-10.8","49","<p><img class= 'stimulus' src='images/baseline/field 4.jpg'></img></p>","null","","1551558288621","","","","","","",""
"null","","html-keyboard-response","169","2150447","0.0-6.0-11.8","49","<p><img class= 'stimulus' src='images/baseline/__08_-_ITALY_-_Forli_under_snow_-_winter_landscape_of_city_(christmas).jpg'></img></p>","null","","1551558288724","","","","","","",""
"null","","html-keyboard-response","170","2150547","0.0-6.0-12.8","49","<p><img class= 'stimulus' src='images/baseline/farmhouse2.jpg'></img></p>","null","","1551558288823","12","","","","","",""
"null","","html-keyboard-response","171","2150647","0.0-6.0-13.8","49","<p><img class= 'stimulus' src='images/baseline/Skijump 1.jpg'></img></p>","null","","1551558288924","","","","","","",""
"null","","html-keyboard-response","172","2150747","0.0-6.0-14.8","49","<p><img class= 'stimulus' src='images/baseline/Beach 3.jpg'></img></p>","null","","1551558289023","14","","","","","",""
"null","","html-keyboard-response","173","2150847","0.0-6.0-15.8","49","<p><img class= 'stimulus' src='images/baseline/02945v.jpg'></img></p>","null","","1551558289122","","","","","","",""
"null","","html-keyboard-response","174","2150947","0.0-6.0-16.8","49","<p><img class= 'stimulus' src='images/baseline/pexels-photo-414491.jpeg'></img></p>","null","","1551558289223","","","","","","",""
"null","","html-keyboard-response","175","2151065","0.0-6.0-17.8","49","<p><img class= 'stimulus' src='images/baseline/Bahia_Onelli_Parque_Nacional_Los_Glaciares_Patagonia_Argentina_Luca_Galuzzi_2005.jpg'></img></p>","null","","1551558289323","","","","","","",""
"1041.300000040792","","html-button-response","176","2153109","0.0-6.0-18.8","49","<div class = ""response_question"">WAS THE IMAGE ROTATED...</div>","","1","","","6","2","bas","left","practice","true"
"2542.4000000348315","","html-button-response","177","2155653","0.0-6.0-0.9","49","","","0","","","","","","","",""
"null","","html-keyboard-response","178","2155731","0.0-6.0-1.9","49","<p><img class= 'stimulus' src='images/baseline/farmhouse6.jpg'></img></p>","null","","1551558294006","","","","","","",""
"null","","html-keyboard-response","179","2155832","0.0-6.0-2.9","49","<p><img class= 'stimulus' src='images/baseline/Waterfall 1.jpg'></img></p>","null","","1551558294106","","","","","","",""
"null","","html-keyboard-response","180","2155931","0.0-6.0-3.9","49","<p><img class= 'stimulus' src='images/baseline/pexels-photo-1048039.jpeg'></img></p>","null","","1551558294206","","","","","","",""
"null","","html-keyboard-response","181","2156031","0.0-6.0-4.9","49","<p><img class= 'stimulus' src='images/baseline/hills 1.jpg'></img></p>","null","","1551558294306","4","","","","","",""
"null","","html-keyboard-response","182","2156130","0.0-6.0-5.9","49","<p><img class= 'stimulus' src='images/baseline/Street 5.jpg'></img></p>","null","","1551558294406","","","","","","",""
"null","","html-keyboard-response","183","2156230","0.0-6.0-6.9","49","<p><img class= 'stimulus' src='images/baseline/04098v.jpg'></img></p>","null","","1551558294507","6","","","","","",""
"null","","html-keyboard-response","184","2156332","0.0-6.0-7.9","49","<p><img class= 'stimulus' src='images/baseline/02960v.jpg'></img></p>","null","","1551558294606","","","","","","",""
"null","","html-keyboard-response","185","2156430","0.0-6.0-8.9","49","<p><img class= 'stimulus' src='images/baseline/house11.jpg'></img></p>","null","","1551558294707","8","","","","","",""
"null","","html-keyboard-response","186","2156531","0.0-6.0-9.9","49","<p><img class= 'stimulus' src='images/baseline/house1.jpg'></img></p>","null","","1551558294805","","","","","","",""
"null","","html-keyboard-response","187","2156631","0.0-6.0-10.9","49","<p><img class= 'stimulus' src='images/baseline/landscape31.jpg'></img></p>","null","","1551558294906","","","","","","",""
"null","","html-keyboard-response","188","2156731","0.0-6.0-11.9","49","<p><img class= 'stimulus' src='images/baseline/vintage-art-deco-storefront.jpg'></img></p>","null","","1551558295007","","","","","","",""
"null","","html-keyboard-response","189","2156831","0.0-6.0-12.9","49","<p><img class= 'stimulus' src='images/baseline/Sky 1.jpg'></img></p>","null","","1551558295107","12","","","","","",""
"null","","html-keyboard-response","190","2156932","0.0-6.0-13.9","49","<p><img class= 'stimulus' src='images/baseline/03204v.jpg'></img></p>","null","","1551558295206","","","","","","",""
"null","","html-keyboard-response","191","2157031","0.0-6.0-14.9","49","<p><img class= 'stimulus' src='images/target/mitre peak.jpg'></img></p>","null","","1551558295307","14","","","","","",""
"null","","html-keyboard-response","192","2157132","0.0-6.0-15.9","49","<p><img class= 'stimulus' src='images/baseline/04162v.jpg'></img></p>","null","","1551558295406","","","","","","",""
"null","","html-keyboard-response","193","2157232","0.0-6.0-16.9","49","<p><img class= 'stimulus' src='images/baseline/03075v.jpg'></img></p>","null","","1551558295507","","","","","","",""
"null","","html-keyboard-response","194","2157347","0.0-6.0-17.9","49","<p><img class= 'stimulus' src='images/baseline/house8.jpg'></img></p>","null","","1551558295606","","","","","","",""
"1302.4000000441447","","html-button-response","195","2159653","0.0-6.0-18.9","49","<div class = ""response_question"">WAS THE IMAGE ROTATED...</div>","","4","","","6","8","bas","right","practice","true"
"1974.5000000111759","","html-button-response","196","2161629","0.0-6.0-0.10","49","","","0","","","","","","","",""
"null","","html-keyboard-response","197","2161714","0.0-6.0-1.10","49","<p><img class= 'stimulus' src='images/baseline/Street 1.jpg'></img></p>","null","","1551558299990","","","","","","",""
"null","","html-keyboard-response","198","2161814","0.0-6.0-2.10","49","<p><img class= 'stimulus' src='images/baseline/empire-state-building.jpg'></img></p>","null","","1551558300090","","","","","","",""
"null","","html-keyboard-response","199","2161914","0.0-6.0-3.10","49","<p><img class= 'stimulus' src='images/baseline/04158v.jpg'></img></p>","null","","1551558300190","","","","","","",""
"null","","html-keyboard-response","200","2162014","0.0-6.0-4.10","49","<p><img class= 'stimulus' src='images/baseline/04010v.jpg'></img></p>","null","","1551558300289","4","","","","","",""
"null","","html-keyboard-response","201","2162113","0.0-6.0-5.10","49","<p><img class= 'stimulus' src='images/baseline/landscape37.jpg'></img></p>","null","","1551558300391","","","","","","",""
"null","","html-keyboard-response","202","2162214","0.0-6.0-6.10","49","<p><img class= 'stimulus' src='images/baseline/pexels-photo-894312.jpeg'></img></p>","null","","1551558300490","6","","","","","",""
"null","","html-keyboard-response","203","2162315","0.0-6.0-7.10","49","<p><img class= 'stimulus' src='images/baseline/pexels-photo-259280.jpeg'></img></p>","null","","1551558300590","","","","","","",""
"null","","html-keyboard-response","204","2162414","0.0-6.0-8.10","49","<p><img class= 'stimulus' src='images/baseline/pexels-photo-210617.jpeg'></img></p>","null","","1551558300691","8","","","","","",""
"null","","html-keyboard-response","205","2162514","0.0-6.0-9.10","49","<p><img class= 'stimulus' src='images/baseline/Linden,_paysage.jpg'></img></p>","null","","1551558300791","","","","","","",""
"null","","html-keyboard-response","206","2162614","0.0-6.0-10.10","49","<p><img class= 'stimulus' src='images/baseline/Paysage_enneige_02.jpg'></img></p>","null","","1551558300889","","","","","","",""
"null","","html-keyboard-response","207","2162714","0.0-6.0-11.10","49","<p><img class= 'stimulus' src='images/baseline/Nature 1.jpg'></img></p>","null","","1551558300989","","","","","","",""
"null","","html-keyboard-response","208","2162814","0.0-6.0-12.10","49","<p><img class= 'stimulus' src='images/baseline/landscape22.jpg'></img></p>","null","","1551558301090","12","","","","","",""
"null","","html-keyboard-response","209","2162914","0.0-6.0-13.10","49","<p><img class= 'stimulus' src='images/baseline/road 1(1).jpg'></img></p>","null","","1551558301190","","","","","","",""
"null","","html-keyboard-response","210","2163015","0.0-6.0-14.10","49","<p><img class= 'stimulus left-rotate' src='images/target/landscape_1.jpg'></img></p>","null","","1551558301291","14","","","","","",""
"null","","html-keyboard-response","211","2163115","0.0-6.0-15.10","49","<p><img class= 'stimulus' src='images/baseline/geese-flying-over-lake-at-dusk.jpg'></img></p>","null","","1551558301390","","","","","","",""
"null","","html-keyboard-response","212","2163215","0.0-6.0-16.10","49","<p><img class= 'stimulus' src='images/baseline/02971v.jpg'></img></p>","null","","1551558301490","","","","","","",""
"null","","html-keyboard-response","213","2163331","0.0-6.0-17.10","49","<p><img class= 'stimulus' src='images/baseline/Skyscraper 2.jpg'></img></p>","null","","1551558301591","","","","","","",""
"1501.5000000130385","","html-button-response","214","2165845","0.0-6.0-18.10","49","<div class = ""response_question"">WAS THE IMAGE ROTATED...</div>","","0","","","6","8","bas","left","practice","true"
"2334.400000050664","","html-button-response","215","2168181","0.0-6.0-0.11","49","","","0","","","","","","","",""
"null","","html-keyboard-response","216","2168264","0.0-6.0-1.11","49","<p><img class= 'stimulus' src='images/baseline/pexels-photo-1287089.jpeg'></img></p>","null","","1551558306540","","","","","","",""
"null","","html-keyboard-response","217","2168365","0.0-6.0-2.11","49","<p><img class= 'stimulus' src='images/baseline/05280v.jpg'></img></p>","null","","1551558306639","","","","","","",""
"null","","html-keyboard-response","218","2168465","0.0-6.0-3.11","49","<p><img class= 'stimulus' src='images/baseline/hills 4.jpg'></img></p>","null","","1551558306741","","","","","","",""
"null","","html-keyboard-response","219","2168564","0.0-6.0-4.11","49","<p><img class= 'stimulus' src='images/baseline/bird-flying-at-sunset.jpg'></img></p>","null","","1551558306839","4","","","","","",""
"null","","html-keyboard-response","220","2168664","0.0-6.0-5.11","49","<p><img class= 'stimulus' src='images/baseline/03212v.jpg'></img></p>","null","","1551558306939","","","","","","",""
"null","","html-keyboard-response","221","2168764","0.0-6.0-6.11","49","<p><img class= 'stimulus' src='images/target/Tree-Landscape-Winter-Nature-Winter-Trees-Snow-2117951.jpg'></img></p>","null","","1551558307039","6","","","","","",""
"null","","html-keyboard-response","222","2168865","0.0-6.0-7.11","49","<p><img class= 'stimulus' src='images/baseline/05198v.jpg'></img></p>","null","","1551558307140","","","","","","",""
"null","","html-keyboard-response","223","2168965","0.0-6.0-8.11","49","<p><img class= 'stimulus' src='images/baseline/05158v.jpg'></img></p>","null","","1551558307239","8","","","","","",""
"null","","html-keyboard-response","224","2169064","0.0-6.0-9.11","49","<p><img class= 'stimulus' src='images/baseline/Nature 2.jpg'></img></p>","null","","1551558307340","","","","","","",""
"null","","html-keyboard-response","225","2169165","0.0-6.0-10.11","49","<p><img class= 'stimulus' src='images/baseline/Paysage_karabagh_02.jpg'></img></p>","null","","1551558307441","","","","","","",""
"null","","html-keyboard-response","226","2169265","0.0-6.0-11.11","49","<p><img class= 'stimulus' src='images/baseline/04064v.jpg'></img></p>","null","","1551558307540","","","","","","",""
"null","","html-keyboard-response","227","2169364","0.0-6.0-12.11","49","<p><img class= 'stimulus' src='images/baseline/02962v.jpg'></img></p>","null","","1551558307641","12","","","","","",""
"null","","html-keyboard-response","228","2169465","0.0-6.0-13.11","49","<p><img class= 'stimulus' src='images/baseline/architecture-1314416_1920.jpg'></img></p>","null","","1551558307739","","","","","","",""
"null","","html-keyboard-response","229","2169565","0.0-6.0-14.11","49","<p><img class= 'stimulus' src='images/baseline/valley 1.jpg'></img></p>","null","","1551558307839","14","","","","","",""
"null","","html-keyboard-response","230","2169664","0.0-6.0-15.11","49","<p><img class= 'stimulus' src='images/baseline/valley 2.jpg'></img></p>","null","","1551558307939","","","","","","",""
"null","","html-keyboard-response","231","2169764","0.0-6.0-16.11","49","<p><img class= 'stimulus' src='images/baseline/landscape40.jpg'></img></p>","null","","1551558308040","","","","","","",""
"null","","html-keyboard-response","232","2169881","0.0-6.0-17.11","49","<p><img class= 'stimulus' src='images/baseline/05161v.jpg'></img></p>","null","","1551558308139","","","","","","",""
"825.6999999284744","","html-button-response","233","2171710","0.0-6.0-18.11","49","<div class = ""response_question"">WAS THE IMAGE ROTATED...</div>","","3","","","4","2","bas","right","practice","true"
"1590.3999999864027","","html-button-response","234","2173301","0.0-6.0-0.12","49","","","0","","","","","","","",""
"null","","html-keyboard-response","235","2173381","0.0-6.0-1.12","49","<p><img class= 'stimulus' src='images/baseline/03056v.jpg'></img></p>","null","","1551558311657","","","","","","",""
"null","","html-keyboard-response","236","2173482","0.0-6.0-2.12","49","<p><img class= 'stimulus' src='images/baseline/farmhouse11.jpg'></img></p>","null","","1551558311757","","","","","","",""
"null","","html-keyboard-response","237","2173582","0.0-6.0-3.12","49","<p><img class= 'stimulus' src='images/baseline/city-silhouette-at-sunset-871291580819Esw.jpg'></img></p>","null","","1551558311856","","","","","","",""
"null","","html-keyboard-response","238","2173680","0.0-6.0-4.12","49","<p><img class= 'stimulus' src='images/baseline/02982v.jpg'></img></p>","null","","1551558311957","4","","","","","",""
"null","","html-keyboard-response","239","2173782","0.0-6.0-5.12","49","<p><img class= 'stimulus' src='images/baseline/pexels-photo-59321.jpeg'></img></p>","null","","1551558312057","","","","","","",""
"null","","html-keyboard-response","240","2173882","0.0-6.0-6.12","49","<p><img class= 'stimulus' src='images/baseline/autumn-in-red-rocks-park.jpg'></img></p>","null","","1551558312157","6","","","","","",""
"null","","html-keyboard-response","241","2173980","0.0-6.0-7.12","49","<p><img class= 'stimulus' src='images/baseline/Lake 4.jpg'></img></p>","null","","1551558312258","","","","","","",""
"null","","html-keyboard-response","242","2174081","0.0-6.0-8.12","49","<p><img class= 'stimulus' src='images/target/italy-building-1206128_1280.jpg'></img></p>","null","","1551558312357","8","","","","","",""
"null","","html-keyboard-response","243","2174181","0.0-6.0-9.12","49","<p><img class= 'stimulus' src='images/baseline/landscape11.jpg'></img></p>","null","","1551558312456","","","","","","",""
"null","","html-keyboard-response","244","2174281","0.0-6.0-10.12","49","<p><img class= 'stimulus' src='images/baseline/05303v.jpg'></img></p>","null","","1551558312556","","","","","","",""
"null","","html-keyboard-response","245","2174381","0.0-6.0-11.12","49","<p><img class= 'stimulus' src='images/baseline/04193v.jpg'></img></p>","null","","1551558312656","","","","","","",""
"null","","html-keyboard-response","246","2174481","0.0-6.0-12.12","49","<p><img class= 'stimulus' src='images/baseline/02988v.jpg'></img></p>","null","","1551558312756","12","","","","","",""
"null","","html-keyboard-response","247","2174581","0.0-6.0-13.12","49","<p><img class= 'stimulus' src='images/baseline/house2.jpg'></img></p>","null","","1551558312856","","","","","","",""
"null","","html-keyboard-response","248","2174681","0.0-6.0-14.12","49","<p><img class= 'stimulus' src='images/baseline/farmhouse4.jpg'></img></p>","null","","1551558312957","14","","","","","",""
"null","","html-keyboard-response","249","2174780","0.0-6.0-15.12","49","<p><img class= 'stimulus' src='images/baseline/03098v.jpg'></img></p>","null","","1551558313057","","","","","","",""
"null","","html-keyboard-response","250","2174881","0.0-6.0-16.12","49","<p><img class= 'stimulus' src='images/baseline/landscape13.jpg'></img></p>","null","","1551558313157","","","","","","",""
"null","","html-keyboard-response","251","2174998","0.0-6.0-17.12","49","<p><img class= 'stimulus' src='images/baseline/Sunset 5.jpg'></img></p>","null","","1551558313257","","","","","","",""
"675.5999999586493","","html-button-response","252","2176677","0.0-6.0-18.12","49","<div class = ""response_question"">WAS THE IMAGE ROTATED...</div>","","4","","","6","2","bas","right","practice","true"
"1469.6000000694767","","html-button-response","253","2178149","0.0-6.0-0.13","49","","","0","","","","","","","",""
"null","","html-keyboard-response","254","2178231","0.0-6.0-1.13","49","<p><img class= 'stimulus' src='images/baseline/grand-teton-mountains.jpg'></img></p>","null","","1551558316506","","","","","","",""
"null","","html-keyboard-response","255","2178332","0.0-6.0-2.13","49","<p><img class= 'stimulus' src='images/baseline/Sidewalk 4.jpg'></img></p>","null","","1551558316606","","","","","","",""
"null","","html-keyboard-response","256","2178431","0.0-6.0-3.13","49","<p><img class= 'stimulus' src='images/baseline/pexels-photo-440731.jpeg'></img></p>","null","","1551558316706","","","","","","",""
"null","","html-keyboard-response","257","2178532","0.0-6.0-4.13","49","<p><img class= 'stimulus' src='images/baseline/building8.jpg'></img></p>","null","","1551558316806","4","","","","","",""
"null","","html-keyboard-response","258","2178633","0.0-6.0-5.13","49","<p><img class= 'stimulus' src='images/baseline/red-rocks-park.jpg'></img></p>","null","","1551558316907","","","","","","",""
"null","","html-keyboard-response","259","2178730","0.0-6.0-6.13","49","<p><img class= 'stimulus left-rotate' src='images/target/building17.jpg'></img></p>","null","","1551558317007","6","","","","","",""
"null","","html-keyboard-response","260","2178831","0.0-6.0-7.13","49","<p><img class= 'stimulus' src='images/baseline/04040v.jpg'></img></p>","null","","1551558317106","","","","","","",""
"null","","html-keyboard-response","261","2178932","0.0-6.0-8.13","49","<p><img class= 'stimulus' src='images/baseline/04130v.jpg'></img></p>","null","","1551558317207","8","","","","","",""
"null","","html-keyboard-response","262","2179031","0.0-6.0-9.13","49","<p><img class= 'stimulus' src='images/baseline/lake 1.jpg'></img></p>","null","","1551558317308","","","","","","",""
"null","","html-keyboard-response","263","2179131","0.0-6.0-10.13","49","<p><img class= 'stimulus' src='images/baseline/field 1.jpg'></img></p>","null","","1551558317407","","","","","","",""
"null","","html-keyboard-response","264","2179231","0.0-6.0-11.13","49","<p><img class= 'stimulus' src='images/baseline/trees 23.jpg'></img></p>","null","","1551558317507","","","","","","",""
"null","","html-keyboard-response","265","2179331","0.0-6.0-12.13","49","<p><img class= 'stimulus' src='images/baseline/Grass 6.jpg'></img></p>","null","","1551558317607","12","","","","","",""
"null","","html-keyboard-response","266","2179431","0.0-6.0-13.13","49","<p><img class= 'stimulus' src='images/baseline/03220v.jpg'></img></p>","null","","1551558317706","","","","","","",""
"null","","html-keyboard-response","267","2179531","0.0-6.0-14.13","49","<p><img class= 'stimulus' src='images/baseline/meadow-with-mountain-in-background.jpg'></img></p>","null","","1551558317807","14","","","","","",""
"null","","html-keyboard-response","268","2179631","0.0-6.0-15.13","49","<p><img class= 'stimulus' src='images/baseline/03045v.jpg'></img></p>","null","","1551558317907","","","","","","",""
"null","","html-keyboard-response","269","2179731","0.0-6.0-16.13","49","<p><img class= 'stimulus' src='images/baseline/03217v.jpg'></img></p>","null","","1551558318007","","","","","","",""
"null","","html-keyboard-response","270","2179848","0.0-6.0-17.13","49","<p><img class= 'stimulus' src='images/baseline/05264v.jpg'></img></p>","null","","1551558318106","","","","","","",""
"1418.7999999849126","","html-button-response","271","2182269","0.0-6.0-18.13","49","<div class = ""response_question"">WAS THE IMAGE ROTATED...</div>","","0","","","4","2","bas","left","practice","true"
"1749.900000053458","","html-button-response","272","2184021","0.0-6.0-0.14","49","","","0","","","","","","","",""
"null","","html-keyboard-response","273","2184098","0.0-6.0-1.14","49","<p><img class= 'stimulus' src='images/baseline/Kocherbaumwald-01.jpg'></img></p>","null","","1551558322373","","","","","","",""
"null","","html-keyboard-response","274","2184198","0.0-6.0-2.14","49","<p><img class= 'stimulus' src='images/baseline/lone-old-cottonwood-tree.jpg'></img></p>","null","","1551558322474","","","","","","",""
"null","","html-keyboard-response","275","2184299","0.0-6.0-3.14","49","<p><img class= 'stimulus' src='images/baseline/house6.jpg'></img></p>","null","","1551558322573","","","","","","",""
"null","","html-keyboard-response","276","2184398","0.0-6.0-4.14","49","<p><img class= 'stimulus' src='images/baseline/farmhouse8.jpg'></img></p>","null","","1551558322673","4","","","","","",""
"null","","html-keyboard-response","277","2184497","0.0-6.0-5.14","49","<p><img class= 'stimulus' src='images/baseline/Street 2.jpg'></img></p>","null","","1551558322774","","","","","","",""
"null","","html-keyboard-response","278","2184598","0.0-6.0-6.14","49","<p><img class= 'stimulus' src='images/baseline/Freudenberg_sg_Switzerland.jpg'></img></p>","null","","1551558322873","6","","","","","",""
"null","","html-keyboard-response","279","2184698","0.0-6.0-7.14","49","<p><img class= 'stimulus' src='images/baseline/tennis-court-net-buried-in-snow.jpg'></img></p>","null","","1551558322973","","","","","","",""
"null","","html-keyboard-response","280","2184798","0.0-6.0-8.14","49","<p><img class= 'stimulus' src='images/baseline/pexels-photo-459203.jpeg'></img></p>","null","","1551558323073","8","","","","","",""
"null","","html-keyboard-response","281","2184898","0.0-6.0-9.14","49","<p><img class= 'stimulus' src='images/baseline/house10.jpg'></img></p>","null","","1551558323174","","","","","","",""
"null","","html-keyboard-response","282","2184998","0.0-6.0-10.14","49","<p><img class= 'stimulus' src='images/baseline/flooded-bridge.jpg'></img></p>","null","","1551558323274","","","","","","",""
"null","","html-keyboard-response","283","2185098","0.0-6.0-11.14","49","<p><img class= 'stimulus' src='images/baseline/landscape34.jpg'></img></p>","null","","1551558323373","","","","","","",""
"null","","html-keyboard-response","284","2185198","0.0-6.0-12.14","49","<p><img class= 'stimulus' src='images/target/buildin5.jpg'></img></p>","null","","1551558323473","12","","","","","",""
"null","","html-keyboard-response","285","2185297","0.0-6.0-13.14","49","<p><img class= 'stimulus' src='images/baseline/03180v.jpg'></img></p>","null","","1551558323573","","","","","","",""
"null","","html-keyboard-response","286","2185397","0.0-6.0-14.14","49","<p><img class= 'stimulus' src='images/baseline/farmhouse9.jpg'></img></p>","null","","1551558323673","14","","","","","",""
"null","","html-keyboard-response","287","2185498","0.0-6.0-15.14","49","<p><img class= 'stimulus' src='images/baseline/building5.jpg'></img></p>","null","","1551558323775","","","","","","",""
"null","","html-keyboard-response","288","2185597","0.0-6.0-16.14","49","<p><img class= 'stimulus' src='images/baseline/sunset-over-the-lake.jpg'></img></p>","null","","1551558323874","","","","","","",""
"null","","html-keyboard-response","289","2185715","0.0-6.0-17.14","49","<p><img class= 'stimulus' src='images/baseline/architecture-956332_1280.jpg'></img></p>","null","","1551558323973","","","","","","",""
"893.59999995213","","html-button-response","290","2187613","0.0-6.0-18.14","49","<div class = ""response_question"">WAS THE IMAGE ROTATED...</div>","","3","","","4","8","bas","right","practice","true"
"1734.2000000644475","","html-button-response","291","2189349","0.0-6.0-0.15","49","","","0","","","","","","","",""
"null","","html-keyboard-response","292","2189432","0.0-6.0-1.15","49","<p><img class= 'stimulus' src='images/baseline/pexels-photo-1840893.jpeg'></img></p>","null","","1551558327708","","","","","","",""
"null","","html-keyboard-response","293","2189531","0.0-6.0-2.15","49","<p><img class= 'stimulus' src='images/baseline/church-silhouette-8712964986014Kb.jpg'></img></p>","null","","1551558327807","","","","","","",""
"null","","html-keyboard-response","294","2189631","0.0-6.0-3.15","49","<p><img class= 'stimulus' src='images/baseline/pexels-photo-351264.jpeg'></img></p>","null","","1551558327908","","","","","","",""
"null","","html-keyboard-response","295","2189732","0.0-6.0-4.15","49","<p><img class= 'stimulus' src='images/baseline/04201v.jpg'></img></p>","null","","1551558328007","4","","","","","",""
"null","","html-keyboard-response","296","2189831","0.0-6.0-5.15","49","<p><img class= 'stimulus' src='images/baseline/04222v.jpg'></img></p>","null","","1551558328107","","","","","","",""
"null","","html-keyboard-response","297","2189932","0.0-6.0-6.15","49","<p><img class= 'stimulus' src='images/baseline/cranes 1.jpg'></img></p>","null","","1551558328207","6","","","","","",""
"null","","html-keyboard-response","298","2190033","0.0-6.0-7.15","49","<p><img class= 'stimulus' src='images/baseline/landscape36.jpg'></img></p>","null","","1551558328307","","","","","","",""
"null","","html-keyboard-response","299","2190131","0.0-6.0-8.15","49","<p><img class= 'stimulus' src='images/baseline/04284v.jpg'></img></p>","null","","1551558328408","8","","","","","",""
"null","","html-keyboard-response","300","2190232","0.0-6.0-9.15","49","<p><img class= 'stimulus' src='images/baseline/04014v.jpg'></img></p>","null","","1551558328507","","","","","","",""
"null","","html-keyboard-response","301","2190331","0.0-6.0-10.15","49","<p><img class= 'stimulus' src='images/baseline/Beach 8.jpg'></img></p>","null","","1551558328607","","","","","","",""
"null","","html-keyboard-response","302","2190431","0.0-6.0-11.15","49","<p><img class= 'stimulus' src='images/baseline/04117v.jpg'></img></p>","null","","1551558328707","","","","","","",""
"null","","html-keyboard-response","303","2190531","0.0-6.0-12.15","49","<p><img class= 'stimulus left-rotate' src='images/target/palm-trees-1209125_640.jpg'></img></p>","null","","1551558328807","12","","","","","",""
"null","","html-keyboard-response","304","2190631","0.0-6.0-13.15","49","<p><img class= 'stimulus' src='images/baseline/landscape6.jpg'></img></p>","null","","1551558328907","","","","","","",""
"null","","html-keyboard-response","305","2190731","0.0-6.0-14.15","49","<p><img class= 'stimulus' src='images/baseline/landscape4.jpg'></img></p>","null","","1551558329008","14","","","","","",""
"null","","html-keyboard-response","306","2190832","0.0-6.0-15.15","49","<p><img class= 'stimulus' src='images/baseline/Kocherbaumwald-01.jpg'></img></p>","null","","1551558329106","","","","","","",""
"null","","html-keyboard-response","307","2190932","0.0-6.0-16.15","49","<p><img class= 'stimulus' src='images/baseline/Lake 8.jpg'></img></p>","null","","1551558329207","","","","","","",""
"null","","html-keyboard-response","308","2191048","0.0-6.0-17.15","49","<p><img class= 'stimulus' src='images/baseline/04060v.jpg'></img></p>","null","","1551558329307","","","","","","",""
"874.8999999370426","","html-button-response","309","2192925","0.0-6.0-18.15","49","<div class = ""response_question"">WAS THE IMAGE ROTATED...</div>","","0","","","4","8","bas","left","practice","true"
"122270.80000005662","","html-button-response","310","2315196","0.0-7.0","49","<p>You have now completed the practice phase. We will now begin the real trials.         This is a reminder that you will be searching for a rotated image among the series of upright images.</p>         <p>Remember, please do not blink or move your eyes while the images are on the screen.</p>         <p>At the end of the experiment, the experimenter will be able to show you how accurate you were.</p>","","0","","","","","","","",""
"4302.700000000186","","html-button-response","311","2319500","0.0-8.0-0.0-0.0","49","","","0","","","","","","","",""
"null","","html-keyboard-response","312","2319583","0.0-8.0-0.0-1.0","49","<p><img class= 'stimulus' src='images/baseline/Niinsaare_jarv.jpg'></img></p>","null","","1551558457858","","","","","","",""
"null","","html-keyboard-response","313","2319683","0.0-8.0-0.0-2.0","49","<p><img class= 'stimulus' src='images/baseline/Paysage_karabagh_02.jpg'></img></p>","null","","1551558457958","","","","","","",""
"null","","html-keyboard-response","314","2319782","0.0-8.0-0.0-3.0","49","<p><img class= 'stimulus' src='images/baseline/05252v.jpg'></img></p>","null","","1551558458058","","","","","","",""
"null","","html-keyboard-response","315","2319881","0.0-8.0-0.0-4.0","49","<p><img class= 'stimulus' src='images/baseline/meadow-with-mountain-in-background.jpg'></img></p>","null","","1551558458158","4","","","","","",""
"null","","html-keyboard-response","316","2319982","0.0-8.0-0.0-5.0","49","<p><img class= 'stimulus' src='images/baseline/pexels-photo-351264.jpeg'></img></p>","null","","1551558458258","","","","","","",""
"null","","html-keyboard-response","317","2320082","0.0-8.0-0.0-6.0","49","<p><img class= 'stimulus' src='images/neutral/Goat 1.jpg'></img></p>","null","","1551558458358","6","","","","","",""
"null","","html-keyboard-response","318","2320182","0.0-8.0-0.0-7.0","49","<p><img class= 'stimulus' src='images/baseline/red-rocks-park.jpg'></img></p>","null","","1551558458457","","","","","","",""
"null","","html-keyboard-response","319","2320282","0.0-8.0-0.0-8.0","49","<p><img class= 'stimulus' src='images/target/pexels-photo-236294.jpeg'></img></p>","null","","1551558458557","8","","","","","",""
"null","","html-keyboard-response","320","2320382","0.0-8.0-0.0-9.0","49","<p><img class= 'stimulus' src='images/baseline/03220v.jpg'></img></p>","null","","1551558458657","","","","","","",""
"null","","html-keyboard-response","321","2320483","0.0-8.0-0.0-10.0","49","<p><img class= 'stimulus' src='images/baseline/03217v.jpg'></img></p>","null","","1551558458758","","","","","","",""
"null","","html-keyboard-response","322","2320582","0.0-8.0-0.0-11.0","49","<p><img class= 'stimulus' src='images/baseline/building8.jpg'></img></p>","null","","1551558458858","","","","","","",""
"null","","html-keyboard-response","323","2320682","0.0-8.0-0.0-12.0","49","<p><img class= 'stimulus' src='images/baseline/landscape6.jpg'></img></p>","null","","1551558458958","12","","","","","",""
"null","","html-keyboard-response","324","2320781","0.0-8.0-0.0-13.0","49","<p><img class= 'stimulus' src='images/baseline/Waterfall 1.jpg'></img></p>","null","","1551558459057","","","","","","",""
"null","","html-keyboard-response","325","2320882","0.0-8.0-0.0-14.0","49","<p><img class= 'stimulus' src='images/baseline/Skyscraper 1.jpg'></img></p>","null","","1551558459158","14","","","","","",""
"null","","html-keyboard-response","326","2320981","0.0-8.0-0.0-15.0","49","<p><img class= 'stimulus' src='images/baseline/kokkari-1523011968Xfr.jpg'></img></p>","null","","1551558459257","","","","","","",""
"null","","html-keyboard-response","327","2321082","0.0-8.0-0.0-16.0","49","<p><img class= 'stimulus' src='images/baseline/valley 1.jpg'></img></p>","null","","1551558459358","","","","","","",""
"null","","html-keyboard-response","328","2321199","0.0-8.0-0.0-17.0","49","<p><img class= 'stimulus' src='images/baseline/03112v.jpg'></img></p>","null","","1551558459457","","","","","","",""
"1355.8000000193715","","html-button-response","329","2323573","0.0-8.0-0.0-18.0","49","<div class = ""response_question"">WAS THE IMAGE ROTATED...</div>","","4","","","6","2","neu","right","test","true"
"2710.4000000981614","","html-button-response","330","2326284","0.0-8.0-0.0-0.1","49","","","0","","","","","","","",""
"null","","html-keyboard-response","331","2326365","0.0-8.0-0.0-1.1","49","<p><img class= 'stimulus' src='images/baseline/04010v.jpg'></img></p>","null","","1551558464641","","","","","","",""
"null","","html-keyboard-response","332","2326466","0.0-8.0-0.0-2.1","49","<p><img class= 'stimulus' src='images/baseline/05139v.jpg'></img></p>","null","","1551558464742","","","","","","",""
"null","","html-keyboard-response","333","2326566","0.0-8.0-0.0-3.1","49","<p><img class= 'stimulus' src='images/baseline/__08_-_ITALY_-_Forli_under_snow_-_winter_landscape_of_city_(christmas).jpg'></img></p>","null","","1551558464840","","","","","","",""
"null","","html-keyboard-response","334","2326665","0.0-8.0-0.0-4.1","49","<p><img class= 'stimulus' src='images/baseline/Street 2.jpg'></img></p>","null","","1551558464941","4","","","","","",""
"null","","html-keyboard-response","335","2326765","0.0-8.0-0.0-5.1","49","<p><img class= 'stimulus' src='images/baseline/house2.jpg'></img></p>","null","","1551558465041","","","","","","",""
"null","","html-keyboard-response","336","2326866","0.0-8.0-0.0-6.1","49","<p><img class= 'stimulus' src='images/negative/Injury 4.jpg'></img></p>","null","","1551558465141","6","","","","","",""
"null","","html-keyboard-response","337","2326965","0.0-8.0-0.0-7.1","49","<p><img class= 'stimulus' src='images/baseline/landscape23.jpg'></img></p>","null","","1551558465241","","","","","","",""
"null","","html-keyboard-response","338","2327065","0.0-8.0-0.0-8.1","49","<p><img class= 'stimulus left-rotate' src='images/target/landscape20.jpg'></img></p>","null","","1551558465341","8","","","","","",""
"null","","html-keyboard-response","339","2327166","0.0-8.0-0.0-9.1","49","<p><img class= 'stimulus' src='images/baseline/snowy tree.jpg'></img></p>","null","","1551558465441","","","","","","",""
"null","","html-keyboard-response","340","2327265","0.0-8.0-0.0-10.1","49","<p><img class= 'stimulus' src='images/baseline/03045v.jpg'></img></p>","null","","1551558465542","","","","","","",""
"null","","html-keyboard-response","341","2327365","0.0-8.0-0.0-11.1","49","<p><img class= 'stimulus' src='images/baseline/pexels-photo-1054289.jpeg'></img></p>","null","","1551558465641","","","","","","",""
"null","","html-keyboard-response","342","2327465","0.0-8.0-0.0-12.1","49","<p><img class= 'stimulus' src='images/baseline/pexels-photo-1287089.jpeg'></img></p>","null","","1551558465742","12","","","","","",""
"null","","html-keyboard-response","343","2327566","0.0-8.0-0.0-13.1","49","<p><img class= 'stimulus' src='images/baseline/valley 2.jpg'></img></p>","null","","1551558465841","","","","","","",""
"null","","html-keyboard-response","344","2327666","0.0-8.0-0.0-14.1","49","<p><img class= 'stimulus' src='images/baseline/landscape29.jpg'></img></p>","null","","1551558465941","14","","","","","",""
"null","","html-keyboard-response","345","2327765","0.0-8.0-0.0-15.1","49","<p><img class= 'stimulus' src='images/baseline/05167v.jpg'></img></p>","null","","1551558466041","","","","","","",""
"null","","html-keyboard-response","346","2327865","0.0-8.0-0.0-16.1","49","<p><img class= 'stimulus' src='images/baseline/Beach 2.jpg'></img></p>","null","","1551558466142","","","","","","",""
"null","","html-keyboard-response","347","2327982","0.0-8.0-0.0-17.1","49","<p><img class= 'stimulus' src='images/baseline/03063v.jpg'></img></p>","null","","1551558466241","","","","","","",""
"2330.8999999426305","","html-button-response","348","2331317","0.0-8.0-0.0-18.1","49","<div class = ""response_question"">WAS THE IMAGE ROTATED...</div>","","0","","","6","2","neg","left","test","true"
"2150.2999999793246","","html-button-response","349","2333468","0.0-8.0-0.0-0.2","49","","","0","","","","","","","",""
"null","","html-keyboard-response","350","2333548","0.0-8.0-0.0-1.2","49","<p><img class= 'stimulus' src='images/baseline/bird-flying-at-sunset.jpg'></img></p>","null","","1551558471824","","","","","","",""
"null","","html-keyboard-response","351","2333648","0.0-8.0-0.0-2.2","49","<p><img class= 'stimulus' src='images/baseline/Sunset 6.jpg'></img></p>","null","","1551558471924","","","","","","",""
"null","","html-keyboard-response","352","2333749","0.0-8.0-0.0-3.2","49","<p><img class= 'stimulus' src='images/baseline/03212v.jpg'></img></p>","null","","1551558472024","","","","","","",""
"null","","html-keyboard-response","353","2333848","0.0-8.0-0.0-4.2","49","<p><img class= 'stimulus' src='images/baseline/scenic-mountain-landscape.jpg'></img></p>","null","","1551558472125","4","","","","","",""
"null","","html-keyboard-response","354","2333949","0.0-8.0-0.0-5.2","49","<p><img class= 'stimulus' src='images/baseline/02982v.jpg'></img></p>","null","","1551558472224","","","","","","",""
"null","","html-keyboard-response","355","2334049","0.0-8.0-0.0-6.2","49","<p><img class= 'stimulus' src='images/baseline/Lake 3.jpg'></img></p>","null","","1551558472324","6","","","","","",""
"null","","html-keyboard-response","356","2334149","0.0-8.0-0.0-7.2","49","<p><img class= 'stimulus' src='images/baseline/02971v.jpg'></img></p>","null","","1551558472424","","","","","","",""
"null","","html-keyboard-response","357","2334250","0.0-8.0-0.0-8.2","49","<p><img class= 'stimulus' src='images/baseline/sunset-over-the-lake.jpg'></img></p>","null","","1551558472524","8","","","","","",""
"null","","html-keyboard-response","358","2334349","0.0-8.0-0.0-9.2","49","<p><img class= 'stimulus' src='images/baseline/chicago-skyline-at-night-1476869511p8U.jpg'></img></p>","null","","1551558472625","","","","","","",""
"null","","html-keyboard-response","359","2334448","0.0-8.0-0.0-10.2","49","<p><img class= 'stimulus' src='images/baseline/autumn-in-red-rocks-park.jpg'></img></p>","null","","1551558472724","","","","","","",""
"null","","html-keyboard-response","360","2334549","0.0-8.0-0.0-11.2","49","<p><img class= 'stimulus' src='images/baseline/house3.jpg'></img></p>","null","","1551558472825","","","","","","",""
"null","","html-keyboard-response","361","2334649","0.0-8.0-0.0-12.2","49","<p><img class= 'stimulus left-rotate' src='images/target/skyscraper-3855012_640.jpg'></img></p>","null","","1551558472925","12","","","","","",""
"null","","html-keyboard-response","362","2334749","0.0-8.0-0.0-13.2","49","<p><img class= 'stimulus' src='images/baseline/05264v.jpg'></img></p>","null","","1551558473026","","","","","","",""
"null","","html-keyboard-response","363","2334848","0.0-8.0-0.0-14.2","49","<p><img class= 'stimulus' src='images/baseline/pexels-photo-221125.jpeg'></img></p>","null","","1551558473124","14","","","","","",""
"null","","html-keyboard-response","364","2334949","0.0-8.0-0.0-15.2","49","<p><img class= 'stimulus' src='images/baseline/landscape22.jpg'></img></p>","null","","1551558473224","","","","","","",""
"null","","html-keyboard-response","365","2335049","0.0-8.0-0.0-16.2","49","<p><img class= 'stimulus' src='images/baseline/04196v.jpg'></img></p>","null","","1551558473324","","","","","","",""
"null","","html-keyboard-response","366","2335165","0.0-8.0-0.0-17.2","49","<p><img class= 'stimulus' src='images/baseline/building3.jpg'></img></p>","null","","1551558473425","","","","","","",""
"660.7000000076368","","html-button-response","367","2336829","0.0-8.0-0.0-18.2","49","<div class = ""response_question"">WAS THE IMAGE ROTATED...</div>","","1","","","4","8","bas","left","test","true"
"1254.2999999132007","","html-button-response","368","2338084","0.0-8.0-0.0-0.3","49","","","0","","","","","","","",""
"null","","html-keyboard-response","369","2338165","0.0-8.0-0.0-1.3","49","<p><img class= 'stimulus' src='images/baseline/04014v.jpg'></img></p>","null","","1551558476441","","","","","","",""
"null","","html-keyboard-response","370","2338265","0.0-8.0-0.0-2.3","49","<p><img class= 'stimulus' src='images/baseline/04179v.jpg'></img></p>","null","","1551558476541","","","","","","",""
"null","","html-keyboard-response","371","2338365","0.0-8.0-0.0-3.3","49","<p><img class= 'stimulus' src='images/baseline/trees 23.jpg'></img></p>","null","","1551558476642","","","","","","",""
"null","","html-keyboard-response","372","2338465","0.0-8.0-0.0-4.3","49","<p><img class= 'stimulus' src='images/baseline/04229v.jpg'></img></p>","null","","1551558476742","4","","","","","",""
"null","","html-keyboard-response","373","2338566","0.0-8.0-0.0-5.3","49","<p><img class= 'stimulus' src='images/baseline/pexels-photo-440731.jpeg'></img></p>","null","","1551558476842","","","","","","",""
"null","","html-keyboard-response","374","2338665","0.0-8.0-0.0-6.3","49","<p><img class= 'stimulus' src='images/baseline/04021v.jpg'></img></p>","null","","1551558476941","6","","","","","",""
"null","","html-keyboard-response","375","2338766","0.0-8.0-0.0-7.3","49","<p><img class= 'stimulus' src='images/baseline/pexels-photo-459203.jpeg'></img></p>","null","","1551558477042","","","","","","",""
"null","","html-keyboard-response","376","2338866","0.0-8.0-0.0-8.3","49","<p><img class= 'stimulus' src='images/baseline/house7.jpg'></img></p>","null","","1551558477142","8","","","","","",""
"null","","html-keyboard-response","377","2338966","0.0-8.0-0.0-9.3","49","<p><img class= 'stimulus' src='images/baseline/Beach 3.jpg'></img></p>","null","","1551558477241","","","","","","",""
"null","","html-keyboard-response","378","2339066","0.0-8.0-0.0-10.3","49","<p><img class= 'stimulus' src='images/baseline/04063v.jpg'></img></p>","null","","1551558477341","","","","","","",""
"null","","html-keyboard-response","379","2339165","0.0-8.0-0.0-11.3","49","<p><img class= 'stimulus' src='images/baseline/city-silhouette-at-sunset-871291580819Esw.jpg'></img></p>","null","","1551558477440","","","","","","",""
"null","","html-keyboard-response","380","2339265","0.0-8.0-0.0-12.3","49","<p><img class= 'stimulus left-rotate' src='images/target/building4.jpg'></img></p>","null","","1551558477541","12","","","","","",""
"null","","html-keyboard-response","381","2339365","0.0-8.0-0.0-13.3","49","<p><img class= 'stimulus' src='images/baseline/farmhouse2.jpg'></img></p>","null","","1551558477641","","","","","","",""
"null","","html-keyboard-response","382","2339466","0.0-8.0-0.0-14.3","49","<p><img class= 'stimulus' src='images/baseline/Beach 8.jpg'></img></p>","null","","1551558477741","14","","","","","",""
"null","","html-keyboard-response","383","2339566","0.0-8.0-0.0-15.3","49","<p><img class= 'stimulus' src='images/baseline/Skijump 1.jpg'></img></p>","null","","1551558477841","","","","","","",""
"null","","html-keyboard-response","384","2339666","0.0-8.0-0.0-16.3","49","<p><img class= 'stimulus' src='images/baseline/Lake 4.jpg'></img></p>","null","","1551558477941","","","","","","",""
"null","","html-keyboard-response","385","2339782","0.0-8.0-0.0-17.3","49","<p><img class= 'stimulus' src='images/baseline/pexels-photo-541101.jpeg'></img></p>","null","","1551558478041","","","","","","",""
"798.0000000679865","","html-button-response","386","2341588","0.0-8.0-0.0-18.3","49","<div class = ""response_question"">WAS THE IMAGE ROTATED...</div>","","0","","","4","8","bas","left","test","true"
"2166.700000059791","","html-button-response","387","2343757","0.0-8.0-0.0-0.4","49","","","0","","","","","","","",""
"null","","html-keyboard-response","388","2343834","0.0-8.0-0.0-1.4","49","<p><img class= 'stimulus' src='images/baseline/04130v.jpg'></img></p>","null","","1551558482108","","","","","","",""
"null","","html-keyboard-response","389","2343932","0.0-8.0-0.0-2.4","49","<p><img class= 'stimulus' src='images/baseline/farmhouse7.jpg'></img></p>","null","","1551558482209","","","","","","",""
"null","","html-keyboard-response","390","2344032","0.0-8.0-0.0-3.4","49","<p><img class= 'stimulus' src='images/baseline/Dock 1.jpg'></img></p>","null","","1551558482308","","","","","","",""
"null","","html-keyboard-response","391","2344132","0.0-8.0-0.0-4.4","49","<p><img class= 'stimulus' src='images/baseline/05131v.jpg'></img></p>","null","","1551558482408","4","","","","","",""
"null","","html-keyboard-response","392","2344232","0.0-8.0-0.0-5.4","49","<p><img class= 'stimulus' src='images/baseline/04062v.jpg'></img></p>","null","","1551558482508","","","","","","",""
"null","","html-keyboard-response","393","2344332","0.0-8.0-0.0-6.4","49","<p><img class= 'stimulus' src='images/neutral/Bird 2.jpg'></img></p>","null","","1551558482608","6","","","","","",""
"null","","html-keyboard-response","394","2344432","0.0-8.0-0.0-7.4","49","<p><img class= 'stimulus' src='images/baseline/architecture_modern_architecture_852928.jpg'></img></p>","null","","1551558482708","","","","","","",""
"null","","html-keyboard-response","395","2344533","0.0-8.0-0.0-8.4","49","<p><img class= 'stimulus left-rotate' src='images/target/tree-in-desert-landscape.jpg'></img></p>","null","","1551558482809","8","","","","","",""
"null","","html-keyboard-response","396","2344633","0.0-8.0-0.0-9.4","49","<p><img class= 'stimulus' src='images/baseline/architecture-956332_1280.jpg'></img></p>","null","","1551558482908","","","","","","",""
"null","","html-keyboard-response","397","2344733","0.0-8.0-0.0-10.4","49","<p><img class= 'stimulus' src='images/baseline/farmhouse4.jpg'></img></p>","null","","1551558483008","","","","","","",""
"null","","html-keyboard-response","398","2344832","0.0-8.0-0.0-11.4","49","<p><img class= 'stimulus' src='images/baseline/red rocks from afar.jpg'></img></p>","null","","1551558483109","","","","","","",""
"null","","html-keyboard-response","399","2344933","0.0-8.0-0.0-12.4","49","<p><img class= 'stimulus' src='images/baseline/dirt-road-or-trail-through-park.jpg'></img></p>","null","","1551558483208","12","","","","","",""
"null","","html-keyboard-response","400","2345032","0.0-8.0-0.0-13.4","49","<p><img class= 'stimulus' src='images/baseline/road 1(1).jpg'></img></p>","null","","1551558483308","","","","","","",""
"null","","html-keyboard-response","401","2345133","0.0-8.0-0.0-14.4","49","<p><img class= 'stimulus' src='images/baseline/tennis-court-net-buried-in-snow.jpg'></img></p>","null","","1551558483408","14","","","","","",""
"null","","html-keyboard-response","402","2345232","0.0-8.0-0.0-15.4","49","<p><img class= 'stimulus' src='images/baseline/02945v.jpg'></img></p>","null","","1551558483508","","","","","","",""
"null","","html-keyboard-response","403","2345332","0.0-8.0-0.0-16.4","49","<p><img class= 'stimulus' src='images/baseline/Road 1.jpg'></img></p>","null","","1551558483608","","","","","","",""
"null","","html-keyboard-response","404","2345449","0.0-8.0-0.0-17.4","49","<p><img class= 'stimulus' src='images/baseline/pexels-photo-1048039.jpeg'></img></p>","null","","1551558483707","","","","","","",""
"4036.900000064634","","html-button-response","405","2350493","0.0-8.0-0.0-18.4","49","<div class = ""response_question"">WAS THE IMAGE ROTATED...</div>","","5","","","6","2","neu","left","test","false"
"8893.900000024587","","html-button-response","406","2359388","0.0-8.0-0.0-0.5","49","","","0","","","","","","","",""
"null","","html-keyboard-response","407","2359466","0.0-8.0-0.0-1.5","49","<p><img class= 'stimulus' src='images/baseline/05158v.jpg'></img></p>","null","","1551558497743","","","","","","",""
"null","","html-keyboard-response","408","2359565","0.0-8.0-0.0-2.5","49","<p><img class= 'stimulus' src='images/baseline/04162v.jpg'></img></p>","null","","1551558497842","","","","","","",""
"null","","html-keyboard-response","409","2359666","0.0-8.0-0.0-3.5","49","<p><img class= 'stimulus' src='images/baseline/03148v.jpg'></img></p>","null","","1551558497940","","","","","","",""
"null","","html-keyboard-response","410","2359766","0.0-8.0-0.0-4.5","49","<p><img class= 'stimulus' src='images/neutral/Neuralll (1).jpg'></img></p>","null","","1551558498040","4","","","","","",""
"null","","html-keyboard-response","411","2359865","0.0-8.0-0.0-5.5","49","<p><img class= 'stimulus' src='images/baseline/town-square-in-wroclaw-1539098440MZy.jpg'></img></p>","null","","1551558498142","","","","","","",""
"null","","html-keyboard-response","412","2359966","0.0-8.0-0.0-6.5","49","<p><img class= 'stimulus' src='images/target/building5.jpg'></img></p>","null","","1551558498241","6","","","","","",""
"null","","html-keyboard-response","413","2360066","0.0-8.0-0.0-7.5","49","<p><img class= 'stimulus' src='images/baseline/agriculture-cereal-clouds-175389.jpg'></img></p>","null","","1551558498341","","","","","","",""
"null","","html-keyboard-response","414","2360166","0.0-8.0-0.0-8.5","49","<p><img class= 'stimulus' src='images/baseline/Peyto_Lake-Banff_NP-Canada.jpg'></img></p>","null","","1551558498442","8","","","","","",""
"null","","html-keyboard-response","415","2360267","0.0-8.0-0.0-9.5","49","<p><img class= 'stimulus' src='images/baseline/landscape2.jpg'></img></p>","null","","1551558498541","","","","","","",""
"null","","html-keyboard-response","416","2360366","0.0-8.0-0.0-10.5","49","<p><img class= 'stimulus' src='images/baseline/05186v.jpg'></img></p>","null","","1551558498641","","","","","","",""
"null","","html-keyboard-response","417","2360467","0.0-8.0-0.0-11.5","49","<p><img class= 'stimulus' src='images/baseline/house8.jpg'></img></p>","null","","1551558498742","","","","","","",""
"null","","html-keyboard-response","418","2360566","0.0-8.0-0.0-12.5","49","<p><img class= 'stimulus' src='images/baseline/building2.jpg'></img></p>","null","","1551558498841","12","","","","","",""
"null","","html-keyboard-response","419","2360666","0.0-8.0-0.0-13.5","49","<p><img class= 'stimulus' src='images/baseline/pexels-photo-414491.jpeg'></img></p>","null","","1551558498942","","","","","","",""
"null","","html-keyboard-response","420","2360766","0.0-8.0-0.0-14.5","49","<p><img class= 'stimulus' src='images/baseline/04085v.jpg'></img></p>","null","","1551558499041","14","","","","","",""
"null","","html-keyboard-response","421","2360865","0.0-8.0-0.0-15.5","49","<p><img class= 'stimulus' src='images/baseline/pexels-photo-534164.jpeg'></img></p>","null","","1551558499141","","","","","","",""
"null","","html-keyboard-response","422","2360966","0.0-8.0-0.0-16.5","49","<p><img class= 'stimulus' src='images/baseline/field 4.jpg'></img></p>","null","","1551558499241","","","","","","",""
"null","","html-keyboard-response","423","2361084","0.0-8.0-0.0-17.5","49","<p><img class= 'stimulus' src='images/baseline/Paysage_enneige_02.jpg'></img></p>","null","","1551558499341","","","","","","",""
"1492.8000000072643","","html-button-response","424","2363581","0.0-8.0-0.0-18.5","49","<div class = ""response_question"">WAS THE IMAGE ROTATED...</div>","","3","","","4","2","neu","right","test","true"
"1406.3999999780208","","html-button-response","425","2364980","0.0-8.0-0.0-0.6","49","","","0","","","","","","","",""
"null","","html-keyboard-response","426","2365058","0.0-8.0-0.0-1.6","49","<p><img class= 'stimulus' src='images/baseline/house1.jpg'></img></p>","null","","1551558503333","","","","","","",""
"null","","html-keyboard-response","427","2365159","0.0-8.0-0.0-2.6","49","<p><img class= 'stimulus' src='images/baseline/02988v.jpg'></img></p>","null","","1551558503433","","","","","","",""
"null","","html-keyboard-response","428","2365257","0.0-8.0-0.0-3.6","49","<p><img class= 'stimulus' src='images/baseline/05240v.jpg'></img></p>","null","","1551558503534","","","","","","",""
"null","","html-keyboard-response","429","2365357","0.0-8.0-0.0-4.6","49","<p><img class= 'stimulus' src='images/negative/Car accident 3.jpg'></img></p>","null","","1551558503633","4","","","","","",""
"null","","html-keyboard-response","430","2365457","0.0-8.0-0.0-5.6","49","<p><img class= 'stimulus' src='images/baseline/pexels-photo-808465.jpeg'></img></p>","null","","1551558503733","","","","","","",""
"null","","html-keyboard-response","431","2365557","0.0-8.0-0.0-6.6","49","<p><img class= 'stimulus left-rotate' src='images/target/beach1.jpeg'></img></p>","null","","1551558503834","6","","","","","",""
"null","","html-keyboard-response","432","2365657","0.0-8.0-0.0-7.6","49","<p><img class= 'stimulus' src='images/baseline/Sky 1.jpg'></img></p>","null","","1551558503932","","","","","","",""
"null","","html-keyboard-response","433","2365758","0.0-8.0-0.0-8.6","49","<p><img class= 'stimulus' src='images/baseline/02962v.jpg'></img></p>","null","","1551558504033","8","","","","","",""
"null","","html-keyboard-response","434","2365857","0.0-8.0-0.0-9.6","49","<p><img class= 'stimulus' src='images/baseline/Sidewalk 4.jpg'></img></p>","null","","1551558504133","","","","","","",""
"null","","html-keyboard-response","435","2365958","0.0-8.0-0.0-10.6","49","<p><img class= 'stimulus' src='images/baseline/sunny-landscape-with-dry-brush-and-mountain-background.jpg'></img></p>","null","","1551558504233","","","","","","",""
"null","","html-keyboard-response","436","2366058","0.0-8.0-0.0-11.6","49","<p><img class= 'stimulus' src='images/baseline/pexels-photo-280222.jpeg'></img></p>","null","","1551558504334","","","","","","",""
"null","","html-keyboard-response","437","2366157","0.0-8.0-0.0-12.6","49","<p><img class= 'stimulus' src='images/baseline/05280v.jpg'></img></p>","null","","1551558504434","12","","","","","",""
"null","","html-keyboard-response","438","2366257","0.0-8.0-0.0-13.6","49","<p><img class= 'stimulus' src='images/baseline/05189v.jpg'></img></p>","null","","1551558504533","","","","","","",""
"null","","html-keyboard-response","439","2366357","0.0-8.0-0.0-14.6","49","<p><img class= 'stimulus' src='images/baseline/pexels-photo-894312.jpeg'></img></p>","null","","1551558504633","14","","","","","",""
"null","","html-keyboard-response","440","2366457","0.0-8.0-0.0-15.6","49","<p><img class= 'stimulus' src='images/baseline/05198v.jpg'></img></p>","null","","1551558504733","","","","","","",""
"null","","html-keyboard-response","441","2366557","0.0-8.0-0.0-16.6","49","<p><img class= 'stimulus' src='images/baseline/house10.jpg'></img></p>","null","","1551558504833","","","","","","",""
"null","","html-keyboard-response","442","2366674","0.0-8.0-0.0-17.6","49","<p><img class= 'stimulus' src='images/baseline/lake3.jpg'></img></p>","null","","1551558504933","","","","","","",""
"1374.599999981001","","html-button-response","443","2369052","0.0-8.0-0.0-18.6","49","<div class = ""response_question"">WAS THE IMAGE ROTATED...</div>","","0","","","4","2","neg","left","test","true"
"2150.599999935366","","html-button-response","444","2371204","0.0-8.0-0.0-0.7","49","","","0","","","","","","","",""
"null","","html-keyboard-response","445","2371292","0.0-8.0-0.0-1.7","49","<p><img class= 'stimulus' src='images/baseline/pexels-photo-1840893.jpeg'></img></p>","null","","1551558509566","","","","","","",""
"null","","html-keyboard-response","446","2371390","0.0-8.0-0.0-2.7","49","<p><img class= 'stimulus' src='images/baseline/lake 1.jpg'></img></p>","null","","1551558509666","","","","","","",""
"null","","html-keyboard-response","447","2371490","0.0-8.0-0.0-3.7","49","<p><img class= 'stimulus' src='images/baseline/hiking-trail.jpg'></img></p>","null","","1551558509767","","","","","","",""
"null","","html-keyboard-response","448","2371591","0.0-8.0-0.0-4.7","49","<p><img class= 'stimulus' src='images/neutral/Picnic 4.jpg'></img></p>","null","","1551558509866","4","","","","","",""
"null","","html-keyboard-response","449","2371690","0.0-8.0-0.0-5.7","49","<p><img class= 'stimulus' src='images/baseline/Lake 5.jpg'></img></p>","null","","1551558509967","","","","","","",""
"null","","html-keyboard-response","450","2371790","0.0-8.0-0.0-6.7","49","<p><img class= 'stimulus' src='images/baseline/pexels-photo-750108.jpeg'></img></p>","null","","1551558510066","6","","","","","",""
"null","","html-keyboard-response","451","2371891","0.0-8.0-0.0-7.7","49","<p><img class= 'stimulus' src='images/baseline/landscape31.jpg'></img></p>","null","","1551558510165","","","","","","",""
"null","","html-keyboard-response","452","2371990","0.0-8.0-0.0-8.7","49","<p><img class= 'stimulus' src='images/baseline/Lake 13.jpg'></img></p>","null","","1551558510266","8","","","","","",""
"null","","html-keyboard-response","453","2372091","0.0-8.0-0.0-9.7","49","<p><img class= 'stimulus' src='images/baseline/flooded-bridge.jpg'></img></p>","null","","1551558510366","","","","","","",""
"null","","html-keyboard-response","454","2372192","0.0-8.0-0.0-10.7","49","<p><img class= 'stimulus' src='images/baseline/geese-flying-over-lake-at-dusk.jpg'></img></p>","null","","1551558510466","","","","","","",""
"null","","html-keyboard-response","455","2372291","0.0-8.0-0.0-11.7","49","<p><img class= 'stimulus' src='images/baseline/autumn-landscape-with-lake-fall-trees-mountains.jpg'></img></p>","null","","1551558510566","","","","","","",""
"null","","html-keyboard-response","456","2372391","0.0-8.0-0.0-12.7","49","<p><img class= 'stimulus' src='images/target/petronas-towers-433081_1920.jpg'></img></p>","null","","1551558510666","12","","","","","",""
"null","","html-keyboard-response","457","2372491","0.0-8.0-0.0-13.7","49","<p><img class= 'stimulus' src='images/baseline/cranes 1.jpg'></img></p>","null","","1551558510766","","","","","","",""
"null","","html-keyboard-response","458","2372590","0.0-8.0-0.0-14.7","49","<p><img class= 'stimulus' src='images/baseline/02977v.jpg'></img></p>","null","","1551558510866","14","","","","","",""
"null","","html-keyboard-response","459","2372691","0.0-8.0-0.0-15.7","49","<p><img class= 'stimulus' src='images/baseline/vintage-art-deco-storefront.jpg'></img></p>","null","","1551558510967","","","","","","",""
"null","","html-keyboard-response","460","2372790","0.0-8.0-0.0-16.7","49","<p><img class= 'stimulus' src='images/baseline/landscape1.jpg'></img></p>","null","","1551558511066","","","","","","",""
"null","","html-keyboard-response","461","2372907","0.0-8.0-0.0-17.7","49","<p><img class= 'stimulus' src='images/baseline/field 3.jpg'></img></p>","null","","1551558511167","","","","","","",""
"869.5000000298023","","html-button-response","462","2374780","0.0-8.0-0.0-18.7","49","<div class = ""response_question"">WAS THE IMAGE ROTATED...</div>","","3","","","4","8","neu","right","test","true"
"998.1999999145046","","html-button-response","463","2375780","0.0-8.0-0.0-0.8","49","","","0","","","","","","","",""
"null","","html-keyboard-response","464","2375858","0.0-8.0-0.0-1.8","49","<p><img class= 'stimulus' src='images/baseline/pexels-photo-59321.jpeg'></img></p>","null","","1551558514133","","","","","","",""
"null","","html-keyboard-response","465","2375957","0.0-8.0-0.0-2.8","49","<p><img class= 'stimulus' src='images/baseline/02960v.jpg'></img></p>","null","","1551558514233","","","","","","",""
"null","","html-keyboard-response","466","2376058","0.0-8.0-0.0-3.8","49","<p><img class= 'stimulus' src='images/baseline/house11.jpg'></img></p>","null","","1551558514333","","","","","","",""
"null","","html-keyboard-response","467","2376157","0.0-8.0-0.0-4.8","49","<p><img class= 'stimulus' src='images/negative/Gun 1.jpg'></img></p>","null","","1551558514432","4","","","","","",""
"null","","html-keyboard-response","468","2376258","0.0-8.0-0.0-5.8","49","<p><img class= 'stimulus' src='images/baseline/sun-through-winter-tree-branches1.jpg'></img></p>","null","","1551558514533","","","","","","",""
"null","","html-keyboard-response","469","2376358","0.0-8.0-0.0-6.8","49","<p><img class= 'stimulus' src='images/baseline/Nature 1.jpg'></img></p>","null","","1551558514632","6","","","","","",""
"null","","html-keyboard-response","470","2376458","0.0-8.0-0.0-7.8","49","<p><img class= 'stimulus' src='images/baseline/Aletschgletscher-Eggishorn.jpg'></img></p>","null","","1551558514733","","","","","","",""
"null","","html-keyboard-response","471","2376557","0.0-8.0-0.0-8.8","49","<p><img class= 'stimulus' src='images/baseline/Lake 7.jpg'></img></p>","null","","1551558514832","8","","","","","",""
"null","","html-keyboard-response","472","2376658","0.0-8.0-0.0-9.8","49","<p><img class= 'stimulus' src='images/baseline/Nature 2.jpg'></img></p>","null","","1551558514933","","","","","","",""
"null","","html-keyboard-response","473","2376757","0.0-8.0-0.0-10.8","49","<p><img class= 'stimulus' src='images/baseline/Street 3.jpg'></img></p>","null","","1551558515034","","","","","","",""
"null","","html-keyboard-response","474","2376857","0.0-8.0-0.0-11.8","49","<p><img class= 'stimulus' src='images/baseline/03041v.jpg'></img></p>","null","","1551558515133","","","","","","",""
"null","","html-keyboard-response","475","2376958","0.0-8.0-0.0-12.8","49","<p><img class= 'stimulus left-rotate' src='images/target/lone-tree-1934897_640.jpg'></img></p>","null","","1551558515233","12","","","","","",""
"null","","html-keyboard-response","476","2377057","0.0-8.0-0.0-13.8","49","<p><img class= 'stimulus' src='images/baseline/Street 1.jpg'></img></p>","null","","1551558515333","","","","","","",""
"null","","html-keyboard-response","477","2377158","0.0-8.0-0.0-14.8","49","<p><img class= 'stimulus' src='images/baseline/empire-state-building.jpg'></img></p>","null","","1551558515433","14","","","","","",""
"null","","html-keyboard-response","478","2377257","0.0-8.0-0.0-15.8","49","<p><img class= 'stimulus' src='images/baseline/04117v.jpg'></img></p>","null","","1551558515532","","","","","","",""
"null","","html-keyboard-response","479","2377357","0.0-8.0-0.0-16.8","49","<p><img class= 'stimulus' src='images/baseline/Happy pose 3.jpg'></img></p>","null","","1551558515634","","","","","","",""
"null","","html-keyboard-response","480","2377474","0.0-8.0-0.0-17.8","49","<p><img class= 'stimulus' src='images/baseline/river 1.jpg'></img></p>","null","","1551558515733","","","","","","",""
"855.600000009872","","html-button-response","481","2379332","0.0-8.0-0.0-18.8","49","<div class = ""response_question"">WAS THE IMAGE ROTATED...</div>","","0","","","4","8","neg","left","test","true"
"982.2999999159947","","html-button-response","482","2380317","0.0-8.0-0.0-0.9","49","","","0","","","","","","","",""
"null","","html-keyboard-response","483","2380390","0.0-8.0-0.0-1.9","49","<p><img class= 'stimulus' src='images/baseline/Lake 14.jpg'></img></p>","null","","1551558518668","","","","","","",""
"null","","html-keyboard-response","484","2380492","0.0-8.0-0.0-2.9","49","<p><img class= 'stimulus' src='images/baseline/04064v.jpg'></img></p>","null","","1551558518766","","","","","","",""
"null","","html-keyboard-response","485","2380591","0.0-8.0-0.0-3.9","49","<p><img class= 'stimulus' src='images/baseline/04098v.jpg'></img></p>","null","","1551558518867","","","","","","",""
"null","","html-keyboard-response","486","2380690","0.0-8.0-0.0-4.9","49","<p><img class= 'stimulus' src='images/neutral/cattle.jpg'></img></p>","null","","1551558518966","4","","","","","",""
"null","","html-keyboard-response","487","2380791","0.0-8.0-0.0-5.9","49","<p><img class= 'stimulus' src='images/baseline/farmhouse11.jpg'></img></p>","null","","1551558519066","","","","","","",""
"null","","html-keyboard-response","488","2380891","0.0-8.0-0.0-6.9","49","<p><img class= 'stimulus' src='images/baseline/04201v.jpg'></img></p>","null","","1551558519166","6","","","","","",""
"null","","html-keyboard-response","489","2380991","0.0-8.0-0.0-7.9","49","<p><img class= 'stimulus' src='images/baseline/05242v.jpg'></img></p>","null","","1551558519266","","","","","","",""
"null","","html-keyboard-response","490","2381091","0.0-8.0-0.0-8.9","49","<p><img class= 'stimulus' src='images/baseline/landscape38.jpg'></img></p>","null","","1551558519366","8","","","","","",""
"null","","html-keyboard-response","491","2381191","0.0-8.0-0.0-9.9","49","<p><img class= 'stimulus' src='images/baseline/landscape34.jpg'></img></p>","null","","1551558519466","","","","","","",""
"null","","html-keyboard-response","492","2381291","0.0-8.0-0.0-10.9","49","<p><img class= 'stimulus' src='images/baseline/horse_statue.jpg'></img></p>","null","","1551558519566","","","","","","",""
"null","","html-keyboard-response","493","2381391","0.0-8.0-0.0-11.9","49","<p><img class= 'stimulus' src='images/baseline/building_at_national_conservation.jpg'></img></p>","null","","1551558519667","","","","","","",""
"null","","html-keyboard-response","494","2381491","0.0-8.0-0.0-12.9","49","<p><img class= 'stimulus' src='images/target/tree-740901_1280.jpg'></img></p>","null","","1551558519767","12","","","","","",""
"null","","html-keyboard-response","495","2381592","0.0-8.0-0.0-13.9","49","<p><img class= 'stimulus' src='images/baseline/farmhouse3.jpg'></img></p>","null","","1551558519866","","","","","","",""
"null","","html-keyboard-response","496","2381691","0.0-8.0-0.0-14.9","49","<p><img class= 'stimulus' src='images/baseline/03180v.jpg'></img></p>","null","","1551558519966","14","","","","","",""
"null","","html-keyboard-response","497","2381790","0.0-8.0-0.0-15.9","49","<p><img class= 'stimulus' src='images/baseline/lake 2.jpg'></img></p>","null","","1551558520066","","","","","","",""
"null","","html-keyboard-response","498","2381890","0.0-8.0-0.0-16.9","49","<p><img class= 'stimulus' src='images/baseline/Sailing 3.jpg'></img></p>","null","","1551558520166","","","","","","",""
"null","","html-keyboard-response","499","2382008","0.0-8.0-0.0-17.9","49","<p><img class= 'stimulus' src='images/baseline/03066v.jpg'></img></p>","null","","1551558520266","","","","","","",""
"2249.000000068918","","html-button-response","500","2385261","0.0-8.0-0.0-18.9","49","<div class = ""response_question"">WAS THE IMAGE ROTATED...</div>","","3","","","4","8","neu","right","test","true"
"750","","html-button-response","501","2386011","0.0-8.0-0.0-0.10","49","","","0","","","","","","","",""
"null","","html-keyboard-response","502","2386091","0.0-8.0-0.0-1.10","49","<p><img class= 'stimulus' src='images/baseline/Sunset 3.jpg'></img></p>","null","","1551558524367","","","","","","",""
"null","","html-keyboard-response","503","2386191","0.0-8.0-0.0-2.10","49","<p><img class= 'stimulus' src='images/baseline/05179v.jpg'></img></p>","null","","1551558524466","","","","","","",""
"null","","html-keyboard-response","504","2386291","0.0-8.0-0.0-3.10","49","<p><img class= 'stimulus' src='images/baseline/Lake 9.jpg'></img></p>","null","","1551558524567","","","","","","",""
"null","","html-keyboard-response","505","2386392","0.0-8.0-0.0-4.10","49","<p><img class= 'stimulus' src='images/baseline/lone-old-cottonwood-tree.jpg'></img></p>","null","","1551558524666","4","","","","","",""
"null","","html-keyboard-response","506","2386491","0.0-8.0-0.0-5.10","49","<p><img class= 'stimulus' src='images/baseline/building9.jpg'></img></p>","null","","1551558524766","","","","","","",""
"null","","html-keyboard-response","507","2386591","0.0-8.0-0.0-6.10","49","<p><img class= 'stimulus' src='images/baseline/landscape12.jpg'></img></p>","null","","1551558524868","6","","","","","",""
