"rt","responses","trial_type","trial_index","time_elapsed","internal_node_id","participant_id","stimulus","key_press","button_pressed","stim_onset","sequence_position","distractor_position","target_lag","distractor_type","target_orientation","phase","correct"
"7668.499999970663","{""Q0"":""18""}","survey-text","0","7672","0.0-0.0","18","","","","","","","","","","",""
"1230826.2000000104","","html-keyboard-response","1","1238509","0.0-1.0","18","Welcome to the experiment.","67","","","","","","","","",""
"1162.1000000159256","","html-button-response","2","1239676","0.0-2.0","18","<p>Several images will be presented sequentially.        Each image will only be on the screen for about 100 milliseconds.</p>        <p> One of the images may be rotated 90 degrees right or left.        Watch for this image and remember if it is rotated right or left.</p>               <p>Images of people and animals will appear, and sometimes they will be unpleasant.        These will never be the rotated target image.</p>","","0","","","","","","","",""
"7782.000000006519","","html-button-response","3","1247459","0.0-3.0","18","<p><img class=""stimulus left-rotate"" src=""images/target/landscape_1.jpg""></img></p><p>This is an example of an image rotated to the left.</p>","","0","","","","","","","",""
"1910.8000000123866","","html-button-response","4","1249372","0.0-4.0","18","<p><img class=""stimulus"" src=""images/target/specphotops-563427-unsplash.jpg""></img></p><p>This is an example of an image rotated to the right.</p>","","0","","","","","","","",""
"5903.099999995902","","html-button-response","5","1255275","0.0-5.0","18","<p>We will now begin a short practice session.</p>         <p>A + symbol will appear in the middle of the screen. Please fix your gaze on the center of the +, and then click the mouse button to begin the image sequence.</p>         <p>Please avoid blinking or eye movements while the images are on the screen.</p>        <p>The image sequence will start relatively slow. After a few sequences, it will speed up.</p>","","0","","","","","","","",""
"6270.699999993667","","html-button-response","6","1261548","0.0-6.0-0.0","18","","","0","","","","","","","",""
"null","","html-keyboard-response","7","1261728","0.0-6.0-1.0","18","<p><img class= 'stimulus' src='images/baseline/lookout_tower.jpg'></img></p>","null","","1550341466559","","","","","","",""
"null","","html-keyboard-response","8","1261929","0.0-6.0-2.0","18","<p><img class= 'stimulus' src='images/baseline/hills 4.jpg'></img></p>","null","","1550341466760","","","","","","",""
"null","","html-keyboard-response","9","1262129","0.0-6.0-3.0","18","<p><img class= 'stimulus' src='images/baseline/03201v.jpg'></img></p>","null","","1550341466959","","","","","","",""
"null","","html-keyboard-response","10","1262329","0.0-6.0-4.0","18","<p><img class= 'stimulus' src='images/baseline/landscape7.jpg'></img></p>","null","","1550341467159","4","","","","","",""
"null","","html-keyboard-response","11","1262529","0.0-6.0-5.0","18","<p><img class= 'stimulus' src='images/baseline/04063v.jpg'></img></p>","null","","1550341467358","","","","","","",""
"null","","html-keyboard-response","12","1262730","0.0-6.0-6.0","18","<p><img class= 'stimulus' src='images/baseline/cyrillic.jpg'></img></p>","null","","1550341467559","6","","","","","",""
"null","","html-keyboard-response","13","1262930","0.0-6.0-7.0","18","<p><img class= 'stimulus' src='images/baseline/Happy pose 3.jpg'></img></p>","null","","1550341467759","","","","","","",""
"null","","html-keyboard-response","14","1263130","0.0-6.0-8.0","18","<p><img class= 'stimulus' src='images/baseline/05145v.jpg'></img></p>","null","","1550341467959","8","","","","","",""
"null","","html-keyboard-response","15","1263330","0.0-6.0-9.0","18","<p><img class= 'stimulus' src='images/baseline/02947v.jpg'></img></p>","null","","1550341468160","","","","","","",""
"null","","html-keyboard-response","16","1263531","0.0-6.0-10.0","18","<p><img class= 'stimulus' src='images/baseline/snowy tree.jpg'></img></p>","null","","1550341468359","","","","","","",""
"null","","html-keyboard-response","17","1263731","0.0-6.0-11.0","18","<p><img class= 'stimulus' src='images/baseline/Street 2.jpg'></img></p>","null","","1550341468561","","","","","","",""
"null","","html-keyboard-response","18","1263931","0.0-6.0-12.0","18","<p><img class= 'stimulus' src='images/baseline/scenic-mountain-landscape.jpg'></img></p>","null","","1550341468760","12","","","","","",""
"null","","html-keyboard-response","19","1264131","0.0-6.0-13.0","18","<p><img class= 'stimulus' src='images/baseline/Camping 10.jpg'></img></p>","null","","1550341468960","","","","","","",""
"null","","html-keyboard-response","20","1264331","0.0-6.0-14.0","18","<p><img class= 'stimulus' src='images/target/beach1.jpeg'></img></p>","null","","1550341469160","14","","","","","",""
"null","","html-keyboard-response","21","1264531","0.0-6.0-15.0","18","<p><img class= 'stimulus' src='images/baseline/town-square-in-wroclaw-1539098440MZy.jpg'></img></p>","null","","1550341469361","","","","","","",""
"null","","html-keyboard-response","22","1264730","0.0-6.0-16.0","18","<p><img class= 'stimulus' src='images/baseline/farmhouse1.jpg'></img></p>","null","","1550341469560","","","","","","",""
"null","","html-keyboard-response","23","1264947","0.0-6.0-17.0","18","<p><img class= 'stimulus' src='images/baseline/03098v.jpg'></img></p>","null","","1550341469759","","","","","","",""
"4904.199999989942","","html-button-response","24","1270861","0.0-6.0-18.0","18","<div class = ""response_question"">WAS THE IMAGE ROTATED...</div>","","3","","","6","8","bas","right","practice","true"
"3422.100000025239","","html-button-response","25","1274285","0.0-6.0-0.1","18","","","0","","","","","","","",""
"null","","html-keyboard-response","26","1274473","0.0-6.0-1.1","18","<p><img class= 'stimulus' src='images/baseline/pexels-photo-808465.jpeg'></img></p>","null","","1550341479303","","","","","","",""
"null","","html-keyboard-response","27","1274673","0.0-6.0-2.1","18","<p><img class= 'stimulus' src='images/baseline/__08_-_ITALY_-_Forli_under_snow_-_winter_landscape_of_city_(christmas).jpg'></img></p>","null","","1550341479504","","","","","","",""
"null","","html-keyboard-response","28","1274873","0.0-6.0-3.1","18","<p><img class= 'stimulus' src='images/baseline/05139v.jpg'></img></p>","null","","1550341479704","","","","","","",""
"null","","html-keyboard-response","29","1275075","0.0-6.0-4.1","18","<p><img class= 'stimulus' src='images/baseline/house7.jpg'></img></p>","null","","1550341479904","4","","","","","",""
"null","","html-keyboard-response","30","1275274","0.0-6.0-5.1","18","<p><img class= 'stimulus' src='images/baseline/pexels-photo-1837621.jpeg'></img></p>","null","","1550341480104","","","","","","",""
"null","","html-keyboard-response","31","1275474","0.0-6.0-6.1","18","<p><img class= 'stimulus' src='images/baseline/pexels-photo-280222.jpeg'></img></p>","null","","1550341480305","6","","","","","",""
"null","","html-keyboard-response","32","1275675","0.0-6.0-7.1","18","<p><img class= 'stimulus' src='images/baseline/04064v.jpg'></img></p>","null","","1550341480504","","","","","","",""
"null","","html-keyboard-response","33","1275874","0.0-6.0-8.1","18","<p><img class= 'stimulus' src='images/baseline/kokkari-1523011968Xfr.jpg'></img></p>","null","","1550341480705","8","","","","","",""
"null","","html-keyboard-response","34","1276074","0.0-6.0-9.1","18","<p><img class= 'stimulus' src='images/baseline/building12.jpg'></img></p>","null","","1550341480904","","","","","","",""
"null","","html-keyboard-response","35","1276275","0.0-6.0-10.1","18","<p><img class= 'stimulus' src='images/baseline/Street 4.jpg'></img></p>","null","","1550341481103","","","","","","",""
"null","","html-keyboard-response","36","1276474","0.0-6.0-11.1","18","<p><img class= 'stimulus' src='images/baseline/Sky 1.jpg'></img></p>","null","","1550341481303","","","","","","",""
"null","","html-keyboard-response","37","1276674","0.0-6.0-12.1","18","<p><img class= 'stimulus' src='images/baseline/Street 5.jpg'></img></p>","null","","1550341481504","12","","","","","",""
"null","","html-keyboard-response","38","1276874","0.0-6.0-13.1","18","<p><img class= 'stimulus' src='images/baseline/04300v.jpg'></img></p>","null","","1550341481705","","","","","","",""
"null","","html-keyboard-response","39","1277074","0.0-6.0-14.1","18","<p><img class= 'stimulus left-rotate' src='images/target/tree.jpeg'></img></p>","null","","1550341481903","14","","","","","",""
"null","","html-keyboard-response","40","1277274","0.0-6.0-15.1","18","<p><img class= 'stimulus' src='images/baseline/landscape4.jpg'></img></p>","null","","1550341482103","","","","","","",""
"null","","html-keyboard-response","41","1277473","0.0-6.0-16.1","18","<p><img class= 'stimulus' src='images/baseline/house3.jpg'></img></p>","null","","1550341482303","","","","","","",""
"null","","html-keyboard-response","42","1277690","0.0-6.0-17.1","18","<p><img class= 'stimulus' src='images/baseline/chicago-skyline-at-night-1476869511p8U.jpg'></img></p>","null","","1550341482503","","","","","","",""
"1270.3000000328757","","html-button-response","43","1279973","0.0-6.0-18.1","18","<div class = ""response_question"">WAS THE IMAGE ROTATED...</div>","","0","","","6","8","bas","left","practice","true"
"10294.499999959953","","html-button-response","44","1290269","0.0-6.0-0.2","18","","","0","","","","","","","",""
"null","","html-keyboard-response","45","1290457","0.0-6.0-1.2","18","<p><img class= 'stimulus' src='images/baseline/04193v.jpg'></img></p>","null","","1550341495286","","","","","","",""
"null","","html-keyboard-response","46","1290657","0.0-6.0-2.2","18","<p><img class= 'stimulus' src='images/baseline/farmhouse8.jpg'></img></p>","null","","1550341495487","","","","","","",""
"null","","html-keyboard-response","47","1290857","0.0-6.0-3.2","18","<p><img class= 'stimulus' src='images/baseline/03114v.jpg'></img></p>","null","","1550341495686","","","","","","",""
"null","","html-keyboard-response","48","1291057","0.0-6.0-4.2","18","<p><img class= 'stimulus' src='images/baseline/landscape13.jpg'></img></p>","null","","1550341495886","4","","","","","",""
"null","","html-keyboard-response","49","1291256","0.0-6.0-5.2","18","<p><img class= 'stimulus' src='images/baseline/02960v.jpg'></img></p>","null","","1550341496087","","","","","","",""
"null","","html-keyboard-response","50","1291457","0.0-6.0-6.2","18","<p><img class= 'stimulus' src='images/baseline/pexels-photo-568236.jpeg'></img></p>","null","","1550341496288","6","","","","","",""
"null","","html-keyboard-response","51","1291658","0.0-6.0-7.2","18","<p><img class= 'stimulus' src='images/baseline/church-silhouette-8712964986014Kb.jpg'></img></p>","null","","1550341496486","","","","","","",""
"null","","html-keyboard-response","52","1291858","0.0-6.0-8.2","18","<p><img class= 'stimulus' src='images/baseline/landscape34.jpg'></img></p>","null","","1550341496687","8","","","","","",""
"null","","html-keyboard-response","53","1292059","0.0-6.0-9.2","18","<p><img class= 'stimulus' src='images/baseline/red-rocks-park.jpg'></img></p>","null","","1550341496887","","","","","","",""
"null","","html-keyboard-response","54","1292258","0.0-6.0-10.2","18","<p><img class= 'stimulus' src='images/baseline/farmhouse2.jpg'></img></p>","null","","1550341497088","","","","","","",""
"null","","html-keyboard-response","55","1292458","0.0-6.0-11.2","18","<p><img class= 'stimulus' src='images/baseline/architecture-956332_1280.jpg'></img></p>","null","","1550341497288","","","","","","",""
"null","","html-keyboard-response","56","1292658","0.0-6.0-12.2","18","<p><img class= 'stimulus' src='images/target/tree_2.jpg'></img></p>","null","","1550341497488","12","","","","","",""
"null","","html-keyboard-response","57","1292859","0.0-6.0-13.2","18","<p><img class= 'stimulus' src='images/baseline/farmhouse6.jpg'></img></p>","null","","1550341497687","","","","","","",""
"null","","html-keyboard-response","58","1293059","0.0-6.0-14.2","18","<p><img class= 'stimulus' src='images/baseline/landscape2.jpg'></img></p>","null","","1550341497887","14","","","","","",""
"null","","html-keyboard-response","59","1293257","0.0-6.0-15.2","18","<p><img class= 'stimulus' src='images/baseline/pexels-photo-427676.jpeg'></img></p>","null","","1550341498087","","","","","","",""
"null","","html-keyboard-response","60","1293459","0.0-6.0-16.2","18","<p><img class= 'stimulus' src='images/baseline/landscape14.jpg'></img></p>","null","","1550341498286","","","","","","",""
"null","","html-keyboard-response","61","1293675","0.0-6.0-17.2","18","<p><img class= 'stimulus' src='images/baseline/sun-through-winter-tree-branches1.jpg'></img></p>","null","","1550341498488","","","","","","",""
"1070.8000000449829","","html-button-response","62","1295749","0.0-6.0-18.2","18","<div class = ""response_question"">WAS THE IMAGE ROTATED...</div>","","3","","","4","8","bas","right","practice","true"
"1542.200000025332","","html-button-response","63","1297293","0.0-6.0-0.3","18","","","0","","","","","","","",""
"null","","html-keyboard-response","64","1297491","0.0-6.0-1.3","18","<p><img class= 'stimulus' src='images/baseline/03162v.jpg'></img></p>","null","","1550341502321","","","","","","",""
"null","","html-keyboard-response","65","1297691","0.0-6.0-2.3","18","<p><img class= 'stimulus' src='images/baseline/river 1.jpg'></img></p>","null","","1550341502520","","","","","","",""
"null","","html-keyboard-response","66","1297891","0.0-6.0-3.3","18","<p><img class= 'stimulus' src='images/baseline/hiking-trail.jpg'></img></p>","null","","1550341502720","","","","","","",""
"null","","html-keyboard-response","67","1298092","0.0-6.0-4.3","18","<p><img class= 'stimulus' src='images/baseline/Sunset 5.jpg'></img></p>","null","","1550341502920","4","","","","","",""
"null","","html-keyboard-response","68","1298292","0.0-6.0-5.3","18","<p><img class= 'stimulus' src='images/baseline/05167v.jpg'></img></p>","null","","1550341503121","","","","","","",""
"null","","html-keyboard-response","69","1298492","0.0-6.0-6.3","18","<p><img class= 'stimulus' src='images/baseline/04130v.jpg'></img></p>","null","","1550341503322","6","","","","","",""
"null","","html-keyboard-response","70","1298693","0.0-6.0-7.3","18","<p><img class= 'stimulus' src='images/baseline/landscape37.jpg'></img></p>","null","","1550341503521","","","","","","",""
"null","","html-keyboard-response","71","1298892","0.0-6.0-8.3","18","<p><img class= 'stimulus left-rotate' src='images/target/specphotops-563427-unsplash.jpg'></img></p>","null","","1550341503721","8","","","","","",""
"null","","html-keyboard-response","72","1299093","0.0-6.0-9.3","18","<p><img class= 'stimulus' src='images/baseline/landscape3.jpg'></img></p>","null","","1550341503921","","","","","","",""
"null","","html-keyboard-response","73","1299292","0.0-6.0-10.3","18","<p><img class= 'stimulus' src='images/baseline/trees 23.jpg'></img></p>","null","","1550341504121","","","","","","",""
"null","","html-keyboard-response","74","1299492","0.0-6.0-11.3","18","<p><img class= 'stimulus' src='images/baseline/vintage-art-deco-storefront.jpg'></img></p>","null","","1550341504322","","","","","","",""
"null","","html-keyboard-response","75","1299692","0.0-6.0-12.3","18","<p><img class= 'stimulus' src='images/baseline/landscape6.jpg'></img></p>","null","","1550341504522","12","","","","","",""
"null","","html-keyboard-response","76","1299892","0.0-6.0-13.3","18","<p><img class= 'stimulus' src='images/baseline/Desert_View_Indian_Wells.jpg'></img></p>","null","","1550341504721","","","","","","",""
"null","","html-keyboard-response","77","1300091","0.0-6.0-14.3","18","<p><img class= 'stimulus' src='images/baseline/Nature 2.jpg'></img></p>","null","","1550341504921","14","","","","","",""
"null","","html-keyboard-response","78","1300291","0.0-6.0-15.3","18","<p><img class= 'stimulus' src='images/baseline/02945v.jpg'></img></p>","null","","1550341505122","","","","","","",""
"null","","html-keyboard-response","79","1300493","0.0-6.0-16.3","18","<p><img class= 'stimulus' src='images/baseline/building9.jpg'></img></p>","null","","1550341505320","","","","","","",""
"null","","html-keyboard-response","80","1300709","0.0-6.0-17.3","18","<p><img class= 'stimulus' src='images/baseline/04021v.jpg'></img></p>","null","","1550341505522","","","","","","",""
"685.4000000166707","","html-button-response","81","1302397","0.0-6.0-18.3","18","<div class = ""response_question"">WAS THE IMAGE ROTATED...</div>","","0","","","6","2","bas","left","practice","true"
"1110.6000000145286","","html-button-response","82","1303509","0.0-6.0-0.4","18","","","0","","","","","","","",""
"null","","html-keyboard-response","83","1303642","0.0-6.0-1.4","18","<p><img class= 'stimulus' src='images/baseline/cranes 1.jpg'></img></p>","null","","1550341508521","","","","","","",""
"null","","html-keyboard-response","84","1303791","0.0-6.0-2.4","18","<p><img class= 'stimulus' src='images/baseline/04284v.jpg'></img></p>","null","","1550341508670","","","","","","",""
"null","","html-keyboard-response","85","1303941","0.0-6.0-3.4","18","<p><img class= 'stimulus' src='images/baseline/pexels-photo-259280.jpeg'></img></p>","null","","1550341508821","","","","","","",""
"null","","html-keyboard-response","86","1304090","0.0-6.0-4.4","18","<p><img class= 'stimulus' src='images/baseline/building16.jpg'></img></p>","null","","1550341508970","4","","","","","",""
"null","","html-keyboard-response","87","1304240","0.0-6.0-5.4","18","<p><img class= 'stimulus' src='images/baseline/04031v.jpg'></img></p>","null","","1550341509120","","","","","","",""
"null","","html-keyboard-response","88","1304391","0.0-6.0-6.4","18","<p><img class= 'stimulus' src='images/baseline/Road 1.jpg'></img></p>","null","","1550341509270","6","","","","","",""
"null","","html-keyboard-response","89","1304541","0.0-6.0-7.4","18","<p><img class= 'stimulus' src='images/baseline/agriculture-bright-clouds-440731.jpg'></img></p>","null","","1550341509419","","","","","","",""
"null","","html-keyboard-response","90","1304691","0.0-6.0-8.4","18","<p><img class= 'stimulus' src='images/target/building19.jpg'></img></p>","null","","1550341509570","8","","","","","",""
"null","","html-keyboard-response","91","1304840","0.0-6.0-9.4","18","<p><img class= 'stimulus' src='images/baseline/05279v.jpg'></img></p>","null","","1550341509720","","","","","","",""
"null","","html-keyboard-response","92","1304991","0.0-6.0-10.4","18","<p><img class= 'stimulus' src='images/baseline/Lake 14.jpg'></img></p>","null","","1550341509871","","","","","","",""
"null","","html-keyboard-response","93","1305141","0.0-6.0-11.4","18","<p><img class= 'stimulus' src='images/baseline/Lake 8.jpg'></img></p>","null","","1550341510020","","","","","","",""
"null","","html-keyboard-response","94","1305290","0.0-6.0-12.4","18","<p><img class= 'stimulus' src='images/baseline/building6.jpg'></img></p>","null","","1550341510170","12","","","","","",""
"null","","html-keyboard-response","95","1305441","0.0-6.0-13.4","18","<p><img class= 'stimulus' src='images/baseline/pexels-photo-459203.jpeg'></img></p>","null","","1550341510320","","","","","","",""
"null","","html-keyboard-response","96","1305591","0.0-6.0-14.4","18","<p><img class= 'stimulus' src='images/baseline/Skijump 1.jpg'></img></p>","null","","1550341510470","14","","","","","",""
"null","","html-keyboard-response","97","1305740","0.0-6.0-15.4","18","<p><img class= 'stimulus' src='images/baseline/landscape12.jpg'></img></p>","null","","1550341510620","","","","","","",""
"null","","html-keyboard-response","98","1305890","0.0-6.0-16.4","18","<p><img class= 'stimulus' src='images/baseline/lake 2.jpg'></img></p>","null","","1550341510770","","","","","","",""
"null","","html-keyboard-response","99","1306057","0.0-6.0-17.4","18","<p><img class= 'stimulus' src='images/baseline/agriculture-countryside-crop-259280.jpg'></img></p>","null","","1550341510920","","","","","","",""
"570.7999999867752","","html-button-response","100","1307645","0.0-6.0-18.4","18","<div class = ""response_question"">WAS THE IMAGE ROTATED...</div>","","3","","","6","2","bas","right","practice","true"
"2390.400000032969","","html-button-response","101","1310037","0.0-6.0-0.5","18","","","0","","","","","","","",""
"null","","html-keyboard-response","102","1310174","0.0-6.0-1.5","18","<p><img class= 'stimulus' src='images/baseline/03217v.jpg'></img></p>","null","","1550341515052","","","","","","",""
"null","","html-keyboard-response","103","1310323","0.0-6.0-2.5","18","<p><img class= 'stimulus' src='images/baseline/landscape36.jpg'></img></p>","null","","1550341515202","","","","","","",""
"null","","html-keyboard-response","104","1310473","0.0-6.0-3.5","18","<p><img class= 'stimulus' src='images/baseline/geese-flying-over-lake-at-dusk.jpg'></img></p>","null","","1550341515353","","","","","","",""
"null","","html-keyboard-response","105","1310623","0.0-6.0-4.5","18","<p><img class= 'stimulus' src='images/baseline/empire-state-building.jpg'></img></p>","null","","1550341515504","4","","","","","",""
"null","","html-keyboard-response","106","1310774","0.0-6.0-5.5","18","<p><img class= 'stimulus' src='images/baseline/pexels-photo-750108.jpeg'></img></p>","null","","1550341515653","","","","","","",""
"null","","html-keyboard-response","107","1310923","0.0-6.0-6.5","18","<p><img class= 'stimulus left-rotate' src='images/target/building3.jpg'></img></p>","null","","1550341515803","6","","","","","",""
"null","","html-keyboard-response","108","1311073","0.0-6.0-7.5","18","<p><img class= 'stimulus' src='images/baseline/farmhouse7.jpg'></img></p>","null","","1550341515953","","","","","","",""
"null","","html-keyboard-response","109","1311224","0.0-6.0-8.5","18","<p><img class= 'stimulus' src='images/baseline/seoul-410266_1920.jpg'></img></p>","null","","1550341516102","8","","","","","",""
"null","","html-keyboard-response","110","1311374","0.0-6.0-9.5","18","<p><img class= 'stimulus' src='images/baseline/Street 1.jpg'></img></p>","null","","1550341516253","","","","","","",""
"null","","html-keyboard-response","111","1311522","0.0-6.0-10.5","18","<p><img class= 'stimulus' src='images/baseline/landscape1.jpg'></img></p>","null","","1550341516403","","","","","","",""
"null","","html-keyboard-response","112","1311673","0.0-6.0-11.5","18","<p><img class= 'stimulus' src='images/baseline/Lake 15.jpg'></img></p>","null","","1550341516553","","","","","","",""
"null","","html-keyboard-response","113","1311823","0.0-6.0-12.5","18","<p><img class= 'stimulus' src='images/baseline/pexels-photo-534164.jpeg'></img></p>","null","","1550341516704","12","","","","","",""
"null","","html-keyboard-response","114","1311974","0.0-6.0-13.5","18","<p><img class= 'stimulus' src='images/baseline/04162v.jpg'></img></p>","null","","1550341516853","","","","","","",""
"null","","html-keyboard-response","115","1312124","0.0-6.0-14.5","18","<p><img class= 'stimulus' src='images/baseline/03045v.jpg'></img></p>","null","","1550341517002","14","","","","","",""
"null","","html-keyboard-response","116","1312274","0.0-6.0-15.5","18","<p><img class= 'stimulus' src='images/baseline/04010v.jpg'></img></p>","null","","1550341517153","","","","","","",""
"null","","html-keyboard-response","117","1312423","0.0-6.0-16.5","18","<p><img class= 'stimulus' src='images/baseline/landscape16.jpg'></img></p>","null","","1550341517303","","","","","","",""
"null","","html-keyboard-response","118","1312590","0.0-6.0-17.5","18","<p><img class= 'stimulus' src='images/baseline/04117v.jpg'></img></p>","null","","1550341517453","","","","","","",""
"707.5999999651685","","html-button-response","119","1314301","0.0-6.0-18.5","18","<div class = ""response_question"">WAS THE IMAGE ROTATED...</div>","","0","","","4","2","bas","left","practice","true"
"2254.899999999907","","html-button-response","120","1316558","0.0-6.0-0.6","18","","","0","","","","","","","",""
"null","","html-keyboard-response","121","1316691","0.0-6.0-1.6","18","<p><img class= 'stimulus' src='images/baseline/Niinsaare_jarv.jpg'></img></p>","null","","1550341521570","","","","","","",""
"null","","html-keyboard-response","122","1316840","0.0-6.0-2.6","18","<p><img class= 'stimulus' src='images/baseline/Grass 6.jpg'></img></p>","null","","1550341521721","","","","","","",""
"null","","html-keyboard-response","123","1316990","0.0-6.0-3.6","18","<p><img class= 'stimulus' src='images/baseline/pexels-photo-1287089.jpeg'></img></p>","null","","1550341521870","","","","","","",""
"null","","html-keyboard-response","124","1317141","0.0-6.0-4.6","18","<p><img class= 'stimulus' src='images/baseline/landscape11.jpg'></img></p>","null","","1550341522020","4","","","","","",""
"null","","html-keyboard-response","125","1317290","0.0-6.0-5.6","18","<p><img class= 'stimulus' src='images/baseline/05189v.jpg'></img></p>","null","","1550341522169","","","","","","",""
"null","","html-keyboard-response","126","1317441","0.0-6.0-6.6","18","<p><img class= 'stimulus' src='images/target/tree-740901_1280.jpg'></img></p>","null","","1550341522319","6","","","","","",""
"null","","html-keyboard-response","127","1317590","0.0-6.0-7.6","18","<p><img class= 'stimulus' src='images/baseline/03056v.jpg'></img></p>","null","","1550341522469","","","","","","",""
"null","","html-keyboard-response","128","1317739","0.0-6.0-8.6","18","<p><img class= 'stimulus' src='images/baseline/pexels-photo-1054289.jpeg'></img></p>","null","","1550341522619","8","","","","","",""
"null","","html-keyboard-response","129","1317890","0.0-6.0-9.6","18","<p><img class= 'stimulus' src='images/baseline/Beach 2.jpg'></img></p>","null","","1550341522771","","","","","","",""
"null","","html-keyboard-response","130","1318041","0.0-6.0-10.6","18","<p><img class= 'stimulus' src='images/baseline/building5.jpg'></img></p>","null","","1550341522920","","","","","","",""
"null","","html-keyboard-response","131","1318191","0.0-6.0-11.6","18","<p><img class= 'stimulus' src='images/baseline/house2.jpg'></img></p>","null","","1550341523070","","","","","","",""
"null","","html-keyboard-response","132","1318341","0.0-6.0-12.6","18","<p><img class= 'stimulus' src='images/baseline/Lake 5.jpg'></img></p>","null","","1550341523220","12","","","","","",""
"null","","html-keyboard-response","133","1318491","0.0-6.0-13.6","18","<p><img class= 'stimulus' src='images/baseline/03220v.jpg'></img></p>","null","","1550341523370","","","","","","",""
"null","","html-keyboard-response","134","1318640","0.0-6.0-14.6","18","<p><img class= 'stimulus' src='images/baseline/agriculture-cereal-clouds-175389.jpg'></img></p>","null","","1550341523520","14","","","","","",""
"null","","html-keyboard-response","135","1318791","0.0-6.0-15.6","18","<p><img class= 'stimulus' src='images/baseline/05240v.jpg'></img></p>","null","","1550341523670","","","","","","",""
"null","","html-keyboard-response","136","1318940","0.0-6.0-16.6","18","<p><img class= 'stimulus' src='images/baseline/04158v.jpg'></img></p>","null","","1550341523821","","","","","","",""
"null","","html-keyboard-response","137","1319108","0.0-6.0-17.6","18","<p><img class= 'stimulus' src='images/baseline/field 2.jpg'></img></p>","null","","1550341523970","","","","","","",""
"526.3000000268221","","html-button-response","138","1320638","0.0-6.0-18.6","18","<div class = ""response_question"">WAS THE IMAGE ROTATED...</div>","","3","","","4","2","bas","right","practice","true"
"3638.199999986682","","html-button-response","139","1324277","0.0-6.0-0.7","18","","","0","","","","","","","",""
"null","","html-keyboard-response","140","1324407","0.0-6.0-1.7","18","<p><img class= 'stimulus' src='images/baseline/04014v.jpg'></img></p>","null","","1550341529287","","","","","","",""
"null","","html-keyboard-response","141","1324557","0.0-6.0-2.7","18","<p><img class= 'stimulus' src='images/baseline/Paysage_karabagh_02.jpg'></img></p>","null","","1550341529437","","","","","","",""
"null","","html-keyboard-response","142","1324707","0.0-6.0-3.7","18","<p><img class= 'stimulus' src='images/baseline/99_-_Machu_Picchu_-_Juin_2009.edit3.jpg'></img></p>","null","","1550341529587","","","","","","",""
"null","","html-keyboard-response","143","1324856","0.0-6.0-4.7","18","<p><img class= 'stimulus' src='images/baseline/05131v.jpg'></img></p>","null","","1550341529737","4","","","","","",""
"null","","html-keyboard-response","144","1325007","0.0-6.0-5.7","18","<p><img class= 'stimulus' src='images/baseline/03204v.jpg'></img></p>","null","","1550341529887","","","","","","",""
"null","","html-keyboard-response","145","1325157","0.0-6.0-6.7","18","<p><img class= 'stimulus' src='images/baseline/foreclosed_home.jpg'></img></p>","null","","1550341530037","6","","","","","",""
"null","","html-keyboard-response","146","1325307","0.0-6.0-7.7","18","<p><img class= 'stimulus' src='images/baseline/building2.jpg'></img></p>","null","","1550341530186","","","","","","",""
"null","","html-keyboard-response","147","1325457","0.0-6.0-8.7","18","<p><img class= 'stimulus' src='images/baseline/autumn-landscape-with-lake-fall-trees-mountains.jpg'></img></p>","null","","1550341530336","8","","","","","",""
"null","","html-keyboard-response","148","1325607","0.0-6.0-9.7","18","<p><img class= 'stimulus' src='images/baseline/02988v.jpg'></img></p>","null","","1550341530486","","","","","","",""
"null","","html-keyboard-response","149","1325756","0.0-6.0-10.7","18","<p><img class= 'stimulus' src='images/baseline/hills 3.jpg'></img></p>","null","","1550341530636","","","","","","",""
"null","","html-keyboard-response","150","1325906","0.0-6.0-11.7","18","<p><img class= 'stimulus' src='images/baseline/Skyscraper 2.jpg'></img></p>","null","","1550341530787","","","","","","",""
"null","","html-keyboard-response","151","1326057","0.0-6.0-12.7","18","<p><img class= 'stimulus left-rotate' src='images/target/coconut-3396945_640.jpg'></img></p>","null","","1550341530937","12","","","","","",""
"null","","html-keyboard-response","152","1326206","0.0-6.0-13.7","18","<p><img class= 'stimulus' src='images/baseline/pexels-photo-440731.jpeg'></img></p>","null","","1550341531086","","","","","","",""
"null","","html-keyboard-response","153","1326357","0.0-6.0-14.7","18","<p><img class= 'stimulus' src='images/baseline/04196v.jpg'></img></p>","null","","1550341531235","14","","","","","",""
"null","","html-keyboard-response","154","1326508","0.0-6.0-15.7","18","<p><img class= 'stimulus' src='images/baseline/05203v.jpg'></img></p>","null","","1550341531386","","","","","","",""
"null","","html-keyboard-response","155","1326657","0.0-6.0-16.7","18","<p><img class= 'stimulus' src='images/baseline/landscape23.jpg'></img></p>","null","","1550341531537","","","","","","",""
"null","","html-keyboard-response","156","1326824","0.0-6.0-17.7","18","<p><img class= 'stimulus' src='images/baseline/Lake 4.jpg'></img></p>","null","","1550341531687","","","","","","",""
"906.7999999970198","","html-button-response","157","1328733","0.0-6.0-18.7","18","<div class = ""response_question"">WAS THE IMAGE ROTATED...</div>","","0","","","4","8","bas","left","practice","true"
"2886.5000000223517","","html-button-response","158","1331628","0.0-6.0-0.8","18","","","0","","","","","","","",""
"null","","html-keyboard-response","159","1331715","0.0-6.0-1.8","18","<p><img class= 'stimulus' src='images/baseline/sunny-landscape-with-dry-brush-and-mountain-background.jpg'></img></p>","null","","1550341536645","","","","","","",""
"null","","html-keyboard-response","160","1331814","0.0-6.0-2.8","18","<p><img class= 'stimulus' src='images/baseline/farmhouse11.jpg'></img></p>","null","","1550341536743","","","","","","",""
"null","","html-keyboard-response","161","1331913","0.0-6.0-3.8","18","<p><img class= 'stimulus' src='images/baseline/Dirt 2.jpg'></img></p>","null","","1550341536843","","","","","","",""
"null","","html-keyboard-response","162","1332014","0.0-6.0-4.8","18","<p><img class= 'stimulus' src='images/baseline/04086v.jpg'></img></p>","null","","1550341536944","4","","","","","",""
"null","","html-keyboard-response","163","1332113","0.0-6.0-5.8","18","<p><img class= 'stimulus' src='images/baseline/farmhouse9.jpg'></img></p>","null","","1550341537044","","","","","","",""
"null","","html-keyboard-response","164","1332214","0.0-6.0-6.8","18","<p><img class= 'stimulus' src='images/baseline/architecture_modern_architecture_852928.jpg'></img></p>","null","","1550341537143","6","","","","","",""
"null","","html-keyboard-response","165","1332314","0.0-6.0-7.8","18","<p><img class= 'stimulus' src='images/baseline/03075v.jpg'></img></p>","null","","1550341537244","","","","","","",""
"null","","html-keyboard-response","166","1332414","0.0-6.0-8.8","18","<p><img class= 'stimulus' src='images/baseline/Aletschgletscher-Eggishorn.jpg'></img></p>","null","","1550341537343","8","","","","","",""
"null","","html-keyboard-response","167","1332514","0.0-6.0-9.8","18","<p><img class= 'stimulus' src='images/baseline/landscape39.jpg'></img></p>","null","","1550341537444","","","","","","",""
"null","","html-keyboard-response","168","1332613","0.0-6.0-10.8","18","<p><img class= 'stimulus' src='images/baseline/bird-flying-at-sunset.jpg'></img></p>","null","","1550341537543","","","","","","",""
"null","","html-keyboard-response","169","1332714","0.0-6.0-11.8","18","<p><img class= 'stimulus' src='images/baseline/Dock 1.jpg'></img></p>","null","","1550341537643","","","","","","",""
"null","","html-keyboard-response","170","1332814","0.0-6.0-12.8","18","<p><img class= 'stimulus' src='images/baseline/05303v.jpg'></img></p>","null","","1550341537743","12","","","","","",""
"null","","html-keyboard-response","171","1332913","0.0-6.0-13.8","18","<p><img class= 'stimulus' src='images/baseline/Freudenberg_sg_Switzerland.jpg'></img></p>","null","","1550341537843","","","","","","",""
"null","","html-keyboard-response","172","1333014","0.0-6.0-14.8","18","<p><img class= 'stimulus left-rotate' src='images/target/petronas-towers-433081_1920.jpg'></img></p>","null","","1550341537943","14","","","","","",""
"null","","html-keyboard-response","173","1333114","0.0-6.0-15.8","18","<p><img class= 'stimulus' src='images/baseline/landscape17.jpg'></img></p>","null","","1550341538043","","","","","","",""
"null","","html-keyboard-response","174","1333214","0.0-6.0-16.8","18","<p><img class= 'stimulus' src='images/baseline/house8.jpg'></img></p>","null","","1550341538142","","","","","","",""
"null","","html-keyboard-response","175","1333331","0.0-6.0-17.8","18","<p><img class= 'stimulus' src='images/baseline/pexels-photo-894312.jpeg'></img></p>","null","","1550341538244","","","","","","",""
"589.8000000161119","","html-button-response","176","1334924","0.0-6.0-18.8","18","<div class = ""response_question"">WAS THE IMAGE ROTATED...</div>","","0","","","6","8","bas","left","practice","true"
"1558.5000000428408","","html-button-response","177","1336484","0.0-6.0-0.9","18","","","0","","","","","","","",""
"null","","html-keyboard-response","178","1336564","0.0-6.0-1.9","18","<p><img class= 'stimulus' src='images/baseline/road.jpg'></img></p>","null","","1550341541493","","","","","","",""
"null","","html-keyboard-response","179","1336663","0.0-6.0-2.9","18","<p><img class= 'stimulus' src='images/baseline/03041v.jpg'></img></p>","null","","1550341541593","","","","","","",""
"null","","html-keyboard-response","180","1336763","0.0-6.0-3.9","18","<p><img class= 'stimulus' src='images/baseline/05158v.jpg'></img></p>","null","","1550341541693","","","","","","",""
"null","","html-keyboard-response","181","1336864","0.0-6.0-4.9","18","<p><img class= 'stimulus' src='images/baseline/02982v.jpg'></img></p>","null","","1550341541793","4","","","","","",""
"null","","html-keyboard-response","182","1336963","0.0-6.0-5.9","18","<p><img class= 'stimulus' src='images/baseline/tennis-court-net-buried-in-snow.jpg'></img></p>","null","","1550341541893","","","","","","",""
"null","","html-keyboard-response","183","1337063","0.0-6.0-6.9","18","<p><img class= 'stimulus' src='images/target/cactus1.jpg'></img></p>","null","","1550341541994","6","","","","","",""
"null","","html-keyboard-response","184","1337164","0.0-6.0-7.9","18","<p><img class= 'stimulus' src='images/baseline/Linden,_paysage.jpg'></img></p>","null","","1550341542093","","","","","","",""
"null","","html-keyboard-response","185","1337264","0.0-6.0-8.9","18","<p><img class= 'stimulus' src='images/baseline/Sailing 3.jpg'></img></p>","null","","1550341542192","8","","","","","",""
"null","","html-keyboard-response","186","1337364","0.0-6.0-9.9","18","<p><img class= 'stimulus' src='images/baseline/4k-wallpaper-agriculture-clouds-842711.jpg'></img></p>","null","","1550341542293","","","","","","",""
"null","","html-keyboard-response","187","1337464","0.0-6.0-10.9","18","<p><img class= 'stimulus' src='images/baseline/Beach 3.jpg'></img></p>","null","","1550341542394","","","","","","",""
"null","","html-keyboard-response","188","1337564","0.0-6.0-11.9","18","<p><img class= 'stimulus' src='images/baseline/building8.jpg'></img></p>","null","","1550341542494","","","","","","",""
"null","","html-keyboard-response","189","1337664","0.0-6.0-12.9","18","<p><img class= 'stimulus' src='images/baseline/04040v.jpg'></img></p>","null","","1550341542594","12","","","","","",""
"null","","html-keyboard-response","190","1337764","0.0-6.0-13.9","18","<p><img class= 'stimulus' src='images/baseline/Lake 16.jpg'></img></p>","null","","1550341542693","","","","","","",""
"null","","html-keyboard-response","191","1337864","0.0-6.0-14.9","18","<p><img class= 'stimulus' src='images/baseline/grand-teton-mountains.jpg'></img></p>","null","","1550341542793","14","","","","","",""
"null","","html-keyboard-response","192","1337964","0.0-6.0-15.9","18","<p><img class= 'stimulus' src='images/baseline/Beach 8.jpg'></img></p>","null","","1550341542894","","","","","","",""
"null","","html-keyboard-response","193","1338063","0.0-6.0-16.9","18","<p><img class= 'stimulus' src='images/baseline/pexels-photo-541101.jpeg'></img></p>","null","","1550341542993","","","","","","",""
"null","","html-keyboard-response","194","1338180","0.0-6.0-17.9","18","<p><img class= 'stimulus' src='images/baseline/landscape35.jpg'></img></p>","null","","1550341543094","","","","","","",""
"414.6000000182539","","html-button-response","195","1339612","0.0-6.0-18.9","18","<div class = ""response_question"">WAS THE IMAGE ROTATED...</div>","","3","","","4","2","bas","right","practice","true"
"685.8000000356697","","html-button-response","196","1340299","0.0-6.0-0.10","18","","","0","","","","","","","",""
"null","","html-keyboard-response","197","1340379","0.0-6.0-1.10","18","<p><img class= 'stimulus' src='images/baseline/05198v.jpg'></img></p>","null","","1550341545310","","","","","","",""
"null","","html-keyboard-response","198","1340480","0.0-6.0-2.10","18","<p><img class= 'stimulus' src='images/baseline/valley 2.jpg'></img></p>","null","","1550341545411","","","","","","",""
"null","","html-keyboard-response","199","1340580","0.0-6.0-3.10","18","<p><img class= 'stimulus' src='images/baseline/03112v.jpg'></img></p>","null","","1550341545509","","","","","","",""
"null","","html-keyboard-response","200","1340680","0.0-6.0-4.10","18","<p><img class= 'stimulus' src='images/baseline/03063v.jpg'></img></p>","null","","1550341545609","4","","","","","",""
"null","","html-keyboard-response","201","1340780","0.0-6.0-5.10","18","<p><img class= 'stimulus' src='images/baseline/building_at_national_conservation.jpg'></img></p>","null","","1550341545709","","","","","","",""
"null","","html-keyboard-response","202","1340880","0.0-6.0-6.10","18","<p><img class= 'stimulus' src='images/baseline/flooded-bridge.jpg'></img></p>","null","","1550341545809","6","","","","","",""
"null","","html-keyboard-response","203","1340980","0.0-6.0-7.10","18","<p><img class= 'stimulus' src='images/baseline/05242v.jpg'></img></p>","null","","1550341545911","","","","","","",""
"null","","html-keyboard-response","204","1341081","0.0-6.0-8.10","18","<p><img class= 'stimulus' src='images/baseline/05255v.jpg'></img></p>","null","","1550341546010","8","","","","","",""
"null","","html-keyboard-response","205","1341180","0.0-6.0-9.10","18","<p><img class= 'stimulus' src='images/baseline/pexels-photo-351264.jpeg'></img></p>","null","","1550341546111","","","","","","",""
"null","","html-keyboard-response","206","1341280","0.0-6.0-10.10","18","<p><img class= 'stimulus' src='images/baseline/landscape29.jpg'></img></p>","null","","1550341546210","","","","","","",""
"null","","html-keyboard-response","207","1341381","0.0-6.0-11.10","18","<p><img class= 'stimulus' src='images/baseline/road 1(1).jpg'></img></p>","null","","1550341546310","","","","","","",""
"null","","html-keyboard-response","208","1341480","0.0-6.0-12.10","18","<p><img class= 'stimulus left-rotate' src='images/target/pexels-photo-932328.jpeg'></img></p>","null","","1550341546410","12","","","","","",""
"null","","html-keyboard-response","209","1341580","0.0-6.0-13.10","18","<p><img class= 'stimulus' src='images/baseline/05161v.jpg'></img></p>","null","","1550341546510","","","","","","",""
"null","","html-keyboard-response","210","1341680","0.0-6.0-14.10","18","<p><img class= 'stimulus' src='images/baseline/05252v.jpg'></img></p>","null","","1550341546609","14","","","","","",""
"null","","html-keyboard-response","211","1341781","0.0-6.0-15.10","18","<p><img class= 'stimulus' src='images/baseline/Sidewalk 4.jpg'></img></p>","null","","1550341546711","","","","","","",""
"null","","html-keyboard-response","212","1341880","0.0-6.0-16.10","18","<p><img class= 'stimulus' src='images/baseline/03148v.jpg'></img></p>","null","","1550341546809","","","","","","",""
"null","","html-keyboard-response","213","1341996","0.0-6.0-17.10","18","<p><img class= 'stimulus' src='images/baseline/Cold 7.jpg'></img></p>","null","","1550341546910","","","","","","",""
"556.6000000108033","","html-button-response","214","1343556","0.0-6.0-18.10","18","<div class = ""response_question"">WAS THE IMAGE ROTATED...</div>","","0","","","4","8","bas","left","practice","true"
"694.4000000366941","","html-button-response","215","1344252","0.0-6.0-0.11","18","","","0","","","","","","","",""
"null","","html-keyboard-response","216","1344331","0.0-6.0-1.11","18","<p><img class= 'stimulus' src='images/baseline/Nature 1.jpg'></img></p>","null","","1550341549260","","","","","","",""
"null","","html-keyboard-response","217","1344430","0.0-6.0-2.11","18","<p><img class= 'stimulus' src='images/baseline/architecture-1314416_1920.jpg'></img></p>","null","","1550341549360","","","","","","",""
"null","","html-keyboard-response","218","1344530","0.0-6.0-3.11","18","<p><img class= 'stimulus' src='images/baseline/05179v.jpg'></img></p>","null","","1550341549461","","","","","","",""
"null","","html-keyboard-response","219","1344630","0.0-6.0-4.11","18","<p><img class= 'stimulus' src='images/baseline/meadow-with-mountain-in-background.jpg'></img></p>","null","","1550341549560","4","","","","","",""
"null","","html-keyboard-response","220","1344730","0.0-6.0-5.11","18","<p><img class= 'stimulus' src='images/baseline/building4.jpg'></img></p>","null","","1550341549661","","","","","","",""
"null","","html-keyboard-response","221","1344831","0.0-6.0-6.11","18","<p><img class= 'stimulus left-rotate' src='images/target/pexels-photo-236294.jpeg'></img></p>","null","","1550341549761","6","","","","","",""
"null","","html-keyboard-response","222","1344931","0.0-6.0-7.11","18","<p><img class= 'stimulus' src='images/baseline/Paysage_enneige_02.jpg'></img></p>","null","","1550341549861","","","","","","",""
"null","","html-keyboard-response","223","1345031","0.0-6.0-8.11","18","<p><img class= 'stimulus' src='images/baseline/sunset-over-the-lake.jpg'></img></p>","null","","1550341549961","8","","","","","",""
"null","","html-keyboard-response","224","1345131","0.0-6.0-9.11","18","<p><img class= 'stimulus' src='images/baseline/landscape38.jpg'></img></p>","null","","1550341550060","","","","","","",""
"null","","html-keyboard-response","225","1345232","0.0-6.0-10.11","18","<p><img class= 'stimulus' src='images/baseline/valley 1.jpg'></img></p>","null","","1550341550160","","","","","","",""
"null","","html-keyboard-response","226","1345330","0.0-6.0-11.11","18","<p><img class= 'stimulus' src='images/baseline/lake3.jpg'></img></p>","null","","1550341550260","","","","","","",""
"null","","html-keyboard-response","227","1345431","0.0-6.0-12.11","18","<p><img class= 'stimulus' src='images/baseline/Lake 9.jpg'></img></p>","null","","1550341550360","12","","","","","",""
"null","","html-keyboard-response","228","1345531","0.0-6.0-13.11","18","<p><img class= 'stimulus' src='images/baseline/farmhouse4.jpg'></img></p>","null","","1550341550461","","","","","","",""
"null","","html-keyboard-response","229","1345631","0.0-6.0-14.11","18","<p><img class= 'stimulus' src='images/baseline/Lake 7.jpg'></img></p>","null","","1550341550560","14","","","","","",""
"null","","html-keyboard-response","230","1345730","0.0-6.0-15.11","18","<p><img class= 'stimulus' src='images/baseline/pexels-photo-221125.jpeg'></img></p>","null","","1550341550660","","","","","","",""
"null","","html-keyboard-response","231","1345831","0.0-6.0-16.11","18","<p><img class= 'stimulus' src='images/baseline/03180v.jpg'></img></p>","null","","1550341550760","","","","","","",""
"null","","html-keyboard-response","232","1345948","0.0-6.0-17.11","18","<p><img class= 'stimulus' src='images/baseline/04085v.jpg'></img></p>","null","","1550341550860","","","","","","",""
"613.7999999918975","","html-button-response","233","1347564","0.0-6.0-18.11","18","<div class = ""response_question"">WAS THE IMAGE ROTATED...</div>","","0","","","4","2","bas","left","practice","true"
"534.4000000040978","","html-button-response","234","1348099","0.0-6.0-0.12","18","","","0","","","","","","","",""
"null","","html-keyboard-response","235","1348181","0.0-6.0-1.12","18","<p><img class= 'stimulus' src='images/baseline/house10.jpg'></img></p>","null","","1550341553110","","","","","","",""
"null","","html-keyboard-response","236","1348281","0.0-6.0-2.12","18","<p><img class= 'stimulus' src='images/baseline/autumn-in-red-rocks-park.jpg'></img></p>","null","","1550341553210","","","","","","",""
"null","","html-keyboard-response","237","1348380","0.0-6.0-3.12","18","<p><img class= 'stimulus' src='images/baseline/landscape19.jpg'></img></p>","null","","1550341553311","","","","","","",""
"null","","html-keyboard-response","238","1348481","0.0-6.0-4.12","18","<p><img class= 'stimulus' src='images/baseline/05247v.jpg'></img></p>","null","","1550341553409","4","","","","","",""
"null","","html-keyboard-response","239","1348581","0.0-6.0-5.12","18","<p><img class= 'stimulus' src='images/baseline/pexels-photo-1840893.jpeg'></img></p>","null","","1550341553509","","","","","","",""
"null","","html-keyboard-response","240","1348680","0.0-6.0-6.12","18","<p><img class= 'stimulus' src='images/baseline/04062v.jpg'></img></p>","null","","1550341553609","6","","","","","",""
"null","","html-keyboard-response","241","1348781","0.0-6.0-7.12","18","<p><img class= 'stimulus' src='images/baseline/horse_statue.jpg'></img></p>","null","","1550341553710","","","","","","",""
"null","","html-keyboard-response","242","1348882","0.0-6.0-8.12","18","<p><img class= 'stimulus' src='images/baseline/03212v.jpg'></img></p>","null","","1550341553809","8","","","","","",""
"null","","html-keyboard-response","243","1348980","0.0-6.0-9.12","18","<p><img class= 'stimulus' src='images/baseline/pexels-photo-59321.jpeg'></img></p>","null","","1550341553911","","","","","","",""
"null","","html-keyboard-response","244","1349080","0.0-6.0-10.12","18","<p><img class= 'stimulus' src='images/baseline/farmhouse3.jpg'></img></p>","null","","1550341554010","","","","","","",""
"null","","html-keyboard-response","245","1349180","0.0-6.0-11.12","18","<p><img class= 'stimulus' src='images/baseline/landscape40.jpg'></img></p>","null","","1550341554110","","","","","","",""
"null","","html-keyboard-response","246","1349281","0.0-6.0-12.12","18","<p><img class= 'stimulus' src='images/baseline/landscape31.jpg'></img></p>","null","","1550341554211","12","","","","","",""
"null","","html-keyboard-response","247","1349381","0.0-6.0-13.12","18","<p><img class= 'stimulus' src='images/baseline/landscape8.jpg'></img></p>","null","","1550341554310","","","","","","",""
"null","","html-keyboard-response","248","1349480","0.0-6.0-14.12","18","<p><img class= 'stimulus' src='images/target/oak-456524_640.jpg'></img></p>","null","","1550341554410","14","","","","","",""
"null","","html-keyboard-response","249","1349581","0.0-6.0-15.12","18","<p><img class= 'stimulus' src='images/baseline/building3.jpg'></img></p>","null","","1550341554510","","","","","","",""
"null","","html-keyboard-response","250","1349680","0.0-6.0-16.12","18","<p><img class= 'stimulus' src='images/baseline/04098v.jpg'></img></p>","null","","1550341554609","","","","","","",""
"null","","html-keyboard-response","251","1349798","0.0-6.0-17.12","18","<p><img class= 'stimulus' src='images/baseline/lone-old-cottonwood-tree.jpg'></img></p>","null","","1550341554709","","","","","","",""
"483.5000000311993","","html-button-response","252","1351284","0.0-6.0-18.12","18","<div class = ""response_question"">WAS THE IMAGE ROTATED...</div>","","3","","","6","8","bas","right","practice","true"
"622.3000000463799","","html-button-response","253","1351908","0.0-6.0-0.13","18","","","0","","","","","","","",""
"null","","html-keyboard-response","254","1351997","0.0-6.0-1.13","18","<p><img class= 'stimulus' src='images/baseline/pexels-photo-1048039.jpeg'></img></p>","null","","1550341556927","","","","","","",""
"null","","html-keyboard-response","255","1352097","0.0-6.0-2.13","18","<p><img class= 'stimulus' src='images/baseline/field 1.jpg'></img></p>","null","","1550341557026","","","","","","",""
"null","","html-keyboard-response","256","1352197","0.0-6.0-3.13","18","<p><img class= 'stimulus' src='images/baseline/house11.jpg'></img></p>","null","","1550341557126","","","","","","",""
"null","","html-keyboard-response","257","1352297","0.0-6.0-4.13","18","<p><img class= 'stimulus' src='images/baseline/02962v.jpg'></img></p>","null","","1550341557226","4","","","","","",""
"null","","html-keyboard-response","258","1352397","0.0-6.0-5.13","18","<p><img class= 'stimulus' src='images/baseline/pexels-photo-414491.jpeg'></img></p>","null","","1550341557327","","","","","","",""
"null","","html-keyboard-response","259","1352497","0.0-6.0-6.13","18","<p><img class= 'stimulus' src='images/baseline/04060v.jpg'></img></p>","null","","1550341557426","6","","","","","",""
"null","","html-keyboard-response","260","1352598","0.0-6.0-7.13","18","<p><img class= 'stimulus' src='images/baseline/Bahia_Onelli_Parque_Nacional_Los_Glaciares_Patagonia_Argentina_Luca_Galuzzi_2005.jpg'></img></p>","null","","1550341557527","","","","","","",""
"null","","html-keyboard-response","261","1352697","0.0-6.0-8.13","18","<p><img class= 'stimulus left-rotate' src='images/target/cactus2.jpg'></img></p>","null","","1550341557626","8","","","","","",""
"null","","html-keyboard-response","262","1352798","0.0-6.0-9.13","18","<p><img class= 'stimulus' src='images/baseline/Bridge 1.jpg'></img></p>","null","","1550341557727","","","","","","",""
"null","","html-keyboard-response","263","1352898","0.0-6.0-10.13","18","<p><img class= 'stimulus' src='images/baseline/04229v.jpg'></img></p>","null","","1550341557827","","","","","","",""
"null","","html-keyboard-response","264","1352996","0.0-6.0-11.13","18","<p><img class= 'stimulus' src='images/baseline/Lake 13.jpg'></img></p>","null","","1550341557927","","","","","","",""
"null","","html-keyboard-response","265","1353097","0.0-6.0-12.13","18","<p><img class= 'stimulus' src='images/baseline/landscape15.jpg'></img></p>","null","","1550341558026","12","","","","","",""
"null","","html-keyboard-response","266","1353197","0.0-6.0-13.13","18","<p><img class= 'stimulus' src='images/baseline/04179v.jpg'></img></p>","null","","1550341558126","","","","","","",""
"null","","html-keyboard-response","267","1353297","0.0-6.0-14.13","18","<p><img class= 'stimulus' src='images/baseline/05280v.jpg'></img></p>","null","","1550341558226","14","","","","","",""
"null","","html-keyboard-response","268","1353398","0.0-6.0-15.13","18","<p><img class= 'stimulus' src='images/baseline/Kocherbaumwald-01.jpg'></img></p>","null","","1550341558327","","","","","","",""
"null","","html-keyboard-response","269","1353497","0.0-6.0-16.13","18","<p><img class= 'stimulus' src='images/baseline/hills 1.jpg'></img></p>","null","","1550341558426","","","","","","",""
"null","","html-keyboard-response","270","1353614","0.0-6.0-17.13","18","<p><img class= 'stimulus' src='images/baseline/Lake 3.jpg'></img></p>","null","","1550341558528","","","","","","",""
"705.7999999960884","","html-button-response","271","1355324","0.0-6.0-18.13","18","<div class = ""response_question"">WAS THE IMAGE ROTATED...</div>","","0","","","6","2","bas","left","practice","true"
"478.1999999540858","","html-button-response","272","1355804","0.0-6.0-0.14","18","","","0","","","","","","","",""
"null","","html-keyboard-response","273","1355880","0.0-6.0-1.14","18","<p><img class= 'stimulus' src='images/baseline/red rocks from afar.jpg'></img></p>","null","","1550341560810","","","","","","",""
"null","","html-keyboard-response","274","1355981","0.0-6.0-2.14","18","<p><img class= 'stimulus' src='images/baseline/Skyscraper 1.jpg'></img></p>","null","","1550341560911","","","","","","",""
"null","","html-keyboard-response","275","1356080","0.0-6.0-3.14","18","<p><img class= 'stimulus' src='images/baseline/dirt-road-or-trail-through-park.jpg'></img></p>","null","","1550341561012","","","","","","",""
"null","","html-keyboard-response","276","1356181","0.0-6.0-4.14","18","<p><img class= 'stimulus' src='images/baseline/lake 1.jpg'></img></p>","null","","1550341561110","4","","","","","",""
"null","","html-keyboard-response","277","1356280","0.0-6.0-5.14","18","<p><img class= 'stimulus' src='images/baseline/field 3.jpg'></img></p>","null","","1550341561210","","","","","","",""
"null","","html-keyboard-response","278","1356381","0.0-6.0-6.14","18","<p><img class= 'stimulus' src='images/baseline/03066v.jpg'></img></p>","null","","1550341561309","6","","","","","",""
"null","","html-keyboard-response","279","1356481","0.0-6.0-7.14","18","<p><img class= 'stimulus' src='images/baseline/05292v.jpg'></img></p>","null","","1550341561410","","","","","","",""
"null","","html-keyboard-response","280","1356581","0.0-6.0-8.14","18","<p><img class= 'stimulus' src='images/target/dreifaltigkeitskirche_sandhausen_837699.jpg'></img></p>","null","","1550341561510","8","","","","","",""
"null","","html-keyboard-response","281","1356682","0.0-6.0-9.14","18","<p><img class= 'stimulus' src='images/baseline/02977v.jpg'></img></p>","null","","1550341561609","","","","","","",""
"null","","html-keyboard-response","282","1356781","0.0-6.0-10.14","18","<p><img class= 'stimulus' src='images/baseline/landscape22.jpg'></img></p>","null","","1550341561711","","","","","","",""
"null","","html-keyboard-response","283","1356881","0.0-6.0-11.14","18","<p><img class= 'stimulus' src='images/baseline/05186v.jpg'></img></p>","null","","1550341561810","","","","","","",""
"null","","html-keyboard-response","284","1356980","0.0-6.0-12.14","18","<p><img class= 'stimulus' src='images/baseline/pexels-photo-210617.jpeg'></img></p>","null","","1550341561911","12","","","","","",""
"null","","html-keyboard-response","285","1357081","0.0-6.0-13.14","18","<p><img class= 'stimulus' src='images/baseline/field 4.jpg'></img></p>","null","","1550341562011","","","","","","",""
"null","","html-keyboard-response","286","1357181","0.0-6.0-14.14","18","<p><img class= 'stimulus' src='images/baseline/Waterfall 1.jpg'></img></p>","null","","1550341562110","14","","","","","",""
"null","","html-keyboard-response","287","1357280","0.0-6.0-15.14","18","<p><img class= 'stimulus' src='images/baseline/house6.jpg'></img></p>","null","","1550341562210","","","","","","",""
"null","","html-keyboard-response","288","1357380","0.0-6.0-16.14","18","<p><img class= 'stimulus' src='images/baseline/Street 3.jpg'></img></p>","null","","1550341562310","","","","","","",""
"null","","html-keyboard-response","289","1357497","0.0-6.0-17.14","18","<p><img class= 'stimulus' src='images/baseline/Sunset 3.jpg'></img></p>","null","","1550341562410","","","","","","",""
"2396.8999999924563","","html-button-response","290","1360900","0.0-6.0-18.14","18","<div class = ""response_question"">WAS THE IMAGE ROTATED...</div>","","1","","","6","2","bas","right","practice","false"
"718.30000000773","","html-button-response","291","1361620","0.0-6.0-0.15","18","","","0","","","","","","","",""
"null","","html-keyboard-response","292","1361697","0.0-6.0-1.15","18","<p><img class= 'stimulus' src='images/baseline/04201v.jpg'></img></p>","null","","1550341566627","","","","","","",""
"null","","html-keyboard-response","293","1361798","0.0-6.0-2.15","18","<p><img class= 'stimulus' src='images/baseline/landscape33.jpg'></img></p>","null","","1550341566726","","","","","","",""
"null","","html-keyboard-response","294","1361897","0.0-6.0-3.15","18","<p><img class= 'stimulus' src='images/baseline/Peyto_Lake-Banff_NP-Canada.jpg'></img></p>","null","","1550341566827","","","","","","",""
"null","","html-keyboard-response","295","1361998","0.0-6.0-4.15","18","<p><img class= 'stimulus' src='images/baseline/pexels-photo-1261728.jpeg'></img></p>","null","","1550341566926","4","","","","","",""
"null","","html-keyboard-response","296","1362097","0.0-6.0-5.15","18","<p><img class= 'stimulus' src='images/baseline/02971v.jpg'></img></p>","null","","1550341567026","","","","","","",""
"null","","html-keyboard-response","297","1362198","0.0-6.0-6.15","18","<p><img class= 'stimulus' src='images/baseline/city-silhouette-at-sunset-871291580819Esw.jpg'></img></p>","null","","1550341567126","6","","","","","",""
"null","","html-keyboard-response","298","1362297","0.0-6.0-7.15","18","<p><img class= 'stimulus' src='images/baseline/05264v.jpg'></img></p>","null","","1550341567227","","","","","","",""
"null","","html-keyboard-response","299","1362398","0.0-6.0-8.15","18","<p><img class= 'stimulus' src='images/baseline/Sunset 4.jpg'></img></p>","null","","1550341567328","8","","","","","",""
"null","","html-keyboard-response","300","1362497","0.0-6.0-9.15","18","<p><img class= 'stimulus' src='images/baseline/Sunset 6.jpg'></img></p>","null","","1550341567427","","","","","","",""
"null","","html-keyboard-response","301","1362597","0.0-6.0-10.15","18","<p><img class= 'stimulus' src='images/baseline/04222v.jpg'></img></p>","null","","1550341567527","","","","","","",""
"null","","html-keyboard-response","302","1362698","0.0-6.0-11.15","18","<p><img class= 'stimulus' src='images/baseline/Path 1.jpg'></img></p>","null","","1550341567627","","","","","","",""
"null","","html-keyboard-response","303","1362797","0.0-6.0-12.15","18","<p><img class= 'stimulus' src='images/target/landscape1.jpg'></img></p>","null","","1550341567728","12","","","","","",""
"null","","html-keyboard-response","304","1362897","0.0-6.0-13.15","18","<p><img class= 'stimulus' src='images/baseline/house1.jpg'></img></p>","null","","1550341567827","","","","","","",""
"null","","html-keyboard-response","305","1362997","0.0-6.0-14.15","18","<p><img class= 'stimulus' src='images/baseline/road.jpg'></img></p>","null","","1550341567926","14","","","","","",""
"null","","html-keyboard-response","306","1363097","0.0-6.0-15.15","18","<p><img class= 'stimulus' src='images/baseline/lookout_tower.jpg'></img></p>","null","","1550341568027","","","","","","",""
"null","","html-keyboard-response","307","1363197","0.0-6.0-16.15","18","<p><img class= 'stimulus' src='images/baseline/Dirt 2.jpg'></img></p>","null","","1550341568126","","","","","","",""
"null","","html-keyboard-response","308","1363314","0.0-6.0-17.15","18","<p><img class= 'stimulus' src='images/baseline/pexels-photo-414491.jpeg'></img></p>","null","","1550341568227","","","","","","",""
"5028.799999970943","","html-button-response","309","1369349","0.0-6.0-18.15","18","<div class = ""response_question"">WAS THE IMAGE ROTATED...</div>","","1","","","4","8","bas","right","practice","false"
"69702.50000001397","","html-button-response","310","1439052","0.0-7.0","18","<p>You have now completed the practice phase. We will now begin the real trials.         This is a reminder that you will be searching for a rotated image among the series of upright images.</p>         <p>Remember, please do not blink or move your eyes while the images are on the screen.</p>         <p>At the end of the experiment, the experimenter will be able to show you how accurate you were.</p>","","0","","","","","","","",""
"1758.9000000152737","","html-button-response","311","1440812","0.0-8.0-0.0-0.0","18","","","0","","","","","","","",""
"null","","html-keyboard-response","312","1440898","0.0-8.0-0.0-1.0","18","<p><img class= 'stimulus' src='images/baseline/04117v.jpg'></img></p>","null","","1550341645828","","","","","","",""
"null","","html-keyboard-response","313","1440998","0.0-8.0-0.0-2.0","18","<p><img class= 'stimulus' src='images/baseline/red rocks from afar.jpg'></img></p>","null","","1550341645927","","","","","","",""
"null","","html-keyboard-response","314","1441099","0.0-8.0-0.0-3.0","18","<p><img class= 'stimulus' src='images/baseline/road 1(1).jpg'></img></p>","null","","1550341646027","","","","","","",""
"null","","html-keyboard-response","315","1441198","0.0-8.0-0.0-4.0","18","<p><img class= 'stimulus' src='images/baseline/pexels-photo-534164.jpeg'></img></p>","null","","1550341646128","4","","","","","",""
"null","","html-keyboard-response","316","1441297","0.0-8.0-0.0-5.0","18","<p><img class= 'stimulus' src='images/baseline/lone-old-cottonwood-tree.jpg'></img></p>","null","","1550341646228","","","","","","",""
"null","","html-keyboard-response","317","1441398","0.0-8.0-0.0-6.0","18","<p><img class= 'stimulus' src='images/neutral/Smiling face 1.jpg'></img></p>","null","","1550341646327","6","","","","","",""
"null","","html-keyboard-response","318","1441499","0.0-8.0-0.0-7.0","18","<p><img class= 'stimulus' src='images/baseline/Lake 14.jpg'></img></p>","null","","1550341646427","","","","","","",""
"null","","html-keyboard-response","319","1441599","0.0-8.0-0.0-8.0","18","<p><img class= 'stimulus' src='images/baseline/Happy pose 3.jpg'></img></p>","null","","1550341646527","8","","","","","",""
"null","","html-keyboard-response","320","1441698","0.0-8.0-0.0-9.0","18","<p><img class= 'stimulus' src='images/baseline/building12.jpg'></img></p>","null","","1550341646628","","","","","","",""
"null","","html-keyboard-response","321","1441798","0.0-8.0-0.0-10.0","18","<p><img class= 'stimulus' src='images/baseline/Lake 3.jpg'></img></p>","null","","1550341646727","","","","","","",""
"null","","html-keyboard-response","322","1441898","0.0-8.0-0.0-11.0","18","<p><img class= 'stimulus' src='images/baseline/Path 1.jpg'></img></p>","null","","1550341646827","","","","","","",""
"null","","html-keyboard-response","323","1441998","0.0-8.0-0.0-12.0","18","<p><img class= 'stimulus' src='images/baseline/landscape7.jpg'></img></p>","null","","1550341646927","12","","","","","",""
"null","","html-keyboard-response","324","1442099","0.0-8.0-0.0-13.0","18","<p><img class= 'stimulus' src='images/baseline/04130v.jpg'></img></p>","null","","1550341647028","","","","","","",""
"null","","html-keyboard-response","325","1442198","0.0-8.0-0.0-14.0","18","<p><img class= 'stimulus' src='images/target/tree-in-desert-landscape.jpg'></img></p>","null","","1550341647128","14","","","","","",""
"null","","html-keyboard-response","326","1442298","0.0-8.0-0.0-15.0","18","<p><img class= 'stimulus' src='images/baseline/03220v.jpg'></img></p>","null","","1550341647227","","","","","","",""
"null","","html-keyboard-response","327","1442397","0.0-8.0-0.0-16.0","18","<p><img class= 'stimulus' src='images/baseline/Lake 5.jpg'></img></p>","null","","1550341647328","","","","","","",""
"null","","html-keyboard-response","328","1442514","0.0-8.0-0.0-17.0","18","<p><img class= 'stimulus' src='images/baseline/05198v.jpg'></img></p>","null","","1550341647429","","","","","","",""
"430.60000002151355","","html-button-response","329","1443949","0.0-8.0-0.0-18.0","18","<div class = ""response_question"">WAS THE IMAGE ROTATED...</div>","","3","","","6","8","neu","right","test","true"
"822.0999999903142","","html-button-response","330","1444772","0.0-8.0-0.0-0.1","18","","","0","","","","","","","",""
"null","","html-keyboard-response","331","1444848","0.0-8.0-0.0-1.1","18","<p><img class= 'stimulus' src='images/baseline/autumn-landscape-with-lake-fall-trees-mountains.jpg'></img></p>","null","","1550341649777","","","","","","",""
"null","","html-keyboard-response","332","1444948","0.0-8.0-0.0-2.1","18","<p><img class= 'stimulus' src='images/baseline/03162v.jpg'></img></p>","null","","1550341649877","","","","","","",""
"null","","html-keyboard-response","333","1445049","0.0-8.0-0.0-3.1","18","<p><img class= 'stimulus' src='images/baseline/04086v.jpg'></img></p>","null","","1550341649978","","","","","","",""
"null","","html-keyboard-response","334","1445148","0.0-8.0-0.0-4.1","18","<p><img class= 'stimulus' src='images/negative/Shark 2.jpg'></img></p>","null","","1550341650077","4","","","","","",""
"null","","html-keyboard-response","335","1445248","0.0-8.0-0.0-5.1","18","<p><img class= 'stimulus' src='images/baseline/Bridge 1.jpg'></img></p>","null","","1550341650177","","","","","","",""
"null","","html-keyboard-response","336","1445348","0.0-8.0-0.0-6.1","18","<p><img class= 'stimulus' src='images/baseline/pexels-photo-568236.jpeg'></img></p>","null","","1550341650278","6","","","","","",""
"null","","html-keyboard-response","337","1445447","0.0-8.0-0.0-7.1","18","<p><img class= 'stimulus' src='images/baseline/04031v.jpg'></img></p>","null","","1550341650378","","","","","","",""
"null","","html-keyboard-response","338","1445547","0.0-8.0-0.0-8.1","18","<p><img class= 'stimulus' src='images/baseline/05303v.jpg'></img></p>","null","","1550341650478","8","","","","","",""
"null","","html-keyboard-response","339","1445649","0.0-8.0-0.0-9.1","18","<p><img class= 'stimulus' src='images/baseline/landscape34.jpg'></img></p>","null","","1550341650578","","","","","","",""
"null","","html-keyboard-response","340","1445748","0.0-8.0-0.0-10.1","18","<p><img class= 'stimulus' src='images/baseline/04284v.jpg'></img></p>","null","","1550341650678","","","","","","",""
"null","","html-keyboard-response","341","1445848","0.0-8.0-0.0-11.1","18","<p><img class= 'stimulus' src='images/baseline/04040v.jpg'></img></p>","null","","1550341650778","","","","","","",""
"null","","html-keyboard-response","342","1445948","0.0-8.0-0.0-12.1","18","<p><img class= 'stimulus' src='images/target/pexels-photo-1534411.jpeg'></img></p>","null","","1550341650878","12","","","","","",""
"null","","html-keyboard-response","343","1446048","0.0-8.0-0.0-13.1","18","<p><img class= 'stimulus' src='images/baseline/city-silhouette-at-sunset-871291580819Esw.jpg'></img></p>","null","","1550341650977","","","","","","",""
"null","","html-keyboard-response","344","1446148","0.0-8.0-0.0-14.1","18","<p><img class= 'stimulus' src='images/baseline/landscape2.jpg'></img></p>","null","","1550341651078","14","","","","","",""
"null","","html-keyboard-response","345","1446250","0.0-8.0-0.0-15.1","18","<p><img class= 'stimulus' src='images/baseline/02945v.jpg'></img></p>","null","","1550341651177","","","","","","",""
"null","","html-keyboard-response","346","1446349","0.0-8.0-0.0-16.1","18","<p><img class= 'stimulus' src='images/baseline/05161v.jpg'></img></p>","null","","1550341651278","","","","","","",""
"null","","html-keyboard-response","347","1446465","0.0-8.0-0.0-17.1","18","<p><img class= 'stimulus' src='images/baseline/Freudenberg_sg_Switzerland.jpg'></img></p>","null","","1550341651378","","","","","","",""
"816.3000000058673","","html-button-response","348","1448284","0.0-8.0-0.0-18.1","18","<div class = ""response_question"">WAS THE IMAGE ROTATED...</div>","","3","","","4","8","neg","right","test","true"
"734.4000000157394","","html-button-response","349","1449020","0.0-8.0-0.0-0.2","18","","","0","","","","","","","",""
"null","","html-keyboard-response","350","1449099","0.0-8.0-0.0-1.2","18","<p><img class= 'stimulus' src='images/baseline/cyrillic.jpg'></img></p>","null","","1550341654028","","","","","","",""
"null","","html-keyboard-response","351","1449199","0.0-8.0-0.0-2.2","18","<p><img class= 'stimulus' src='images/baseline/Lake 16.jpg'></img></p>","null","","1550341654128","","","","","","",""
"null","","html-keyboard-response","352","1449298","0.0-8.0-0.0-3.2","18","<p><img class= 'stimulus' src='images/baseline/Niinsaare_jarv.jpg'></img></p>","null","","1550341654229","","","","","","",""
"null","","html-keyboard-response","353","1449398","0.0-8.0-0.0-4.2","18","<p><img class= 'stimulus' src='images/neutral/Penguins 2.jpg'></img></p>","null","","1550341654328","4","","","","","",""
"null","","html-keyboard-response","354","1449498","0.0-8.0-0.0-5.2","18","<p><img class= 'stimulus' src='images/baseline/03114v.jpg'></img></p>","null","","1550341654429","","","","","","",""
"null","","html-keyboard-response","355","1449598","0.0-8.0-0.0-6.2","18","<p><img class= 'stimulus' src='images/target/dubai-1113262_640.jpg'></img></p>","null","","1550341654527","6","","","","","",""
"null","","html-keyboard-response","356","1449699","0.0-8.0-0.0-7.2","18","<p><img class= 'stimulus' src='images/baseline/pexels-photo-1054289.jpeg'></img></p>","null","","1550341654627","","","","","","",""
"null","","html-keyboard-response","357","1449800","0.0-8.0-0.0-8.2","18","<p><img class= 'stimulus' src='images/baseline/04193v.jpg'></img></p>","null","","1550341654728","8","","","","","",""
"null","","html-keyboard-response","358","1449899","0.0-8.0-0.0-9.2","18","<p><img class= 'stimulus' src='images/baseline/landscape35.jpg'></img></p>","null","","1550341654828","","","","","","",""
"null","","html-keyboard-response","359","1449999","0.0-8.0-0.0-10.2","18","<p><img class= 'stimulus' src='images/baseline/agriculture-countryside-crop-259280.jpg'></img></p>","null","","1550341654928","","","","","","",""
"null","","html-keyboard-response","360","1450098","0.0-8.0-0.0-11.2","18","<p><img class= 'stimulus' src='images/baseline/hills 3.jpg'></img></p>","null","","1550341655028","","","","","","",""
"null","","html-keyboard-response","361","1450198","0.0-8.0-0.0-12.2","18","<p><img class= 'stimulus' src='images/baseline/Skyscraper 2.jpg'></img></p>","null","","1550341655129","12","","","","","",""
"null","","html-keyboard-response","362","1450299","0.0-8.0-0.0-13.2","18","<p><img class= 'stimulus' src='images/baseline/house10.jpg'></img></p>","null","","1550341655228","","","","","","",""
"null","","html-keyboard-response","363","1450398","0.0-8.0-0.0-14.2","18","<p><img class= 'stimulus' src='images/baseline/building8.jpg'></img></p>","null","","1550341655329","14","","","","","",""
"null","","html-keyboard-response","364","1450499","0.0-8.0-0.0-15.2","18","<p><img class= 'stimulus' src='images/baseline/farmhouse1.jpg'></img></p>","null","","1550341655427","","","","","","",""
"null","","html-keyboard-response","365","1450599","0.0-8.0-0.0-16.2","18","<p><img class= 'stimulus' src='images/baseline/house7.jpg'></img></p>","null","","1550341655527","","","","","","",""
"null","","html-keyboard-response","366","1450715","0.0-8.0-0.0-17.2","18","<p><img class= 'stimulus' src='images/baseline/03056v.jpg'></img></p>","null","","1550341655629","","","","","","",""
"787.099999957718","","html-button-response","367","1452516","0.0-8.0-0.0-18.2","18","<div class = ""response_question"">WAS THE IMAGE ROTATED...</div>","","4","","","4","2","neu","right","test","true"
"598.3000000123866","","html-button-response","368","1453116","0.0-8.0-0.0-0.3","18","","","0","","","","","","","",""
"null","","html-keyboard-response","369","1453198","0.0-8.0-0.0-1.3","18","<p><img class= 'stimulus' src='images/baseline/03066v.jpg'></img></p>","null","","1550341658129","","","","","","",""
"null","","html-keyboard-response","370","1453298","0.0-8.0-0.0-2.3","18","<p><img class= 'stimulus' src='images/baseline/04158v.jpg'></img></p>","null","","1550341658227","","","","","","",""
"null","","html-keyboard-response","371","1453398","0.0-8.0-0.0-3.3","18","<p><img class= 'stimulus' src='images/baseline/Lake 7.jpg'></img></p>","null","","1550341658328","","","","","","",""
"null","","html-keyboard-response","372","1453498","0.0-8.0-0.0-4.3","18","<p><img class= 'stimulus' src='images/baseline/house11.jpg'></img></p>","null","","1550341658427","4","","","","","",""
"null","","html-keyboard-response","373","1453598","0.0-8.0-0.0-5.3","18","<p><img class= 'stimulus' src='images/baseline/landscape4.jpg'></img></p>","null","","1550341658528","","","","","","",""
"null","","html-keyboard-response","374","1453700","0.0-8.0-0.0-6.3","18","<p><img class= 'stimulus left-rotate' src='images/target/Tree-Landscape-Winter-Nature-Winter-Trees-Snow-2117951.jpg'></img></p>","null","","1550341658628","6","","","","","",""
"null","","html-keyboard-response","375","1453799","0.0-8.0-0.0-7.3","18","<p><img class= 'stimulus' src='images/baseline/landscape17.jpg'></img></p>","null","","1550341658728","","","","","","",""
"null","","html-keyboard-response","376","1453899","0.0-8.0-0.0-8.3","18","<p><img class= 'stimulus' src='images/baseline/Street 3.jpg'></img></p>","null","","1550341658827","8","","","","","",""
"null","","html-keyboard-response","377","1453997","0.0-8.0-0.0-9.3","18","<p><img class= 'stimulus' src='images/baseline/02982v.jpg'></img></p>","null","","1550341658928","","","","","","",""
"null","","html-keyboard-response","378","1454099","0.0-8.0-0.0-10.3","18","<p><img class= 'stimulus' src='images/baseline/03148v.jpg'></img></p>","null","","1550341659028","","","","","","",""
"null","","html-keyboard-response","379","1454198","0.0-8.0-0.0-11.3","18","<p><img class= 'stimulus' src='images/baseline/trees 23.jpg'></img></p>","null","","1550341659128","","","","","","",""
"null","","html-keyboard-response","380","1454298","0.0-8.0-0.0-12.3","18","<p><img class= 'stimulus' src='images/baseline/farmhouse8.jpg'></img></p>","null","","1550341659228","12","","","","","",""
"null","","html-keyboard-response","381","1454398","0.0-8.0-0.0-13.3","18","<p><img class= 'stimulus' src='images/baseline/05167v.jpg'></img></p>","null","","1550341659327","","","","","","",""
"null","","html-keyboard-response","382","1454499","0.0-8.0-0.0-14.3","18","<p><img class= 'stimulus' src='images/baseline/house2.jpg'></img></p>","null","","1550341659427","14","","","","","",""
"null","","html-keyboard-response","383","1454598","0.0-8.0-0.0-15.3","18","<p><img class= 'stimulus' src='images/baseline/Sunset 4.jpg'></img></p>","null","","1550341659528","","","","","","",""
"null","","html-keyboard-response","384","1454698","0.0-8.0-0.0-16.3","18","<p><img class= 'stimulus' src='images/baseline/sunny-landscape-with-dry-brush-and-mountain-background.jpg'></img></p>","null","","1550341659629","","","","","","",""
"null","","html-keyboard-response","385","1454816","0.0-8.0-0.0-17.3","18","<p><img class= 'stimulus' src='images/baseline/04010v.jpg'></img></p>","null","","1550341659728","","","","","","",""
"673.2000000192784","","html-button-response","386","1456493","0.0-8.0-0.0-18.3","18","<div class = ""response_question"">WAS THE IMAGE ROTATED...</div>","","0","","","4","2","bas","left","test","true"
"670.4000000027008","","html-button-response","387","1457164","0.0-8.0-0.0-0.4","18","","","0","","","","","","","",""
"null","","html-keyboard-response","388","1457248","0.0-8.0-0.0-1.4","18","<p><img class= 'stimulus' src='images/baseline/landscape22.jpg'></img></p>","null","","1550341662177","","","","","","",""
"null","","html-keyboard-response","389","1457348","0.0-8.0-0.0-2.4","18","<p><img class= 'stimulus' src='images/baseline/04201v.jpg'></img></p>","null","","1550341662277","","","","","","",""
"null","","html-keyboard-response","390","1457448","0.0-8.0-0.0-3.4","18","<p><img class= 'stimulus' src='images/baseline/Desert_View_Indian_Wells.jpg'></img></p>","null","","1550341662377","","","","","","",""
"null","","html-keyboard-response","391","1457548","0.0-8.0-0.0-4.4","18","<p><img class= 'stimulus' src='images/baseline/Nature 2.jpg'></img></p>","null","","1550341662479","4","","","","","",""
"null","","html-keyboard-response","392","1457649","0.0-8.0-0.0-5.4","18","<p><img class= 'stimulus' src='images/baseline/cranes 1.jpg'></img></p>","null","","1550341662577","","","","","","",""
"null","","html-keyboard-response","393","1457749","0.0-8.0-0.0-6.4","18","<p><img class= 'stimulus' src='images/baseline/pexels-photo-808465.jpeg'></img></p>","null","","1550341662677","6","","","","","",""
"null","","html-keyboard-response","394","1457847","0.0-8.0-0.0-7.4","18","<p><img class= 'stimulus' src='images/baseline/03075v.jpg'></img></p>","null","","1550341662778","","","","","","",""
"null","","html-keyboard-response","395","1457948","0.0-8.0-0.0-8.4","18","<p><img class= 'stimulus' src='images/baseline/field 2.jpg'></img></p>","null","","1550341662878","8","","","","","",""
"null","","html-keyboard-response","396","1458049","0.0-8.0-0.0-9.4","18","<p><img class= 'stimulus' src='images/baseline/landscape38.jpg'></img></p>","null","","1550341662978","","","","","","",""
"null","","html-keyboard-response","397","1458148","0.0-8.0-0.0-10.4","18","<p><img class= 'stimulus' src='images/baseline/02960v.jpg'></img></p>","null","","1550341663078","","","","","","",""
"null","","html-keyboard-response","398","1458248","0.0-8.0-0.0-11.4","18","<p><img class= 'stimulus' src='images/baseline/landscape40.jpg'></img></p>","null","","1550341663178","","","","","","",""
"null","","html-keyboard-response","399","1458348","0.0-8.0-0.0-12.4","18","<p><img class= 'stimulus' src='images/baseline/town-square-in-wroclaw-1539098440MZy.jpg'></img></p>","null","","1550341663277","12","","","","","",""
"null","","html-keyboard-response","400","1458448","0.0-8.0-0.0-13.4","18","<p><img class= 'stimulus' src='images/baseline/landscape14.jpg'></img></p>","null","","1550341663378","","","","","","",""
"null","","html-keyboard-response","401","1458549","0.0-8.0-0.0-14.4","18","<p><img class= 'stimulus' src='images/baseline/05189v.jpg'></img></p>","null","","1550341663477","14","","","","","",""
"null","","html-keyboard-response","402","1458648","0.0-8.0-0.0-15.4","18","<p><img class= 'stimulus' src='images/baseline/Sunset 3.jpg'></img></p>","null","","1550341663578","","","","","","",""
"null","","html-keyboard-response","403","1458749","0.0-8.0-0.0-16.4","18","<p><img class= 'stimulus' src='images/baseline/__08_-_ITALY_-_Forli_under_snow_-_winter_landscape_of_city_(christmas).jpg'></img></p>","null","","1550341663677","","","","","","",""
"null","","html-keyboard-response","404","1458865","0.0-8.0-0.0-17.4","18","<p><img class= 'stimulus' src='images/baseline/landscape37.jpg'></img></p>","null","","1550341663778","","","","","","",""
"637.700000021141","","html-button-response","405","1460508","0.0-8.0-0.0-18.4","18","<div class = ""response_question"">WAS THE IMAGE ROTATED...</div>","","2","","","null","null","null","null","test","null"
"814.1999999643303","","html-button-response","406","1461324","0.0-8.0-0.0-0.5","18","","","0","","","","","","","",""
"null","","html-keyboard-response","407","1461415","0.0-8.0-0.0-1.5","18","<p><img class= 'stimulus' src='images/baseline/architecture_modern_architecture_852928.jpg'></img></p>","null","","1550341666344","","","","","","",""
"null","","html-keyboard-response","408","1461515","0.0-8.0-0.0-2.5","18","<p><img class= 'stimulus' src='images/baseline/05279v.jpg'></img></p>","null","","1550341666444","","","","","","",""
"null","","html-keyboard-response","409","1461616","0.0-8.0-0.0-3.5","18","<p><img class= 'stimulus' src='images/baseline/landscape11.jpg'></img></p>","null","","1550341666545","","","","","","",""
"null","","html-keyboard-response","410","1461715","0.0-8.0-0.0-4.5","18","<p><img class= 'stimulus' src='images/baseline/pexels-photo-1048039.jpeg'></img></p>","null","","1550341666645","4","","","","","",""
"null","","html-keyboard-response","411","1461815","0.0-8.0-0.0-5.5","18","<p><img class= 'stimulus' src='images/baseline/farmhouse11.jpg'></img></p>","null","","1550341666745","","","","","","",""
"null","","html-keyboard-response","412","1461915","0.0-8.0-0.0-6.5","18","<p><img class= 'stimulus' src='images/baseline/Grass 6.jpg'></img></p>","null","","1550341666844","6","","","","","",""
"null","","html-keyboard-response","413","1462014","0.0-8.0-0.0-7.5","18","<p><img class= 'stimulus' src='images/baseline/Skyscraper 1.jpg'></img></p>","null","","1550341666945","","","","","","",""
"null","","html-keyboard-response","414","1462116","0.0-8.0-0.0-8.5","18","<p><img class= 'stimulus' src='images/baseline/field 1.jpg'></img></p>","null","","1550341667045","8","","","","","",""
"null","","html-keyboard-response","415","1462215","0.0-8.0-0.0-9.5","18","<p><img class= 'stimulus' src='images/baseline/landscape39.jpg'></img></p>","null","","1550341667146","","","","","","",""
"null","","html-keyboard-response","416","1462315","0.0-8.0-0.0-10.5","18","<p><img class= 'stimulus' src='images/baseline/05264v.jpg'></img></p>","null","","1550341667246","","","","","","",""
"null","","html-keyboard-response","417","1462415","0.0-8.0-0.0-11.5","18","<p><img class= 'stimulus' src='images/baseline/03212v.jpg'></img></p>","null","","1550341667344","","","","","","",""
"null","","html-keyboard-response","418","1462515","0.0-8.0-0.0-12.5","18","<p><img class= 'stimulus' src='images/target/lighthouse-843522_640.jpg'></img></p>","null","","1550341667445","12","","","","","",""
"null","","html-keyboard-response","419","1462615","0.0-8.0-0.0-13.5","18","<p><img class= 'stimulus' src='images/baseline/Lake 4.jpg'></img></p>","null","","1550341667544","","","","","","",""
"null","","html-keyboard-response","420","1462715","0.0-8.0-0.0-14.5","18","<p><img class= 'stimulus' src='images/baseline/03045v.jpg'></img></p>","null","","1550341667645","14","","","","","",""
"null","","html-keyboard-response","421","1462815","0.0-8.0-0.0-15.5","18","<p><img class= 'stimulus' src='images/baseline/Dock 1.jpg'></img></p>","null","","1550341667744","","","","","","",""
"null","","html-keyboard-response","422","1462915","0.0-8.0-0.0-16.5","18","<p><img class= 'stimulus' src='images/baseline/04162v.jpg'></img></p>","null","","1550341667844","","","","","","",""
"null","","html-keyboard-response","423","1463032","0.0-8.0-0.0-17.5","18","<p><img class= 'stimulus' src='images/baseline/Sidewalk 4.jpg'></img></p>","null","","1550341667945","","","","","","",""
"517.9000000352971","","html-button-response","424","1464556","0.0-8.0-0.0-18.5","18","<div class = ""response_question"">WAS THE IMAGE ROTATED...</div>","","3","","","4","8","bas","right","test","true"
"574.2000000318512","","html-button-response","425","1465132","0.0-8.0-0.0-0.6","18","","","0","","","","","","","",""
"null","","html-keyboard-response","426","1465215","0.0-8.0-0.0-1.6","18","<p><img class= 'stimulus' src='images/baseline/05292v.jpg'></img></p>","null","","1550341670145","","","","","","",""
"null","","html-keyboard-response","427","1465315","0.0-8.0-0.0-2.6","18","<p><img class= 'stimulus' src='images/baseline/kokkari-1523011968Xfr.jpg'></img></p>","null","","1550341670244","","","","","","",""
"null","","html-keyboard-response","428","1465415","0.0-8.0-0.0-3.6","18","<p><img class= 'stimulus' src='images/baseline/05158v.jpg'></img></p>","null","","1550341670344","","","","","","",""
"null","","html-keyboard-response","429","1465516","0.0-8.0-0.0-4.6","18","<p><img class= 'stimulus' src='images/baseline/farmhouse9.jpg'></img></p>","null","","1550341670445","4","","","","","",""
"null","","html-keyboard-response","430","1465615","0.0-8.0-0.0-5.6","18","<p><img class= 'stimulus' src='images/baseline/building5.jpg'></img></p>","null","","1550341670544","","","","","","",""
"null","","html-keyboard-response","431","1465716","0.0-8.0-0.0-6.6","18","<p><img class= 'stimulus' src='images/baseline/Camping 10.jpg'></img></p>","null","","1550341670644","6","","","","","",""
"null","","html-keyboard-response","432","1465815","0.0-8.0-0.0-7.6","18","<p><img class= 'stimulus' src='images/baseline/landscape8.jpg'></img></p>","null","","1550341670745","","","","","","",""
"null","","html-keyboard-response","433","1465916","0.0-8.0-0.0-8.6","18","<p><img class= 'stimulus' src='images/baseline/dirt-road-or-trail-through-park.jpg'></img></p>","null","","1550341670846","8","","","","","",""
"null","","html-keyboard-response","434","1466015","0.0-8.0-0.0-9.6","18","<p><img class= 'stimulus' src='images/baseline/Nature 1.jpg'></img></p>","null","","1550341670946","","","","","","",""
"null","","html-keyboard-response","435","1466115","0.0-8.0-0.0-10.6","18","<p><img class= 'stimulus' src='images/baseline/landscape1.jpg'></img></p>","null","","1550341671044","","","","","","",""
"null","","html-keyboard-response","436","1466216","0.0-8.0-0.0-11.6","18","<p><img class= 'stimulus' src='images/baseline/04222v.jpg'></img></p>","null","","1550341671145","","","","","","",""
"null","","html-keyboard-response","437","1466316","0.0-8.0-0.0-12.6","18","<p><img class= 'stimulus' src='images/baseline/landscape23.jpg'></img></p>","null","","1550341671244","12","","","","","",""
"null","","html-keyboard-response","438","1466416","0.0-8.0-0.0-13.6","18","<p><img class= 'stimulus' src='images/baseline/02988v.jpg'></img></p>","null","","1550341671345","","","","","","",""
"null","","html-keyboard-response","439","1466515","0.0-8.0-0.0-14.6","18","<p><img class= 'stimulus left-rotate' src='images/target/building4.jpg'></img></p>","null","","1550341671444","14","","","","","",""
"null","","html-keyboard-response","440","1466616","0.0-8.0-0.0-15.6","18","<p><img class= 'stimulus' src='images/baseline/red-rocks-park.jpg'></img></p>","null","","1550341671545","","","","","","",""
"null","","html-keyboard-response","441","1466715","0.0-8.0-0.0-16.6","18","<p><img class= 'stimulus' src='images/baseline/pexels-photo-210617.jpeg'></img></p>","null","","1550341671645","","","","","","",""
"null","","html-keyboard-response","442","1466832","0.0-8.0-0.0-17.6","18","<p><img class= 'stimulus' src='images/baseline/Sunset 6.jpg'></img></p>","null","","1550341671745","","","","","","",""
"529.3999999994412","","html-button-response","443","1468358","0.0-8.0-0.0-18.6","18","<div class = ""response_question"">WAS THE IMAGE ROTATED...</div>","","0","","","6","8","bas","left","test","true"
"686.3000000012107","","html-button-response","444","1469046","0.0-8.0-0.0-0.7","18","","","0","","","","","","","",""
"null","","html-keyboard-response","445","1469126","0.0-8.0-0.0-1.7","18","<p><img class= 'stimulus' src='images/baseline/autumn-in-red-rocks-park.jpg'></img></p>","null","","1550341674054","","","","","","",""
"null","","html-keyboard-response","446","1469225","0.0-8.0-0.0-2.7","18","<p><img class= 'stimulus' src='images/baseline/landscape36.jpg'></img></p>","null","","1550341674154","","","","","","",""
"null","","html-keyboard-response","447","1469326","0.0-8.0-0.0-3.7","18","<p><img class= 'stimulus' src='images/baseline/04098v.jpg'></img></p>","null","","1550341674255","","","","","","",""
"null","","html-keyboard-response","448","1469426","0.0-8.0-0.0-4.7","18","<p><img class= 'stimulus' src='images/baseline/Aletschgletscher-Eggishorn.jpg'></img></p>","null","","1550341674355","4","","","","","",""
"null","","html-keyboard-response","449","1469526","0.0-8.0-0.0-5.7","18","<p><img class= 'stimulus' src='images/baseline/04085v.jpg'></img></p>","null","","1550341674455","","","","","","",""
"null","","html-keyboard-response","450","1469625","0.0-8.0-0.0-6.7","18","<p><img class= 'stimulus' src='images/neutral/Pig 1.jpg'></img></p>","null","","1550341674555","6","","","","","",""
"null","","html-keyboard-response","451","1469725","0.0-8.0-0.0-7.7","18","<p><img class= 'stimulus' src='images/baseline/05179v.jpg'></img></p>","null","","1550341674655","","","","","","",""
"null","","html-keyboard-response","452","1469826","0.0-8.0-0.0-8.7","18","<p><img class= 'stimulus left-rotate' src='images/target/chicago-673558_640.jpg'></img></p>","null","","1550341674755","8","","","","","",""
"null","","html-keyboard-response","453","1469925","0.0-8.0-0.0-9.7","18","<p><img class= 'stimulus' src='images/baseline/vintage-art-deco-storefront.jpg'></img></p>","null","","1550341674856","","","","","","",""
"null","","html-keyboard-response","454","1470025","0.0-8.0-0.0-10.7","18","<p><img class= 'stimulus' src='images/baseline/hills 4.jpg'></img></p>","null","","1550341674954","","","","","","",""
"null","","html-keyboard-response","455","1470126","0.0-8.0-0.0-11.7","18","<p><img class= 'stimulus' src='images/baseline/Kocherbaumwald-01.jpg'></img></p>","null","","1550341675055","","","","","","",""
"null","","html-keyboard-response","456","1470226","0.0-8.0-0.0-12.7","18","<p><img class= 'stimulus' src='images/baseline/bird-flying-at-sunset.jpg'></img></p>","null","","1550341675154","12","","","","","",""
"null","","html-keyboard-response","457","1470326","0.0-8.0-0.0-13.7","18","<p><img class= 'stimulus' src='images/baseline/meadow-with-mountain-in-background.jpg'></img></p>","null","","1550341675255","","","","","","",""
"null","","html-keyboard-response","458","1470425","0.0-8.0-0.0-14.7","18","<p><img class= 'stimulus' src='images/baseline/02977v.jpg'></img></p>","null","","1550341675355","14","","","","","",""
"null","","html-keyboard-response","459","1470526","0.0-8.0-0.0-15.7","18","<p><img class= 'stimulus' src='images/baseline/pexels-photo-894312.jpeg'></img></p>","null","","1550341675455","","","","","","",""
"null","","html-keyboard-response","460","1470626","0.0-8.0-0.0-16.7","18","<p><img class= 'stimulus' src='images/baseline/agriculture-bright-clouds-440731.jpg'></img></p>","null","","1550341675555","","","","","","",""
"null","","html-keyboard-response","461","1470742","0.0-8.0-0.0-17.7","18","<p><img class= 'stimulus' src='images/baseline/foreclosed_home.jpg'></img></p>","null","","1550341675655","","","","","","",""
"953.9000000222586","","html-button-response","462","1472701","0.0-8.0-0.0-18.7","18","<div class = ""response_question"">WAS THE IMAGE ROTATED...</div>","","2","","","6","2","neu","left","test","false"
"510.30000002356246","","html-button-response","463","1473214","0.0-8.0-0.0-0.8","18","","","0","","","","","","","",""
"null","","html-keyboard-response","464","1473293","0.0-8.0-0.0-1.8","18","<p><img class= 'stimulus' src='images/baseline/building3.jpg'></img></p>","null","","1550341678222","","","","","","",""
"null","","html-keyboard-response","465","1473393","0.0-8.0-0.0-2.8","18","<p><img class= 'stimulus' src='images/baseline/Linden,_paysage.jpg'></img></p>","null","","1550341678322","","","","","","",""
"null","","html-keyboard-response","466","1473492","0.0-8.0-0.0-3.8","18","<p><img class= 'stimulus' src='images/baseline/house6.jpg'></img></p>","null","","1550341678423","","","","","","",""
"null","","html-keyboard-response","467","1473592","0.0-8.0-0.0-4.8","18","<p><img class= 'stimulus' src='images/baseline/farmhouse7.jpg'></img></p>","null","","1550341678521","4","","","","","",""
"null","","html-keyboard-response","468","1473691","0.0-8.0-0.0-5.8","18","<p><img class= 'stimulus' src='images/baseline/pexels-photo-221125.jpeg'></img></p>","null","","1550341678621","","","","","","",""
"null","","html-keyboard-response","469","1473792","0.0-8.0-0.0-6.8","18","<p><img class= 'stimulus' src='images/negative/Bloody knife 2.jpg'></img></p>","null","","1550341678720","6","","","","","",""
"null","","html-keyboard-response","470","1473893","0.0-8.0-0.0-7.8","18","<p><img class= 'stimulus' src='images/baseline/pexels-photo-427676.jpeg'></img></p>","null","","1550341678821","","","","","","",""
"null","","html-keyboard-response","471","1473993","0.0-8.0-0.0-8.8","18","<p><img class= 'stimulus' src='images/baseline/Street 4.jpg'></img></p>","null","","1550341678921","8","","","","","",""
"null","","html-keyboard-response","472","1474093","0.0-8.0-0.0-9.8","18","<p><img class= 'stimulus' src='images/baseline/pexels-photo-259280.jpeg'></img></p>","null","","1550341679022","","","","","","",""
"null","","html-keyboard-response","473","1474192","0.0-8.0-0.0-10.8","18","<p><img class= 'stimulus' src='images/baseline/Street 2.jpg'></img></p>","null","","1550341679122","","","","","","",""
"null","","html-keyboard-response","474","1474292","0.0-8.0-0.0-11.8","18","<p><img class= 'stimulus' src='images/baseline/lake3.jpg'></img></p>","null","","1550341679222","","","","","","",""
"null","","html-keyboard-response","475","1474393","0.0-8.0-0.0-12.8","18","<p><img class= 'stimulus' src='images/baseline/agriculture-cereal-clouds-175389.jpg'></img></p>","null","","1550341679322","12","","","","","",""
"null","","html-keyboard-response","476","1474492","0.0-8.0-0.0-13.8","18","<p><img class= 'stimulus' src='images/baseline/sun-through-winter-tree-branches1.jpg'></img></p>","null","","1550341679422","","","","","","",""
"null","","html-keyboard-response","477","1474591","0.0-8.0-0.0-14.8","18","<p><img class= 'stimulus left-rotate' src='images/target/skyscraper-3855012_640.jpg'></img></p>","null","","1550341679522","14","","","","","",""
"null","","html-keyboard-response","478","1474691","0.0-8.0-0.0-15.8","18","<p><img class= 'stimulus' src='images/baseline/99_-_Machu_Picchu_-_Juin_2009.edit3.jpg'></img></p>","null","","1550341679621","","","","","","",""
"null","","html-keyboard-response","479","1474792","0.0-8.0-0.0-16.8","18","<p><img class= 'stimulus' src='images/baseline/03204v.jpg'></img></p>","null","","1550341679721","","","","","","",""
"null","","html-keyboard-response","480","1474909","0.0-8.0-0.0-17.8","18","<p><img class= 'stimulus' src='images/baseline/Beach 2.jpg'></img></p>","null","","1550341679822","","","","","","",""
"487.10000002756715","","html-button-response","481","1476413","0.0-8.0-0.0-18.8","18","<div class = ""response_question"">WAS THE IMAGE ROTATED...</div>","","0","","","6","8","neg","left","test","true"
"574.300000036601","","html-button-response","482","1476990","0.0-8.0-0.0-0.9","18","","","0","","","","","","","",""
"null","","html-keyboard-response","483","1477076","0.0-8.0-0.0-1.9","18","<p><img class= 'stimulus' src='images/baseline/05139v.jpg'></img></p>","null","","1550341682005","","","","","","",""
"null","","html-keyboard-response","484","1477175","0.0-8.0-0.0-2.9","18","<p><img class= 'stimulus' src='images/baseline/farmhouse2.jpg'></img></p>","null","","1550341682105","","","","","","",""
"null","","html-keyboard-response","485","1477275","0.0-8.0-0.0-3.9","18","<p><img class= 'stimulus' src='images/baseline/Bahia_Onelli_Parque_Nacional_Los_Glaciares_Patagonia_Argentina_Luca_Galuzzi_2005.jpg'></img></p>","null","","1550341682204","","","","","","",""
"null","","html-keyboard-response","486","1477375","0.0-8.0-0.0-4.9","18","<p><img class= 'stimulus' src='images/baseline/Beach 3.jpg'></img></p>","null","","1550341682305","4","","","","","",""
"null","","html-keyboard-response","487","1477476","0.0-8.0-0.0-5.9","18","<p><img class= 'stimulus' src='images/baseline/landscape31.jpg'></img></p>","null","","1550341682405","","","","","","",""
"null","","html-keyboard-response","488","1477575","0.0-8.0-0.0-6.9","18","<p><img class= 'stimulus' src='images/baseline/4k-wallpaper-agriculture-clouds-842711.jpg'></img></p>","null","","1550341682505","6","","","","","",""
"null","","html-keyboard-response","489","1477676","0.0-8.0-0.0-7.9","18","<p><img class= 'stimulus' src='images/baseline/architecture-956332_1280.jpg'></img></p>","null","","1550341682605","","","","","","",""
"null","","html-keyboard-response","490","1477775","0.0-8.0-0.0-8.9","18","<p><img class= 'stimulus' src='images/target/lone-tree.png'></img></p>","null","","1550341682705","8","","","","","",""
"null","","html-keyboard-response","491","1477876","0.0-8.0-0.0-9.9","18","<p><img class= 'stimulus' src='images/baseline/05280v.jpg'></img></p>","null","","1550341682804","","","","","","",""
"null","","html-keyboard-response","492","1477975","0.0-8.0-0.0-10.9","18","<p><img class= 'stimulus' src='images/baseline/geese-flying-over-lake-at-dusk.jpg'></img></p>","null","","1550341682906","","","","","","",""
"null","","html-keyboard-response","493","1478075","0.0-8.0-0.0-11.9","18","<p><img class= 'stimulus' src='images/baseline/05242v.jpg'></img></p>","null","","1550341683005","","","","","","",""
"null","","html-keyboard-response","494","1478176","0.0-8.0-0.0-12.9","18","<p><img class= 'stimulus' src='images/baseline/landscape16.jpg'></img></p>","null","","1550341683106","12","","","","","",""
"null","","html-keyboard-response","495","1478276","0.0-8.0-0.0-13.9","18","<p><img class= 'stimulus' src='images/baseline/building_at_national_conservation.jpg'></img></p>","null","","1550341683204","","","","","","",""
"null","","html-keyboard-response","496","1478376","0.0-8.0-0.0-14.9","18","<p><img class= 'stimulus' src='images/baseline/04196v.jpg'></img></p>","null","","1550341683305","14","","","","","",""
"null","","html-keyboard-response","497","1478475","0.0-8.0-0.0-15.9","18","<p><img class= 'stimulus' src='images/baseline/pexels-photo-1261728.jpeg'></img></p>","null","","1550341683404","","","","","","",""
"null","","html-keyboard-response","498","1478576","0.0-8.0-0.0-16.9","18","<p><img class= 'stimulus' src='images/baseline/farmhouse3.jpg'></img></p>","null","","1550341683505","","","","","","",""
"null","","html-keyboard-response","499","1478692","0.0-8.0-0.0-17.9","18","<p><img class= 'stimulus' src='images/baseline/Lake 13.jpg'></img></p>","null","","1550341683605","","","","","","",""
"566.2000000011176","","html-button-response","500","1480262","0.0-8.0-0.0-18.9","18","<div class = ""response_question"">WAS THE IMAGE ROTATED...</div>","","4","","","6","2","bas","right","test","true"
"654.3999999994412","","html-button-response","501","1480918","0.0-8.0-0.0-0.10","18","","","0","","","","","","","",""
"null","","html-keyboard-response","502","1480991","0.0-8.0-0.0-1.10","18","<p><img class= 'stimulus' src='images/baseline/04014v.jpg'></img></p>","null","","1550341685921","","","","","","",""
"null","","html-keyboard-response","503","1481092","0.0-8.0-0.0-2.10","18","<p><img class= 'stimulus' src='images/baseline/scenic-mountain-landscape.jpg'></img></p>","null","","1550341686022","","","","","","",""
"null","","html-keyboard-response","504","1481192","0.0-8.0-0.0-3.10","18","<p><img class= 'stimulus' src='images/baseline/Lake 15.jpg'></img></p>","null","","1550341686122","","","","","","",""
"null","","html-keyboard-response","505","1481292","0.0-8.0-0.0-4.10","18","<p><img class= 'stimulus' src='images/baseline/building6.jpg'></img></p>","null","","1550341686222","4","","","","","",""
"null","","html-keyboard-response","506","1481392","0.0-8.0-0.0-5.10","18","<p><img class= 'stimulus' src='images/baseline/03063v.jpg'></img></p>","null","","1550341686321","","","","","","",""
