"rt","responses","trial_type","trial_index","time_elapsed","internal_node_id","participant_id","stimulus","key_press","button_pressed","stim_onset","sequence_position","distractor_position","target_lag","distractor_type","target_orientation","phase","correct"
"10920.6000000122","{""Q0"":""43""}","survey-text","0","10924","0.0-0.0","43","","","","","","","","","","",""
"1895466.5999999852","","html-keyboard-response","1","1906391","0.0-1.0","43","Welcome to the experiment.","67","","","","","","","","",""
"18434.399999998277","","html-button-response","2","1924839","0.0-2.0","43","<p>Several images will be presented sequentially.        Each image will only be on the screen for about 100 milliseconds.</p>        <p> One of the images may be rotated 90 degrees right or left.        Watch for this image and remember if it is rotated right or left.</p>               <p>Images of people and animals will appear, and sometimes they will be unpleasant.        These will never be the rotated target image.</p>","","0","","","","","","","",""
"2830.099999991944","","html-button-response","3","1927670","0.0-3.0","43","<p><img class=""stimulus left-rotate"" src=""images/target/cactus1.jpg""></img></p><p>This is an example of an image rotated to the left.</p>","","0","","","","","","","",""
"1854.800000000978","","html-button-response","4","1929526","0.0-4.0","43","<p><img class=""stimulus"" src=""images/target/palm-trees-1209125_640.jpg""></img></p><p>This is an example of an image rotated to the right.</p>","","0","","","","","","","",""
"6247.1999999834225","","html-button-response","5","1935774","0.0-5.0","43","<p>We will now begin a short practice session.</p>         <p>A + symbol will appear in the middle of the screen. Please fix your gaze on the center of the +, and then click the mouse button to begin the image sequence.</p>         <p>Please avoid blinking or eye movements while the images are on the screen.</p>        <p>The image sequence will start relatively slow. After a few sequences, it will speed up.</p>","","0","","","","","","","",""
"2710.5999999912456","","html-button-response","6","1938487","0.0-6.0-0.0","43","","","0","","","","","","","",""
"null","","html-keyboard-response","7","1938673","0.0-6.0-1.0","43","<p><img class= 'stimulus' src='images/baseline/lake 2.jpg'></img></p>","null","","1551288017029","","","","","","",""
"null","","html-keyboard-response","8","1938873","0.0-6.0-2.0","43","<p><img class= 'stimulus' src='images/baseline/river 1.jpg'></img></p>","null","","1551288017229","","","","","","",""
"null","","html-keyboard-response","9","1939073","0.0-6.0-3.0","43","<p><img class= 'stimulus' src='images/baseline/landscape31.jpg'></img></p>","null","","1551288017430","","","","","","",""
"null","","html-keyboard-response","10","1939272","0.0-6.0-4.0","43","<p><img class= 'stimulus' src='images/baseline/autumn-landscape-with-lake-fall-trees-mountains.jpg'></img></p>","null","","1551288017630","4","","","","","",""
"null","","html-keyboard-response","11","1939472","0.0-6.0-5.0","43","<p><img class= 'stimulus' src='images/baseline/Dock 1.jpg'></img></p>","null","","1551288017831","","","","","","",""
"null","","html-keyboard-response","12","1939672","0.0-6.0-6.0","43","<p><img class= 'stimulus' src='images/target/tree1.jpg'></img></p>","null","","1551288018030","6","","","","","",""
"null","","html-keyboard-response","13","1939873","0.0-6.0-7.0","43","<p><img class= 'stimulus' src='images/baseline/05186v.jpg'></img></p>","null","","1551288018229","","","","","","",""
"null","","html-keyboard-response","14","1940074","0.0-6.0-8.0","43","<p><img class= 'stimulus' src='images/baseline/flooded-bridge.jpg'></img></p>","null","","1551288018429","8","","","","","",""
"null","","html-keyboard-response","15","1940272","0.0-6.0-9.0","43","<p><img class= 'stimulus' src='images/baseline/horse_statue.jpg'></img></p>","null","","1551288018630","","","","","","",""
"null","","html-keyboard-response","16","1940472","0.0-6.0-10.0","43","<p><img class= 'stimulus' src='images/baseline/agriculture-cereal-clouds-175389.jpg'></img></p>","null","","1551288018831","","","","","","",""
"null","","html-keyboard-response","17","1940672","0.0-6.0-11.0","43","<p><img class= 'stimulus' src='images/baseline/house11.jpg'></img></p>","null","","1551288019029","","","","","","",""
"null","","html-keyboard-response","18","1940872","0.0-6.0-12.0","43","<p><img class= 'stimulus' src='images/baseline/farmhouse11.jpg'></img></p>","null","","1551288019230","12","","","","","",""
"null","","html-keyboard-response","19","1941073","0.0-6.0-13.0","43","<p><img class= 'stimulus' src='images/baseline/Road 1.jpg'></img></p>","null","","1551288019430","","","","","","",""
"null","","html-keyboard-response","20","1941272","0.0-6.0-14.0","43","<p><img class= 'stimulus' src='images/baseline/landscape23.jpg'></img></p>","null","","1551288019630","14","","","","","",""
"null","","html-keyboard-response","21","1941472","0.0-6.0-15.0","43","<p><img class= 'stimulus' src='images/baseline/field 4.jpg'></img></p>","null","","1551288019831","","","","","","",""
"null","","html-keyboard-response","22","1941673","0.0-6.0-16.0","43","<p><img class= 'stimulus' src='images/baseline/Beach 3.jpg'></img></p>","null","","1551288020030","","","","","","",""
"null","","html-keyboard-response","23","1941889","0.0-6.0-17.0","43","<p><img class= 'stimulus' src='images/baseline/05139v.jpg'></img></p>","null","","1551288020230","","","","","","",""
"8119.200000015553","","html-button-response","24","1951015","0.0-6.0-18.0","43","<div class = ""response_question"">WAS THE IMAGE ROTATED...</div>","","3","","","4","2","bas","right","practice","true"
"2477.7999999932945","","html-button-response","25","1953494","0.0-6.0-0.1","43","","","0","","","","","","","",""
"null","","html-keyboard-response","26","1953673","0.0-6.0-1.1","43","<p><img class= 'stimulus' src='images/baseline/agriculture-bright-clouds-440731.jpg'></img></p>","null","","1551288032031","","","","","","",""
"null","","html-keyboard-response","27","1953874","0.0-6.0-2.1","43","<p><img class= 'stimulus' src='images/baseline/05158v.jpg'></img></p>","null","","1551288032232","","","","","","",""
"null","","html-keyboard-response","28","1954074","0.0-6.0-3.1","43","<p><img class= 'stimulus' src='images/baseline/Freudenberg_sg_Switzerland.jpg'></img></p>","null","","1551288032430","","","","","","",""
"null","","html-keyboard-response","29","1954274","0.0-6.0-4.1","43","<p><img class= 'stimulus' src='images/baseline/pexels-photo-351264.jpeg'></img></p>","null","","1551288032631","4","","","","","",""
"null","","html-keyboard-response","30","1954475","0.0-6.0-5.1","43","<p><img class= 'stimulus' src='images/baseline/pexels-photo-414491.jpeg'></img></p>","null","","1551288032832","","","","","","",""
"null","","html-keyboard-response","31","1954673","0.0-6.0-6.1","43","<p><img class= 'stimulus' src='images/baseline/pexels-photo-894312.jpeg'></img></p>","null","","1551288033032","6","","","","","",""
"null","","html-keyboard-response","32","1954874","0.0-6.0-7.1","43","<p><img class= 'stimulus' src='images/baseline/sunny-landscape-with-dry-brush-and-mountain-background.jpg'></img></p>","null","","1551288033232","","","","","","",""
"null","","html-keyboard-response","33","1955073","0.0-6.0-8.1","43","<p><img class= 'stimulus' src='images/baseline/hiking-trail.jpg'></img></p>","null","","1551288033431","8","","","","","",""
"null","","html-keyboard-response","34","1955274","0.0-6.0-9.1","43","<p><img class= 'stimulus' src='images/baseline/05179v.jpg'></img></p>","null","","1551288033631","","","","","","",""
"null","","html-keyboard-response","35","1955475","0.0-6.0-10.1","43","<p><img class= 'stimulus' src='images/baseline/04162v.jpg'></img></p>","null","","1551288033831","","","","","","",""
"null","","html-keyboard-response","36","1955675","0.0-6.0-11.1","43","<p><img class= 'stimulus' src='images/baseline/Sunset 3.jpg'></img></p>","null","","1551288034032","","","","","","",""
"null","","html-keyboard-response","37","1955875","0.0-6.0-12.1","43","<p><img class= 'stimulus left-rotate' src='images/target/Tree-Landscape-Winter-Nature-Winter-Trees-Snow-2117951.jpg'></img></p>","null","","1551288034232","12","","","","","",""
"null","","html-keyboard-response","38","1956075","0.0-6.0-13.1","43","<p><img class= 'stimulus' src='images/baseline/Peyto_Lake-Banff_NP-Canada.jpg'></img></p>","null","","1551288034433","","","","","","",""
"null","","html-keyboard-response","39","1956274","0.0-6.0-14.1","43","<p><img class= 'stimulus' src='images/baseline/Sailing 3.jpg'></img></p>","null","","1551288034632","14","","","","","",""
"null","","html-keyboard-response","40","1956475","0.0-6.0-15.1","43","<p><img class= 'stimulus' src='images/baseline/kokkari-1523011968Xfr.jpg'></img></p>","null","","1551288034832","","","","","","",""
"null","","html-keyboard-response","41","1956675","0.0-6.0-16.1","43","<p><img class= 'stimulus' src='images/baseline/house3.jpg'></img></p>","null","","1551288035032","","","","","","",""
"null","","html-keyboard-response","42","1956892","0.0-6.0-17.1","43","<p><img class= 'stimulus' src='images/baseline/Street 3.jpg'></img></p>","null","","1551288035233","","","","","","",""
"1654.500000004191","","html-button-response","43","1959550","0.0-6.0-18.1","43","<div class = ""response_question"">WAS THE IMAGE ROTATED...</div>","","0","","","4","8","bas","left","practice","true"
"2398.400000005495","","html-button-response","44","1961950","0.0-6.0-0.2","43","","","0","","","","","","","",""
"null","","html-keyboard-response","45","1962124","0.0-6.0-1.2","43","<p><img class= 'stimulus' src='images/baseline/pexels-photo-1261728.jpeg'></img></p>","null","","1551288040481","","","","","","",""
"null","","html-keyboard-response","46","1962324","0.0-6.0-2.2","43","<p><img class= 'stimulus' src='images/baseline/02988v.jpg'></img></p>","null","","1551288040681","","","","","","",""
"null","","html-keyboard-response","47","1962525","0.0-6.0-3.2","43","<p><img class= 'stimulus' src='images/baseline/05189v.jpg'></img></p>","null","","1551288040882","","","","","","",""
"null","","html-keyboard-response","48","1962724","0.0-6.0-4.2","43","<p><img class= 'stimulus' src='images/baseline/pexels-photo-427676.jpeg'></img></p>","null","","1551288041083","4","","","","","",""
"null","","html-keyboard-response","49","1962924","0.0-6.0-5.2","43","<p><img class= 'stimulus' src='images/baseline/red-rocks-park.jpg'></img></p>","null","","1551288041283","","","","","","",""
"null","","html-keyboard-response","50","1963124","0.0-6.0-6.2","43","<p><img class= 'stimulus' src='images/baseline/architecture-956332_1280.jpg'></img></p>","null","","1551288041482","6","","","","","",""
"null","","html-keyboard-response","51","1963325","0.0-6.0-7.2","43","<p><img class= 'stimulus' src='images/baseline/farmhouse6.jpg'></img></p>","null","","1551288041682","","","","","","",""
"null","","html-keyboard-response","52","1963525","0.0-6.0-8.2","43","<p><img class= 'stimulus' src='images/target/tree-740901_1280.jpg'></img></p>","null","","1551288041882","8","","","","","",""
"null","","html-keyboard-response","53","1963726","0.0-6.0-9.2","43","<p><img class= 'stimulus' src='images/baseline/04085v.jpg'></img></p>","null","","1551288042082","","","","","","",""
"null","","html-keyboard-response","54","1963925","0.0-6.0-10.2","43","<p><img class= 'stimulus' src='images/baseline/04193v.jpg'></img></p>","null","","1551288042283","","","","","","",""
"null","","html-keyboard-response","55","1964125","0.0-6.0-11.2","43","<p><img class= 'stimulus' src='images/baseline/03041v.jpg'></img></p>","null","","1551288042484","","","","","","",""
"null","","html-keyboard-response","56","1964326","0.0-6.0-12.2","43","<p><img class= 'stimulus' src='images/baseline/03148v.jpg'></img></p>","null","","1551288042683","12","","","","","",""
"null","","html-keyboard-response","57","1964525","0.0-6.0-13.2","43","<p><img class= 'stimulus' src='images/baseline/Cold 7.jpg'></img></p>","null","","1551288042882","","","","","","",""
"null","","html-keyboard-response","58","1964726","0.0-6.0-14.2","43","<p><img class= 'stimulus' src='images/baseline/Kocherbaumwald-01.jpg'></img></p>","null","","1551288043083","14","","","","","",""
"null","","html-keyboard-response","59","1964925","0.0-6.0-15.2","43","<p><img class= 'stimulus' src='images/baseline/03112v.jpg'></img></p>","null","","1551288043284","","","","","","",""
"null","","html-keyboard-response","60","1965126","0.0-6.0-16.2","43","<p><img class= 'stimulus' src='images/baseline/building6.jpg'></img></p>","null","","1551288043483","","","","","","",""
"null","","html-keyboard-response","61","1965342","0.0-6.0-17.2","43","<p><img class= 'stimulus' src='images/baseline/autumn-in-red-rocks-park.jpg'></img></p>","null","","1551288043682","","","","","","",""
"1046.1000000068452","","html-button-response","62","1967406","0.0-6.0-18.2","43","<div class = ""response_question"">WAS THE IMAGE ROTATED...</div>","","3","","","6","2","bas","right","practice","true"
"1829.9999999871943","","html-button-response","63","1969238","0.0-6.0-0.3","43","","","0","","","","","","","",""
"null","","html-keyboard-response","64","1969423","0.0-6.0-1.3","43","<p><img class= 'stimulus' src='images/baseline/Sky 1.jpg'></img></p>","null","","1551288047781","","","","","","",""
"null","","html-keyboard-response","65","1969624","0.0-6.0-2.3","43","<p><img class= 'stimulus' src='images/baseline/Aletschgletscher-Eggishorn.jpg'></img></p>","null","","1551288047981","","","","","","",""
"null","","html-keyboard-response","66","1969824","0.0-6.0-3.3","43","<p><img class= 'stimulus' src='images/baseline/scenic-mountain-landscape.jpg'></img></p>","null","","1551288048182","","","","","","",""
"null","","html-keyboard-response","67","1970024","0.0-6.0-4.3","43","<p><img class= 'stimulus' src='images/baseline/03063v.jpg'></img></p>","null","","1551288048381","4","","","","","",""
"null","","html-keyboard-response","68","1970224","0.0-6.0-5.3","43","<p><img class= 'stimulus' src='images/baseline/pexels-photo-534164.jpeg'></img></p>","null","","1551288048581","","","","","","",""
"null","","html-keyboard-response","69","1970424","0.0-6.0-6.3","43","<p><img class= 'stimulus' src='images/baseline/Desert_View_Indian_Wells.jpg'></img></p>","null","","1551288048782","6","","","","","",""
"null","","html-keyboard-response","70","1970627","0.0-6.0-7.3","43","<p><img class= 'stimulus' src='images/baseline/farmhouse7.jpg'></img></p>","null","","1551288048983","","","","","","",""
"null","","html-keyboard-response","71","1970824","0.0-6.0-8.3","43","<p><img class= 'stimulus left-rotate' src='images/target/palm-trees-1209125_640.jpg'></img></p>","null","","1551288049183","8","","","","","",""
"null","","html-keyboard-response","72","1971025","0.0-6.0-9.3","43","<p><img class= 'stimulus' src='images/baseline/landscape39.jpg'></img></p>","null","","1551288049382","","","","","","",""
"null","","html-keyboard-response","73","1971226","0.0-6.0-10.3","43","<p><img class= 'stimulus' src='images/baseline/architecture-1314416_1920.jpg'></img></p>","null","","1551288049582","","","","","","",""
"null","","html-keyboard-response","74","1971424","0.0-6.0-11.3","43","<p><img class= 'stimulus' src='images/baseline/hills 4.jpg'></img></p>","null","","1551288049782","","","","","","",""
"null","","html-keyboard-response","75","1971624","0.0-6.0-12.3","43","<p><img class= 'stimulus' src='images/baseline/Lake 14.jpg'></img></p>","null","","1551288049981","12","","","","","",""
"null","","html-keyboard-response","76","1971824","0.0-6.0-13.3","43","<p><img class= 'stimulus' src='images/baseline/lookout_tower.jpg'></img></p>","null","","1551288050182","","","","","","",""
"null","","html-keyboard-response","77","1972025","0.0-6.0-14.3","43","<p><img class= 'stimulus' src='images/baseline/empire-state-building.jpg'></img></p>","null","","1551288050382","14","","","","","",""
"null","","html-keyboard-response","78","1972226","0.0-6.0-15.3","43","<p><img class= 'stimulus' src='images/baseline/farmhouse8.jpg'></img></p>","null","","1551288050582","","","","","","",""
"null","","html-keyboard-response","79","1972424","0.0-6.0-16.3","43","<p><img class= 'stimulus' src='images/baseline/building3.jpg'></img></p>","null","","1551288050783","","","","","","",""
"null","","html-keyboard-response","80","1972641","0.0-6.0-17.3","43","<p><img class= 'stimulus' src='images/baseline/lone-old-cottonwood-tree.jpg'></img></p>","null","","1551288050981","","","","","","",""
"754.3000000005122","","html-button-response","81","1974399","0.0-6.0-18.3","43","<div class = ""response_question"">WAS THE IMAGE ROTATED...</div>","","0","","","6","2","bas","left","practice","true"
"1310.6000000261702","","html-button-response","82","1975710","0.0-6.0-0.4","43","","","0","","","","","","","",""
"null","","html-keyboard-response","83","1975841","0.0-6.0-1.4","43","<p><img class= 'stimulus' src='images/baseline/Niinsaare_jarv.jpg'></img></p>","null","","1551288054248","","","","","","",""
"null","","html-keyboard-response","84","1975990","0.0-6.0-2.4","43","<p><img class= 'stimulus' src='images/baseline/landscape6.jpg'></img></p>","null","","1551288054398","","","","","","",""
"null","","html-keyboard-response","85","1976140","0.0-6.0-3.4","43","<p><img class= 'stimulus' src='images/baseline/Nature 2.jpg'></img></p>","null","","1551288054548","","","","","","",""
"null","","html-keyboard-response","86","1976290","0.0-6.0-4.4","43","<p><img class= 'stimulus' src='images/baseline/Dirt 2.jpg'></img></p>","null","","1551288054698","4","","","","","",""
"null","","html-keyboard-response","87","1976440","0.0-6.0-5.4","43","<p><img class= 'stimulus' src='images/baseline/05292v.jpg'></img></p>","null","","1551288054848","","","","","","",""
"null","","html-keyboard-response","88","1976590","0.0-6.0-6.4","43","<p><img class= 'stimulus' src='images/baseline/landscape33.jpg'></img></p>","null","","1551288054997","6","","","","","",""
"null","","html-keyboard-response","89","1976741","0.0-6.0-7.4","43","<p><img class= 'stimulus' src='images/baseline/pexels-photo-568236.jpeg'></img></p>","null","","1551288055147","","","","","","",""
"null","","html-keyboard-response","90","1976891","0.0-6.0-8.4","43","<p><img class= 'stimulus' src='images/baseline/Sunset 4.jpg'></img></p>","null","","1551288055297","8","","","","","",""
"null","","html-keyboard-response","91","1977040","0.0-6.0-9.4","43","<p><img class= 'stimulus' src='images/baseline/Sunset 6.jpg'></img></p>","null","","1551288055447","","","","","","",""
"null","","html-keyboard-response","92","1977190","0.0-6.0-10.4","43","<p><img class= 'stimulus' src='images/baseline/Lake 13.jpg'></img></p>","null","","1551288055598","","","","","","",""
"null","","html-keyboard-response","93","1977340","0.0-6.0-11.4","43","<p><img class= 'stimulus' src='images/baseline/pexels-photo-59321.jpeg'></img></p>","null","","1551288055747","","","","","","",""
"null","","html-keyboard-response","94","1977490","0.0-6.0-12.4","43","<p><img class= 'stimulus' src='images/target/tree spring.jpeg'></img></p>","null","","1551288055897","12","","","","","",""
"null","","html-keyboard-response","95","1977640","0.0-6.0-13.4","43","<p><img class= 'stimulus' src='images/baseline/03212v.jpg'></img></p>","null","","1551288056047","","","","","","",""
"null","","html-keyboard-response","96","1977789","0.0-6.0-14.4","43","<p><img class= 'stimulus' src='images/baseline/04014v.jpg'></img></p>","null","","1551288056197","14","","","","","",""
"null","","html-keyboard-response","97","1977939","0.0-6.0-15.4","43","<p><img class= 'stimulus' src='images/baseline/04040v.jpg'></img></p>","null","","1551288056347","","","","","","",""
"null","","html-keyboard-response","98","1978089","0.0-6.0-16.4","43","<p><img class= 'stimulus' src='images/baseline/Sunset 5.jpg'></img></p>","null","","1551288056498","","","","","","",""
"null","","html-keyboard-response","99","1978256","0.0-6.0-17.4","43","<p><img class= 'stimulus' src='images/baseline/landscape29.jpg'></img></p>","null","","1551288056647","","","","","","",""
"1337.4999999941792","","html-button-response","100","1980598","0.0-6.0-18.4","43","<div class = ""response_question"">WAS THE IMAGE ROTATED...</div>","","3","","","4","8","bas","right","practice","true"
"902.3999999917578","","html-button-response","101","1981502","0.0-6.0-0.5","43","","","0","","","","","","","",""
"null","","html-keyboard-response","102","1981640","0.0-6.0-1.5","43","<p><img class= 'stimulus' src='images/baseline/02962v.jpg'></img></p>","null","","1551288060047","","","","","","",""
"null","","html-keyboard-response","103","1981790","0.0-6.0-2.5","43","<p><img class= 'stimulus' src='images/baseline/04031v.jpg'></img></p>","null","","1551288060197","","","","","","",""
"null","","html-keyboard-response","104","1981940","0.0-6.0-3.5","43","<p><img class= 'stimulus' src='images/baseline/Street 1.jpg'></img></p>","null","","1551288060347","","","","","","",""
"null","","html-keyboard-response","105","1982090","0.0-6.0-4.5","43","<p><img class= 'stimulus' src='images/baseline/04063v.jpg'></img></p>","null","","1551288060497","4","","","","","",""
"null","","html-keyboard-response","106","1982240","0.0-6.0-5.5","43","<p><img class= 'stimulus' src='images/baseline/pexels-photo-459203.jpeg'></img></p>","null","","1551288060648","","","","","","",""
"null","","html-keyboard-response","107","1982390","0.0-6.0-6.5","43","<p><img class= 'stimulus left-rotate' src='images/target/pexels-photo-602607.jpeg'></img></p>","null","","1551288060799","6","","","","","",""
"null","","html-keyboard-response","108","1982539","0.0-6.0-7.5","43","<p><img class= 'stimulus' src='images/baseline/pexels-photo-210617.jpeg'></img></p>","null","","1551288060948","","","","","","",""
"null","","html-keyboard-response","109","1982690","0.0-6.0-8.5","43","<p><img class= 'stimulus' src='images/baseline/pexels-photo-440731.jpeg'></img></p>","null","","1551288061098","8","","","","","",""
"null","","html-keyboard-response","110","1982840","0.0-6.0-9.5","43","<p><img class= 'stimulus' src='images/baseline/02945v.jpg'></img></p>","null","","1551288061247","","","","","","",""
"null","","html-keyboard-response","111","1982990","0.0-6.0-10.5","43","<p><img class= 'stimulus' src='images/baseline/03220v.jpg'></img></p>","null","","1551288061398","","","","","","",""
"null","","html-keyboard-response","112","1983141","0.0-6.0-11.5","43","<p><img class= 'stimulus' src='images/baseline/04158v.jpg'></img></p>","null","","1551288061548","","","","","","",""
"null","","html-keyboard-response","113","1983290","0.0-6.0-12.5","43","<p><img class= 'stimulus' src='images/baseline/Lake 9.jpg'></img></p>","null","","1551288061698","12","","","","","",""
"null","","html-keyboard-response","114","1983440","0.0-6.0-13.5","43","<p><img class= 'stimulus' src='images/baseline/05252v.jpg'></img></p>","null","","1551288061847","","","","","","",""
"null","","html-keyboard-response","115","1983589","0.0-6.0-14.5","43","<p><img class= 'stimulus' src='images/baseline/04300v.jpg'></img></p>","null","","1551288061998","14","","","","","",""
"null","","html-keyboard-response","116","1983740","0.0-6.0-15.5","43","<p><img class= 'stimulus' src='images/baseline/03114v.jpg'></img></p>","null","","1551288062147","","","","","","",""
"null","","html-keyboard-response","117","1983890","0.0-6.0-16.5","43","<p><img class= 'stimulus' src='images/baseline/03066v.jpg'></img></p>","null","","1551288062297","","","","","","",""
"null","","html-keyboard-response","118","1984057","0.0-6.0-17.5","43","<p><img class= 'stimulus' src='images/baseline/03162v.jpg'></img></p>","null","","1551288062448","","","","","","",""
"681.799999991199","","html-button-response","119","1985743","0.0-6.0-18.5","43","<div class = ""response_question"">WAS THE IMAGE ROTATED...</div>","","0","","","4","2","bas","left","practice","true"
"2110.6000000145286","","html-button-response","120","1987855","0.0-6.0-0.6","43","","","0","","","","","","","",""
"null","","html-keyboard-response","121","1987990","0.0-6.0-1.6","43","<p><img class= 'stimulus' src='images/baseline/landscape38.jpg'></img></p>","null","","1551288066398","","","","","","",""
"null","","html-keyboard-response","122","1988141","0.0-6.0-2.6","43","<p><img class= 'stimulus' src='images/baseline/Waterfall 1.jpg'></img></p>","null","","1551288066548","","","","","","",""
"null","","html-keyboard-response","123","1988291","0.0-6.0-3.6","43","<p><img class= 'stimulus' src='images/baseline/valley 1.jpg'></img></p>","null","","1551288066698","","","","","","",""
"null","","html-keyboard-response","124","1988440","0.0-6.0-4.6","43","<p><img class= 'stimulus' src='images/baseline/Nature 1.jpg'></img></p>","null","","1551288066848","4","","","","","",""
"null","","html-keyboard-response","125","1988589","0.0-6.0-5.6","43","<p><img class= 'stimulus' src='images/baseline/Skyscraper 1.jpg'></img></p>","null","","1551288066998","","","","","","",""
"null","","html-keyboard-response","126","1988740","0.0-6.0-6.6","43","<p><img class= 'stimulus' src='images/baseline/hills 1.jpg'></img></p>","null","","1551288067147","6","","","","","",""
"null","","html-keyboard-response","127","1988890","0.0-6.0-7.6","43","<p><img class= 'stimulus' src='images/baseline/pexels-photo-1840893.jpeg'></img></p>","null","","1551288067297","","","","","","",""
"null","","html-keyboard-response","128","1989040","0.0-6.0-8.6","43","<p><img class= 'stimulus' src='images/baseline/seoul-410266_1920.jpg'></img></p>","null","","1551288067447","8","","","","","",""
"null","","html-keyboard-response","129","1989190","0.0-6.0-9.6","43","<p><img class= 'stimulus' src='images/baseline/04196v.jpg'></img></p>","null","","1551288067597","","","","","","",""
"null","","html-keyboard-response","130","1989341","0.0-6.0-10.6","43","<p><img class= 'stimulus' src='images/baseline/hills 3.jpg'></img></p>","null","","1551288067748","","","","","","",""
"null","","html-keyboard-response","131","1989490","0.0-6.0-11.6","43","<p><img class= 'stimulus' src='images/baseline/05242v.jpg'></img></p>","null","","1551288067898","","","","","","",""
"null","","html-keyboard-response","132","1989640","0.0-6.0-12.6","43","<p><img class= 'stimulus' src='images/baseline/house10.jpg'></img></p>","null","","1551288068048","12","","","","","",""
"null","","html-keyboard-response","133","1989790","0.0-6.0-13.6","43","<p><img class= 'stimulus' src='images/baseline/05167v.jpg'></img></p>","null","","1551288068199","","","","","","",""
"null","","html-keyboard-response","134","1989940","0.0-6.0-14.6","43","<p><img class= 'stimulus' src='images/target/house-estate-1100x733.jpg'></img></p>","null","","1551288068347","14","","","","","",""
"null","","html-keyboard-response","135","1990090","0.0-6.0-15.6","43","<p><img class= 'stimulus' src='images/baseline/landscape16.jpg'></img></p>","null","","1551288068498","","","","","","",""
"null","","html-keyboard-response","136","1990240","0.0-6.0-16.6","43","<p><img class= 'stimulus' src='images/baseline/Lake 15.jpg'></img></p>","null","","1551288068648","","","","","","",""
"null","","html-keyboard-response","137","1990407","0.0-6.0-17.6","43","<p><img class= 'stimulus' src='images/baseline/Lake 16.jpg'></img></p>","null","","1551288068798","","","","","","",""
"796.200000011595","","html-button-response","138","1992208","0.0-6.0-18.6","43","<div class = ""response_question"">WAS THE IMAGE ROTATED...</div>","","3","","","6","8","bas","right","practice","true"
"1110.1999999955297","","html-button-response","139","1993318","0.0-6.0-0.7","43","","","0","","","","","","","",""
"null","","html-keyboard-response","140","1993457","0.0-6.0-1.7","43","<p><img class= 'stimulus' src='images/baseline/05131v.jpg'></img></p>","null","","1551288071864","","","","","","",""
"null","","html-keyboard-response","141","1993606","0.0-6.0-2.7","43","<p><img class= 'stimulus' src='images/baseline/farmhouse4.jpg'></img></p>","null","","1551288072015","","","","","","",""
"null","","html-keyboard-response","142","1993757","0.0-6.0-3.7","43","<p><img class= 'stimulus' src='images/baseline/lake 1.jpg'></img></p>","null","","1551288072165","","","","","","",""
"null","","html-keyboard-response","143","1993906","0.0-6.0-4.7","43","<p><img class= 'stimulus' src='images/baseline/Path 1.jpg'></img></p>","null","","1551288072314","4","","","","","",""
"null","","html-keyboard-response","144","1994056","0.0-6.0-5.7","43","<p><img class= 'stimulus' src='images/baseline/Lake 4.jpg'></img></p>","null","","1551288072463","","","","","","",""
"null","","html-keyboard-response","145","1994207","0.0-6.0-6.7","43","<p><img class= 'stimulus' src='images/baseline/house6.jpg'></img></p>","null","","1551288072614","6","","","","","",""
"null","","html-keyboard-response","146","1994357","0.0-6.0-7.7","43","<p><img class= 'stimulus' src='images/baseline/03201v.jpg'></img></p>","null","","1551288072765","","","","","","",""
"null","","html-keyboard-response","147","1994506","0.0-6.0-8.7","43","<p><img class= 'stimulus' src='images/baseline/04098v.jpg'></img></p>","null","","1551288072914","8","","","","","",""
"null","","html-keyboard-response","148","1994657","0.0-6.0-9.7","43","<p><img class= 'stimulus' src='images/baseline/__08_-_ITALY_-_Forli_under_snow_-_winter_landscape_of_city_(christmas).jpg'></img></p>","null","","1551288073064","","","","","","",""
"null","","html-keyboard-response","149","1994806","0.0-6.0-10.7","43","<p><img class= 'stimulus' src='images/baseline/04060v.jpg'></img></p>","null","","1551288073214","","","","","","",""
"null","","html-keyboard-response","150","1994957","0.0-6.0-11.7","43","<p><img class= 'stimulus' src='images/baseline/05145v.jpg'></img></p>","null","","1551288073364","","","","","","",""
"null","","html-keyboard-response","151","1995107","0.0-6.0-12.7","43","<p><img class= 'stimulus' src='images/baseline/landscape37.jpg'></img></p>","null","","1551288073514","12","","","","","",""
"null","","html-keyboard-response","152","1995257","0.0-6.0-13.7","43","<p><img class= 'stimulus' src='images/baseline/04130v.jpg'></img></p>","null","","1551288073664","","","","","","",""
"null","","html-keyboard-response","153","1995407","0.0-6.0-14.7","43","<p><img class= 'stimulus left-rotate' src='images/target/lone-tree.png'></img></p>","null","","1551288073814","14","","","","","",""
"null","","html-keyboard-response","154","1995557","0.0-6.0-15.7","43","<p><img class= 'stimulus' src='images/baseline/dirt-road-or-trail-through-park.jpg'></img></p>","null","","1551288073964","","","","","","",""
"null","","html-keyboard-response","155","1995706","0.0-6.0-16.7","43","<p><img class= 'stimulus' src='images/baseline/04086v.jpg'></img></p>","null","","1551288074114","","","","","","",""
"null","","html-keyboard-response","156","1995873","0.0-6.0-17.7","43","<p><img class= 'stimulus' src='images/baseline/red rocks from afar.jpg'></img></p>","null","","1551288074265","","","","","","",""
"1057.9000000143424","","html-button-response","157","1997935","0.0-6.0-18.7","43","<div class = ""response_question"">WAS THE IMAGE ROTATED...</div>","","0","","","6","8","bas","left","practice","true"
"1798.2999999949243","","html-button-response","158","1999735","0.0-6.0-0.8","43","","","0","","","","","","","",""
"null","","html-keyboard-response","159","1999824","0.0-6.0-1.8","43","<p><img class= 'stimulus' src='images/baseline/cranes 1.jpg'></img></p>","null","","1551288078281","","","","","","",""
"null","","html-keyboard-response","160","1999923","0.0-6.0-2.8","43","<p><img class= 'stimulus' src='images/baseline/03204v.jpg'></img></p>","null","","1551288078382","","","","","","",""
"null","","html-keyboard-response","161","2000023","0.0-6.0-3.8","43","<p><img class= 'stimulus' src='images/baseline/building_at_national_conservation.jpg'></img></p>","null","","1551288078480","","","","","","",""
"null","","html-keyboard-response","162","2000123","0.0-6.0-4.8","43","<p><img class= 'stimulus' src='images/baseline/chicago-skyline-at-night-1476869511p8U.jpg'></img></p>","null","","1551288078581","4","","","","","",""
"null","","html-keyboard-response","163","2000224","0.0-6.0-5.8","43","<p><img class= 'stimulus' src='images/baseline/building2.jpg'></img></p>","null","","1551288078680","","","","","","",""
"null","","html-keyboard-response","164","2000324","0.0-6.0-6.8","43","<p><img class= 'stimulus' src='images/baseline/Street 4.jpg'></img></p>","null","","1551288078782","6","","","","","",""
"null","","html-keyboard-response","165","2000423","0.0-6.0-7.8","43","<p><img class= 'stimulus' src='images/baseline/church-silhouette-8712964986014Kb.jpg'></img></p>","null","","1551288078881","","","","","","",""
"null","","html-keyboard-response","166","2000524","0.0-6.0-8.8","43","<p><img class= 'stimulus' src='images/baseline/03075v.jpg'></img></p>","null","","1551288078981","8","","","","","",""
"null","","html-keyboard-response","167","2000624","0.0-6.0-9.8","43","<p><img class= 'stimulus' src='images/baseline/04222v.jpg'></img></p>","null","","1551288079081","","","","","","",""
"null","","html-keyboard-response","168","2000723","0.0-6.0-10.8","43","<p><img class= 'stimulus' src='images/baseline/05203v.jpg'></img></p>","null","","1551288079181","","","","","","",""
"null","","html-keyboard-response","169","2000823","0.0-6.0-11.8","43","<p><img class= 'stimulus' src='images/baseline/meadow-with-mountain-in-background.jpg'></img></p>","null","","1551288079281","","","","","","",""
"null","","html-keyboard-response","170","2000924","0.0-6.0-12.8","43","<p><img class= 'stimulus' src='images/baseline/house2.jpg'></img></p>","null","","1551288079381","12","","","","","",""
"null","","html-keyboard-response","171","2001023","0.0-6.0-13.8","43","<p><img class= 'stimulus' src='images/baseline/landscape40.jpg'></img></p>","null","","1551288079481","","","","","","",""
"null","","html-keyboard-response","172","2001124","0.0-6.0-14.8","43","<p><img class= 'stimulus left-rotate' src='images/target/tree.jpeg'></img></p>","null","","1551288079582","14","","","","","",""
"null","","html-keyboard-response","173","2001223","0.0-6.0-15.8","43","<p><img class= 'stimulus' src='images/baseline/Lake 5.jpg'></img></p>","null","","1551288079681","","","","","","",""
"null","","html-keyboard-response","174","2001324","0.0-6.0-16.8","43","<p><img class= 'stimulus' src='images/baseline/bird-flying-at-sunset.jpg'></img></p>","null","","1551288079780","","","","","","",""
"null","","html-keyboard-response","175","2001440","0.0-6.0-17.8","43","<p><img class= 'stimulus' src='images/baseline/valley 2.jpg'></img></p>","null","","1551288079880","","","","","","",""
"652.4000000208616","","html-button-response","176","2003095","0.0-6.0-18.8","43","<div class = ""response_question"">WAS THE IMAGE ROTATED...</div>","","0","","","6","8","bas","left","practice","true"
"814.5000000076834","","html-button-response","177","2003911","0.0-6.0-0.9","43","","","0","","","","","","","",""
"null","","html-keyboard-response","178","2003990","0.0-6.0-1.9","43","<p><img class= 'stimulus' src='images/baseline/landscape4.jpg'></img></p>","null","","1551288082448","","","","","","",""
"null","","html-keyboard-response","179","2004091","0.0-6.0-2.9","43","<p><img class= 'stimulus' src='images/baseline/03098v.jpg'></img></p>","null","","1551288082548","","","","","","",""
"null","","html-keyboard-response","180","2004191","0.0-6.0-3.9","43","<p><img class= 'stimulus' src='images/baseline/02960v.jpg'></img></p>","null","","1551288082649","","","","","","",""
"null","","html-keyboard-response","181","2004291","0.0-6.0-4.9","43","<p><img class= 'stimulus' src='images/baseline/04010v.jpg'></img></p>","null","","1551288082748","4","","","","","",""
"null","","html-keyboard-response","182","2004390","0.0-6.0-5.9","43","<p><img class= 'stimulus' src='images/baseline/pexels-photo-221125.jpeg'></img></p>","null","","1551288082848","","","","","","",""
"null","","html-keyboard-response","183","2004490","0.0-6.0-6.9","43","<p><img class= 'stimulus left-rotate' src='images/target/church-2306128_640.jpg'></img></p>","null","","1551288082948","6","","","","","",""
"null","","html-keyboard-response","184","2004590","0.0-6.0-7.9","43","<p><img class= 'stimulus' src='images/baseline/agriculture-countryside-crop-259280.jpg'></img></p>","null","","1551288083048","","","","","","",""
"null","","html-keyboard-response","185","2004691","0.0-6.0-8.9","43","<p><img class= 'stimulus' src='images/baseline/02947v.jpg'></img></p>","null","","1551288083148","8","","","","","",""
"null","","html-keyboard-response","186","2004791","0.0-6.0-9.9","43","<p><img class= 'stimulus' src='images/baseline/pexels-photo-750108.jpeg'></img></p>","null","","1551288083248","","","","","","",""
"null","","html-keyboard-response","187","2004890","0.0-6.0-10.9","43","<p><img class= 'stimulus' src='images/baseline/Bahia_Onelli_Parque_Nacional_Los_Glaciares_Patagonia_Argentina_Luca_Galuzzi_2005.jpg'></img></p>","null","","1551288083348","","","","","","",""
"null","","html-keyboard-response","188","2004989","0.0-6.0-11.9","43","<p><img class= 'stimulus' src='images/baseline/field 2.jpg'></img></p>","null","","1551288083447","","","","","","",""
"null","","html-keyboard-response","189","2005090","0.0-6.0-12.9","43","<p><img class= 'stimulus' src='images/baseline/Grass 6.jpg'></img></p>","null","","1551288083547","12","","","","","",""
"null","","html-keyboard-response","190","2005190","0.0-6.0-13.9","43","<p><img class= 'stimulus' src='images/baseline/vintage-art-deco-storefront.jpg'></img></p>","null","","1551288083647","","","","","","",""
"null","","html-keyboard-response","191","2005290","0.0-6.0-14.9","43","<p><img class= 'stimulus' src='images/baseline/Camping 10.jpg'></img></p>","null","","1551288083748","14","","","","","",""
"null","","html-keyboard-response","192","2005390","0.0-6.0-15.9","43","<p><img class= 'stimulus' src='images/baseline/04117v.jpg'></img></p>","null","","1551288083847","","","","","","",""
"null","","html-keyboard-response","193","2005490","0.0-6.0-16.9","43","<p><img class= 'stimulus' src='images/baseline/farmhouse9.jpg'></img></p>","null","","1551288083947","","","","","","",""
"null","","html-keyboard-response","194","2005606","0.0-6.0-17.9","43","<p><img class= 'stimulus' src='images/baseline/cyrillic.jpg'></img></p>","null","","1551288084048","","","","","","",""
"741.199999989476","","html-button-response","195","2007351","0.0-6.0-18.9","43","<div class = ""response_question"">WAS THE IMAGE ROTATED...</div>","","0","","","4","2","bas","left","practice","true"
"894.0999999758787","","html-button-response","196","2008247","0.0-6.0-0.10","43","","","0","","","","","","","",""
"null","","html-keyboard-response","197","2008323","0.0-6.0-1.10","43","<p><img class= 'stimulus' src='images/baseline/landscape34.jpg'></img></p>","null","","1551288086781","","","","","","",""
"null","","html-keyboard-response","198","2008423","0.0-6.0-2.10","43","<p><img class= 'stimulus' src='images/baseline/Lake 7.jpg'></img></p>","null","","1551288086881","","","","","","",""
"null","","html-keyboard-response","199","2008524","0.0-6.0-3.10","43","<p><img class= 'stimulus' src='images/baseline/farmhouse2.jpg'></img></p>","null","","1551288086981","","","","","","",""
"null","","html-keyboard-response","200","2008623","0.0-6.0-4.10","43","<p><img class= 'stimulus' src='images/baseline/Happy pose 3.jpg'></img></p>","null","","1551288087081","4","","","","","",""
"null","","html-keyboard-response","201","2008724","0.0-6.0-5.10","43","<p><img class= 'stimulus' src='images/baseline/Beach 8.jpg'></img></p>","null","","1551288087181","","","","","","",""
"null","","html-keyboard-response","202","2008824","0.0-6.0-6.10","43","<p><img class= 'stimulus' src='images/baseline/05240v.jpg'></img></p>","null","","1551288087281","6","","","","","",""
"null","","html-keyboard-response","203","2008924","0.0-6.0-7.10","43","<p><img class= 'stimulus' src='images/baseline/05303v.jpg'></img></p>","null","","1551288087382","","","","","","",""
"null","","html-keyboard-response","204","2009024","0.0-6.0-8.10","43","<p><img class= 'stimulus left-rotate' src='images/target/landscape_1.jpg'></img></p>","null","","1551288087481","8","","","","","",""
"null","","html-keyboard-response","205","2009123","0.0-6.0-9.10","43","<p><img class= 'stimulus' src='images/baseline/farmhouse1.jpg'></img></p>","null","","1551288087581","","","","","","",""
"null","","html-keyboard-response","206","2009223","0.0-6.0-10.10","43","<p><img class= 'stimulus' src='images/baseline/05264v.jpg'></img></p>","null","","1551288087681","","","","","","",""
"null","","html-keyboard-response","207","2009324","0.0-6.0-11.10","43","<p><img class= 'stimulus' src='images/baseline/house1.jpg'></img></p>","null","","1551288087782","","","","","","",""
"null","","html-keyboard-response","208","2009424","0.0-6.0-12.10","43","<p><img class= 'stimulus' src='images/baseline/building12.jpg'></img></p>","null","","1551288087882","12","","","","","",""
"null","","html-keyboard-response","209","2009523","0.0-6.0-13.10","43","<p><img class= 'stimulus' src='images/baseline/Skyscraper 2.jpg'></img></p>","null","","1551288087981","","","","","","",""
"null","","html-keyboard-response","210","2009625","0.0-6.0-14.10","43","<p><img class= 'stimulus' src='images/baseline/04229v.jpg'></img></p>","null","","1551288088080","14","","","","","",""
"null","","html-keyboard-response","211","2009723","0.0-6.0-15.10","43","<p><img class= 'stimulus' src='images/baseline/4k-wallpaper-agriculture-clouds-842711.jpg'></img></p>","null","","1551288088182","","","","","","",""
"null","","html-keyboard-response","212","2009823","0.0-6.0-16.10","43","<p><img class= 'stimulus' src='images/baseline/pexels-photo-280222.jpeg'></img></p>","null","","1551288088280","","","","","","",""
"null","","html-keyboard-response","213","2009940","0.0-6.0-17.10","43","<p><img class= 'stimulus' src='images/baseline/landscape36.jpg'></img></p>","null","","1551288088381","","","","","","",""
"664.1999999992549","","html-button-response","214","2011607","0.0-6.0-18.10","43","<div class = ""response_question"">WAS THE IMAGE ROTATED...</div>","","0","","","6","2","bas","left","practice","true"
"622.4999999976717","","html-button-response","215","2012230","0.0-6.0-0.11","43","","","0","","","","","","","",""
"null","","html-keyboard-response","216","2012307","0.0-6.0-1.11","43","<p><img class= 'stimulus' src='images/baseline/landscape12.jpg'></img></p>","null","","1551288090765","","","","","","",""
"null","","html-keyboard-response","217","2012406","0.0-6.0-2.11","43","<p><img class= 'stimulus' src='images/baseline/snowy tree.jpg'></img></p>","null","","1551288090865","","","","","","",""
"null","","html-keyboard-response","218","2012507","0.0-6.0-3.11","43","<p><img class= 'stimulus' src='images/baseline/landscape35.jpg'></img></p>","null","","1551288090965","","","","","","",""
"null","","html-keyboard-response","219","2012607","0.0-6.0-4.11","43","<p><img class= 'stimulus' src='images/baseline/sun-through-winter-tree-branches1.jpg'></img></p>","null","","1551288091064","4","","","","","",""
"null","","html-keyboard-response","220","2012708","0.0-6.0-5.11","43","<p><img class= 'stimulus' src='images/baseline/Beach 2.jpg'></img></p>","null","","1551288091165","","","","","","",""
"null","","html-keyboard-response","221","2012807","0.0-6.0-6.11","43","<p><img class= 'stimulus' src='images/baseline/foreclosed_home.jpg'></img></p>","null","","1551288091266","6","","","","","",""
"null","","html-keyboard-response","222","2012908","0.0-6.0-7.11","43","<p><img class= 'stimulus' src='images/baseline/03056v.jpg'></img></p>","null","","1551288091364","","","","","","",""
"null","","html-keyboard-response","223","2013006","0.0-6.0-8.11","43","<p><img class= 'stimulus' src='images/baseline/Linden,_paysage.jpg'></img></p>","null","","1551288091465","8","","","","","",""
"null","","html-keyboard-response","224","2013107","0.0-6.0-9.11","43","<p><img class= 'stimulus' src='images/baseline/pexels-photo-1287089.jpeg'></img></p>","null","","1551288091564","","","","","","",""
"null","","html-keyboard-response","225","2013207","0.0-6.0-10.11","43","<p><img class= 'stimulus' src='images/baseline/landscape2.jpg'></img></p>","null","","1551288091663","","","","","","",""
"null","","html-keyboard-response","226","2013307","0.0-6.0-11.11","43","<p><img class= 'stimulus' src='images/baseline/pexels-photo-1837621.jpeg'></img></p>","null","","1551288091763","","","","","","",""
"null","","html-keyboard-response","227","2013407","0.0-6.0-12.11","43","<p><img class= 'stimulus left-rotate' src='images/target/dreifaltigkeitskirche_sandhausen_837699.jpg'></img></p>","null","","1551288091865","12","","","","","",""
"null","","html-keyboard-response","228","2013507","0.0-6.0-13.11","43","<p><img class= 'stimulus' src='images/baseline/pexels-photo-1048039.jpeg'></img></p>","null","","1551288091964","","","","","","",""
"null","","html-keyboard-response","229","2013607","0.0-6.0-14.11","43","<p><img class= 'stimulus' src='images/baseline/landscape13.jpg'></img></p>","null","","1551288092064","14","","","","","",""
"null","","html-keyboard-response","230","2013707","0.0-6.0-15.11","43","<p><img class= 'stimulus' src='images/baseline/05279v.jpg'></img></p>","null","","1551288092165","","","","","","",""
"null","","html-keyboard-response","231","2013807","0.0-6.0-16.11","43","<p><img class= 'stimulus' src='images/baseline/04284v.jpg'></img></p>","null","","1551288092265","","","","","","",""
"null","","html-keyboard-response","232","2013924","0.0-6.0-17.11","43","<p><img class= 'stimulus' src='images/baseline/building4.jpg'></img></p>","null","","1551288092365","","","","","","",""
"1121.6999999887776","","html-button-response","233","2016063","0.0-6.0-18.11","43","<div class = ""response_question"">WAS THE IMAGE ROTATED...</div>","","0","","","4","8","bas","left","practice","true"
"1054.4999999983702","","html-button-response","234","2017118","0.0-6.0-0.12","43","","","0","","","","","","","",""
"null","","html-keyboard-response","235","2017207","0.0-6.0-1.12","43","<p><img class= 'stimulus' src='images/baseline/grand-teton-mountains.jpg'></img></p>","null","","1551288095663","","","","","","",""
"null","","html-keyboard-response","236","2017307","0.0-6.0-2.12","43","<p><img class= 'stimulus' src='images/baseline/farmhouse3.jpg'></img></p>","null","","1551288095764","","","","","","",""
"null","","html-keyboard-response","237","2017407","0.0-6.0-3.12","43","<p><img class= 'stimulus' src='images/baseline/pexels-photo-541101.jpeg'></img></p>","null","","1551288095864","","","","","","",""
"null","","html-keyboard-response","238","2017508","0.0-6.0-4.12","43","<p><img class= 'stimulus' src='images/baseline/Bridge 1.jpg'></img></p>","null","","1551288095964","4","","","","","",""
"null","","html-keyboard-response","239","2017607","0.0-6.0-5.12","43","<p><img class= 'stimulus' src='images/baseline/02977v.jpg'></img></p>","null","","1551288096064","","","","","","",""
"null","","html-keyboard-response","240","2017707","0.0-6.0-6.12","43","<p><img class= 'stimulus' src='images/target/building4.jpg'></img></p>","null","","1551288096164","6","","","","","",""
"null","","html-keyboard-response","241","2017807","0.0-6.0-7.12","43","<p><img class= 'stimulus' src='images/baseline/geese-flying-over-lake-at-dusk.jpg'></img></p>","null","","1551288096264","","","","","","",""
"null","","html-keyboard-response","242","2017908","0.0-6.0-8.12","43","<p><img class= 'stimulus' src='images/baseline/lake3.jpg'></img></p>","null","","1551288096365","8","","","","","",""
"null","","html-keyboard-response","243","2018007","0.0-6.0-9.12","43","<p><img class= 'stimulus' src='images/baseline/town-square-in-wroclaw-1539098440MZy.jpg'></img></p>","null","","1551288096463","","","","","","",""
"null","","html-keyboard-response","244","2018106","0.0-6.0-10.12","43","<p><img class= 'stimulus' src='images/baseline/03180v.jpg'></img></p>","null","","1551288096564","","","","","","",""
"null","","html-keyboard-response","245","2018207","0.0-6.0-11.12","43","<p><img class= 'stimulus' src='images/baseline/landscape11.jpg'></img></p>","null","","1551288096665","","","","","","",""
"null","","html-keyboard-response","246","2018308","0.0-6.0-12.12","43","<p><img class= 'stimulus' src='images/baseline/building16.jpg'></img></p>","null","","1551288096764","12","","","","","",""
"null","","html-keyboard-response","247","2018407","0.0-6.0-13.12","43","<p><img class= 'stimulus' src='images/baseline/landscape22.jpg'></img></p>","null","","1551288096864","","","","","","",""
"null","","html-keyboard-response","248","2018508","0.0-6.0-14.12","43","<p><img class= 'stimulus' src='images/baseline/building9.jpg'></img></p>","null","","1551288096965","14","","","","","",""
"null","","html-keyboard-response","249","2018607","0.0-6.0-15.12","43","<p><img class= 'stimulus' src='images/baseline/landscape14.jpg'></img></p>","null","","1551288097064","","","","","","",""
"null","","html-keyboard-response","250","2018707","0.0-6.0-16.12","43","<p><img class= 'stimulus' src='images/baseline/architecture_modern_architecture_852928.jpg'></img></p>","null","","1551288097164","","","","","","",""
"null","","html-keyboard-response","251","2018823","0.0-6.0-17.12","43","<p><img class= 'stimulus' src='images/baseline/Paysage_karabagh_02.jpg'></img></p>","null","","1551288097265","","","","","","",""
"6006.599999993341","","html-button-response","252","2025839","0.0-6.0-18.12","43","<div class = ""response_question"">WAS THE IMAGE ROTATED...</div>","","2","","","4","2","bas","right","practice","false"
"28406.099999992875","","html-button-response","253","2054240","0.0-6.0-0.13","43","","","0","","","","","","","",""
"null","","html-keyboard-response","254","2054317","0.0-6.0-1.13","43","<p><img class= 'stimulus' src='images/baseline/Street 2.jpg'></img></p>","null","","1551288132775","","","","","","",""
"null","","html-keyboard-response","255","2054417","0.0-6.0-2.13","43","<p><img class= 'stimulus' src='images/baseline/02971v.jpg'></img></p>","null","","1551288132875","","","","","","",""
"null","","html-keyboard-response","256","2054518","0.0-6.0-3.13","43","<p><img class= 'stimulus' src='images/baseline/field 1.jpg'></img></p>","null","","1551288132975","","","","","","",""
"null","","html-keyboard-response","257","2054617","0.0-6.0-4.13","43","<p><img class= 'stimulus' src='images/baseline/landscape19.jpg'></img></p>","null","","1551288133074","4","","","","","",""
"null","","html-keyboard-response","258","2054716","0.0-6.0-5.13","43","<p><img class= 'stimulus' src='images/baseline/city-silhouette-at-sunset-871291580819Esw.jpg'></img></p>","null","","1551288133175","","","","","","",""
"null","","html-keyboard-response","259","2054818","0.0-6.0-6.13","43","<p><img class= 'stimulus' src='images/baseline/02982v.jpg'></img></p>","null","","1551288133275","6","","","","","",""
"null","","html-keyboard-response","260","2054918","0.0-6.0-7.13","43","<p><img class= 'stimulus' src='images/baseline/landscape15.jpg'></img></p>","null","","1551288133375","","","","","","",""
"null","","html-keyboard-response","261","2055017","0.0-6.0-8.13","43","<p><img class= 'stimulus' src='images/target/buildin2.png'></img></p>","null","","1551288133475","8","","","","","",""
"null","","html-keyboard-response","262","2055116","0.0-6.0-9.13","43","<p><img class= 'stimulus' src='images/baseline/road 1(1).jpg'></img></p>","null","","1551288133574","","","","","","",""
"null","","html-keyboard-response","263","2055217","0.0-6.0-10.13","43","<p><img class= 'stimulus' src='images/baseline/sunset-over-the-lake.jpg'></img></p>","null","","1551288133674","","","","","","",""
"null","","html-keyboard-response","264","2055317","0.0-6.0-11.13","43","<p><img class= 'stimulus' src='images/baseline/05255v.jpg'></img></p>","null","","1551288133774","","","","","","",""
"null","","html-keyboard-response","265","2055417","0.0-6.0-12.13","43","<p><img class= 'stimulus' src='images/baseline/04062v.jpg'></img></p>","null","","1551288133874","12","","","","","",""
"null","","html-keyboard-response","266","2055517","0.0-6.0-13.13","43","<p><img class= 'stimulus' src='images/baseline/building8.jpg'></img></p>","null","","1551288133975","","","","","","",""
"null","","html-keyboard-response","267","2055617","0.0-6.0-14.13","43","<p><img class= 'stimulus' src='images/baseline/landscape17.jpg'></img></p>","null","","1551288134075","14","","","","","",""
"null","","html-keyboard-response","268","2055717","0.0-6.0-15.13","43","<p><img class= 'stimulus' src='images/baseline/Lake 8.jpg'></img></p>","null","","1551288134174","","","","","","",""
"null","","html-keyboard-response","269","2055816","0.0-6.0-16.13","43","<p><img class= 'stimulus' src='images/baseline/04021v.jpg'></img></p>","null","","1551288134274","","","","","","",""
"null","","html-keyboard-response","270","2055933","0.0-6.0-17.13","43","<p><img class= 'stimulus' src='images/baseline/Sidewalk 4.jpg'></img></p>","null","","1551288134376","","","","","","",""
"783.3000000100583","","html-button-response","271","2057720","0.0-6.0-18.13","43","<div class = ""response_question"">WAS THE IMAGE ROTATED...</div>","","3","","","6","2","bas","right","practice","true"
"1350.1000000105705","","html-button-response","272","2059071","0.0-6.0-0.14","43","","","0","","","","","","","",""
"null","","html-keyboard-response","273","2059150","0.0-6.0-1.14","43","<p><img class= 'stimulus' src='images/baseline/05161v.jpg'></img></p>","null","","1551288137608","","","","","","",""
"null","","html-keyboard-response","274","2059250","0.0-6.0-2.14","43","<p><img class= 'stimulus' src='images/baseline/05247v.jpg'></img></p>","null","","1551288137708","","","","","","",""
"null","","html-keyboard-response","275","2059350","0.0-6.0-3.14","43","<p><img class= 'stimulus' src='images/baseline/05198v.jpg'></img></p>","null","","1551288137807","","","","","","",""
"null","","html-keyboard-response","276","2059451","0.0-6.0-4.14","43","<p><img class= 'stimulus' src='images/baseline/05280v.jpg'></img></p>","null","","1551288137908","4","","","","","",""
"null","","html-keyboard-response","277","2059550","0.0-6.0-5.14","43","<p><img class= 'stimulus' src='images/baseline/landscape3.jpg'></img></p>","null","","1551288138008","","","","","","",""
"null","","html-keyboard-response","278","2059650","0.0-6.0-6.14","43","<p><img class= 'stimulus' src='images/baseline/road.jpg'></img></p>","null","","1551288138107","6","","","","","",""
"null","","html-keyboard-response","279","2059750","0.0-6.0-7.14","43","<p><img class= 'stimulus' src='images/baseline/03217v.jpg'></img></p>","null","","1551288138208","","","","","","",""
"null","","html-keyboard-response","280","2059852","0.0-6.0-8.14","43","<p><img class= 'stimulus' src='images/baseline/04179v.jpg'></img></p>","null","","1551288138308","8","","","","","",""
"null","","html-keyboard-response","281","2059952","0.0-6.0-9.14","43","<p><img class= 'stimulus' src='images/baseline/Street 5.jpg'></img></p>","null","","1551288138408","","","","","","",""
"null","","html-keyboard-response","282","2060050","0.0-6.0-10.14","43","<p><img class= 'stimulus' src='images/baseline/04201v.jpg'></img></p>","null","","1551288138508","","","","","","",""
"null","","html-keyboard-response","283","2060151","0.0-6.0-11.14","43","<p><img class= 'stimulus' src='images/baseline/Paysage_enneige_02.jpg'></img></p>","null","","1551288138609","","","","","","",""
"null","","html-keyboard-response","284","2060250","0.0-6.0-12.14","43","<p><img class= 'stimulus' src='images/baseline/03045v.jpg'></img></p>","null","","1551288138708","12","","","","","",""
"null","","html-keyboard-response","285","2060350","0.0-6.0-13.14","43","<p><img class= 'stimulus' src='images/baseline/house7.jpg'></img></p>","null","","1551288138808","","","","","","",""
"null","","html-keyboard-response","286","2060450","0.0-6.0-14.14","43","<p><img class= 'stimulus' src='images/target/tree-3563269_640.jpg'></img></p>","null","","1551288138908","14","","","","","",""
"null","","html-keyboard-response","287","2060550","0.0-6.0-15.14","43","<p><img class= 'stimulus' src='images/baseline/building5.jpg'></img></p>","null","","1551288139007","","","","","","",""
"null","","html-keyboard-response","288","2060650","0.0-6.0-16.14","43","<p><img class= 'stimulus' src='images/baseline/pexels-photo-1054289.jpeg'></img></p>","null","","1551288139107","","","","","","",""
"null","","html-keyboard-response","289","2060766","0.0-6.0-17.14","43","<p><img class= 'stimulus' src='images/baseline/04064v.jpg'></img></p>","null","","1551288139207","","","","","","",""
"430.3000000072643","","html-button-response","290","2062200","0.0-6.0-18.14","43","<div class = ""response_question"">WAS THE IMAGE ROTATED...</div>","","3","","","6","8","bas","right","practice","true"
"717.4999999988358","","html-button-response","291","2062919","0.0-6.0-0.15","43","","","0","","","","","","","",""
"null","","html-keyboard-response","292","2063017","0.0-6.0-1.15","43","<p><img class= 'stimulus' src='images/baseline/Skijump 1.jpg'></img></p>","null","","1551288141474","","","","","","",""
"null","","html-keyboard-response","293","2063117","0.0-6.0-2.15","43","<p><img class= 'stimulus' src='images/baseline/Lake 3.jpg'></img></p>","null","","1551288141574","","","","","","",""
"null","","html-keyboard-response","294","2063217","0.0-6.0-3.15","43","<p><img class= 'stimulus' src='images/baseline/house8.jpg'></img></p>","null","","1551288141675","","","","","","",""
"null","","html-keyboard-response","295","2063317","0.0-6.0-4.15","43","<p><img class= 'stimulus' src='images/baseline/tennis-court-net-buried-in-snow.jpg'></img></p>","null","","1551288141775","4","","","","","",""
"null","","html-keyboard-response","296","2063418","0.0-6.0-5.15","43","<p><img class= 'stimulus' src='images/baseline/99_-_Machu_Picchu_-_Juin_2009.edit3.jpg'></img></p>","null","","1551288141875","","","","","","",""
"null","","html-keyboard-response","297","2063517","0.0-6.0-6.15","43","<p><img class= 'stimulus' src='images/baseline/landscape1.jpg'></img></p>","null","","1551288141975","6","","","","","",""
"null","","html-keyboard-response","298","2063618","0.0-6.0-7.15","43","<p><img class= 'stimulus' src='images/baseline/trees 23.jpg'></img></p>","null","","1551288142074","","","","","","",""
"null","","html-keyboard-response","299","2063717","0.0-6.0-8.15","43","<p><img class= 'stimulus' src='images/baseline/pexels-photo-259280.jpeg'></img></p>","null","","1551288142175","8","","","","","",""
"null","","html-keyboard-response","300","2063817","0.0-6.0-9.15","43","<p><img class= 'stimulus' src='images/baseline/pexels-photo-808465.jpeg'></img></p>","null","","1551288142274","","","","","","",""
"null","","html-keyboard-response","301","2063916","0.0-6.0-10.15","43","<p><img class= 'stimulus' src='images/baseline/landscape7.jpg'></img></p>","null","","1551288142374","","","","","","",""
"null","","html-keyboard-response","302","2064017","0.0-6.0-11.15","43","<p><img class= 'stimulus' src='images/baseline/field 3.jpg'></img></p>","null","","1551288142474","","","","","","",""
"null","","html-keyboard-response","303","2064117","0.0-6.0-12.15","43","<p><img class= 'stimulus' src='images/target/9525-a-lonely-single-tree-in-a-field-pv.jpg'></img></p>","null","","1551288142574","12","","","","","",""
"null","","html-keyboard-response","304","2064217","0.0-6.0-13.15","43","<p><img class= 'stimulus' src='images/baseline/landscape8.jpg'></img></p>","null","","1551288142675","","","","","","",""
"null","","html-keyboard-response","305","2064317","0.0-6.0-14.15","43","<p><img class= 'stimulus' src='images/baseline/05247v.jpg'></img></p>","null","","1551288142774","14","","","","","",""
"null","","html-keyboard-response","306","2064418","0.0-6.0-15.15","43","<p><img class= 'stimulus' src='images/baseline/Lake 13.jpg'></img></p>","null","","1551288142874","","","","","","",""
"null","","html-keyboard-response","307","2064517","0.0-6.0-16.15","43","<p><img class= 'stimulus' src='images/baseline/Skyscraper 1.jpg'></img></p>","null","","1551288142974","","","","","","",""
"null","","html-keyboard-response","308","2064634","0.0-6.0-17.15","43","<p><img class= 'stimulus' src='images/baseline/Street 4.jpg'></img></p>","null","","1551288143075","","","","","","",""
"683.1999999994878","","html-button-response","309","2066320","0.0-6.0-18.15","43","<div class = ""response_question"">WAS THE IMAGE ROTATED...</div>","","3","","","4","8","bas","right","practice","true"
"54894.09999997588","","html-button-response","310","2121224","0.0-7.0","43","<p>You have now completed the practice phase. We will now begin the real trials.         This is a reminder that you will be searching for a rotated image among the series of upright images.</p>         <p>Remember, please do not blink or move your eyes while the images are on the screen.</p>         <p>At the end of the experiment, the experimenter will be able to show you how accurate you were.</p>","","0","","","","","","","",""
"2454.700000002049","","html-button-response","311","2123680","0.0-8.0-0.0-0.0","43","","","0","","","","","","","",""
"null","","html-keyboard-response","312","2123759","0.0-8.0-0.0-1.0","43","<p><img class= 'stimulus' src='images/baseline/seoul-410266_1920.jpg'></img></p>","null","","1551288202217","","","","","","",""
"null","","html-keyboard-response","313","2123859","0.0-8.0-0.0-2.0","43","<p><img class= 'stimulus' src='images/baseline/Road 1.jpg'></img></p>","null","","1551288202317","","","","","","",""
"null","","html-keyboard-response","314","2123959","0.0-8.0-0.0-3.0","43","<p><img class= 'stimulus' src='images/baseline/04229v.jpg'></img></p>","null","","1551288202417","","","","","","",""
"null","","html-keyboard-response","315","2124059","0.0-8.0-0.0-4.0","43","<p><img class= 'stimulus' src='images/neutral/Neuralll (1).jpg'></img></p>","null","","1551288202516","4","","","","","",""
"null","","html-keyboard-response","316","2124159","0.0-8.0-0.0-5.0","43","<p><img class= 'stimulus' src='images/baseline/03220v.jpg'></img></p>","null","","1551288202616","","","","","","",""
"null","","html-keyboard-response","317","2124258","0.0-8.0-0.0-6.0","43","<p><img class= 'stimulus' src='images/baseline/05203v.jpg'></img></p>","null","","1551288202716","6","","","","","",""
"null","","html-keyboard-response","318","2124359","0.0-8.0-0.0-7.0","43","<p><img class= 'stimulus' src='images/baseline/farmhouse11.jpg'></img></p>","null","","1551288202817","","","","","","",""
"null","","html-keyboard-response","319","2124459","0.0-8.0-0.0-8.0","43","<p><img class= 'stimulus' src='images/baseline/cyrillic.jpg'></img></p>","null","","1551288202917","8","","","","","",""
"null","","html-keyboard-response","320","2124558","0.0-8.0-0.0-9.0","43","<p><img class= 'stimulus' src='images/baseline/03162v.jpg'></img></p>","null","","1551288203016","","","","","","",""
"null","","html-keyboard-response","321","2124658","0.0-8.0-0.0-10.0","43","<p><img class= 'stimulus' src='images/baseline/landscape11.jpg'></img></p>","null","","1551288203116","","","","","","",""
"null","","html-keyboard-response","322","2124759","0.0-8.0-0.0-11.0","43","<p><img class= 'stimulus' src='images/baseline/road.jpg'></img></p>","null","","1551288203216","","","","","","",""
"null","","html-keyboard-response","323","2124859","0.0-8.0-0.0-12.0","43","<p><img class= 'stimulus left-rotate' src='images/target/beach1.jpeg'></img></p>","null","","1551288203315","12","","","","","",""
"null","","html-keyboard-response","324","2124959","0.0-8.0-0.0-13.0","43","<p><img class= 'stimulus' src='images/baseline/pexels-photo-1048039.jpeg'></img></p>","null","","1551288203415","","","","","","",""
"null","","html-keyboard-response","325","2125059","0.0-8.0-0.0-14.0","43","<p><img class= 'stimulus' src='images/baseline/chicago-skyline-at-night-1476869511p8U.jpg'></img></p>","null","","1551288203515","14","","","","","",""
"null","","html-keyboard-response","326","2125159","0.0-8.0-0.0-15.0","43","<p><img class= 'stimulus' src='images/baseline/tennis-court-net-buried-in-snow.jpg'></img></p>","null","","1551288203617","","","","","","",""
"null","","html-keyboard-response","327","2125259","0.0-8.0-0.0-16.0","43","<p><img class= 'stimulus' src='images/baseline/bird-flying-at-sunset.jpg'></img></p>","null","","1551288203717","","","","","","",""
"null","","html-keyboard-response","328","2125375","0.0-8.0-0.0-17.0","43","<p><img class= 'stimulus' src='images/baseline/lone-old-cottonwood-tree.jpg'></img></p>","null","","1551288203817","","","","","","",""
"1444.6999999927357","","html-button-response","329","2127824","0.0-8.0-0.0-18.0","43","<div class = ""response_question"">WAS THE IMAGE ROTATED...</div>","","0","","","4","8","neu","left","test","true"
"2094.2999999970198","","html-button-response","330","2129920","0.0-8.0-0.0-0.1","43","","","0","","","","","","","",""
"null","","html-keyboard-response","331","2129993","0.0-8.0-0.0-1.1","43","<p><img class= 'stimulus' src='images/baseline/autumn-landscape-with-lake-fall-trees-mountains.jpg'></img></p>","null","","1551288208450","","","","","","",""
"null","","html-keyboard-response","332","2130092","0.0-8.0-0.0-2.1","43","<p><img class= 'stimulus' src='images/baseline/05179v.jpg'></img></p>","null","","1551288208550","","","","","","",""
"null","","html-keyboard-response","333","2130192","0.0-8.0-0.0-3.1","43","<p><img class= 'stimulus' src='images/baseline/landscape22.jpg'></img></p>","null","","1551288208651","","","","","","",""
"null","","html-keyboard-response","334","2130292","0.0-8.0-0.0-4.1","43","<p><img class= 'stimulus' src='images/baseline/04130v.jpg'></img></p>","null","","1551288208749","4","","","","","",""
"null","","html-keyboard-response","335","2130392","0.0-8.0-0.0-5.1","43","<p><img class= 'stimulus' src='images/baseline/Cold 7.jpg'></img></p>","null","","1551288208850","","","","","","",""
"null","","html-keyboard-response","336","2130492","0.0-8.0-0.0-6.1","43","<p><img class= 'stimulus' src='images/negative/Bloody knife 1.jpg'></img></p>","null","","1551288208950","6","","","","","",""
"null","","html-keyboard-response","337","2130593","0.0-8.0-0.0-7.1","43","<p><img class= 'stimulus' src='images/baseline/pexels-photo-427676.jpeg'></img></p>","null","","1551288209050","","","","","","",""
"null","","html-keyboard-response","338","2130692","0.0-8.0-0.0-8.1","43","<p><img class= 'stimulus left-rotate' src='images/target/building3.jpg'></img></p>","null","","1551288209149","8","","","","","",""
"null","","html-keyboard-response","339","2130792","0.0-8.0-0.0-9.1","43","<p><img class= 'stimulus' src='images/baseline/04040v.jpg'></img></p>","null","","1551288209250","","","","","","",""
"null","","html-keyboard-response","340","2130893","0.0-8.0-0.0-10.1","43","<p><img class= 'stimulus' src='images/baseline/field 3.jpg'></img></p>","null","","1551288209350","","","","","","",""
"null","","html-keyboard-response","341","2130992","0.0-8.0-0.0-11.1","43","<p><img class= 'stimulus' src='images/baseline/farmhouse6.jpg'></img></p>","null","","1551288209449","","","","","","",""
"null","","html-keyboard-response","342","2131093","0.0-8.0-0.0-12.1","43","<p><img class= 'stimulus' src='images/baseline/hills 4.jpg'></img></p>","null","","1551288209550","12","","","","","",""
"null","","html-keyboard-response","343","2131191","0.0-8.0-0.0-13.1","43","<p><img class= 'stimulus' src='images/baseline/Lake 7.jpg'></img></p>","null","","1551288209650","","","","","","",""
"null","","html-keyboard-response","344","2131292","0.0-8.0-0.0-14.1","43","<p><img class= 'stimulus' src='images/baseline/farmhouse1.jpg'></img></p>","null","","1551288209750","14","","","","","",""
"null","","html-keyboard-response","345","2131392","0.0-8.0-0.0-15.1","43","<p><img class= 'stimulus' src='images/baseline/agriculture-countryside-crop-259280.jpg'></img></p>","null","","1551288209849","","","","","","",""
"null","","html-keyboard-response","346","2131492","0.0-8.0-0.0-16.1","43","<p><img class= 'stimulus' src='images/baseline/05139v.jpg'></img></p>","null","","1551288209950","","","","","","",""
"null","","html-keyboard-response","347","2131610","0.0-8.0-0.0-17.1","43","<p><img class= 'stimulus' src='images/baseline/04060v.jpg'></img></p>","null","","1551288210050","","","","","","",""
"3779.399999999441","","html-button-response","348","2136391","0.0-8.0-0.0-18.1","43","<div class = ""response_question"">WAS THE IMAGE ROTATED...</div>","","1","","","6","2","neg","left","test","true"
"2413.9999999897555","","html-button-response","349","2138808","0.0-8.0-0.0-0.2","43","","","0","","","","","","","",""
"null","","html-keyboard-response","350","2138893","0.0-8.0-0.0-1.2","43","<p><img class= 'stimulus' src='images/baseline/Camping 10.jpg'></img></p>","null","","1551288217350","","","","","","",""
"null","","html-keyboard-response","351","2138993","0.0-8.0-0.0-2.2","43","<p><img class= 'stimulus' src='images/baseline/landscape36.jpg'></img></p>","null","","1551288217450","","","","","","",""
"null","","html-keyboard-response","352","2139093","0.0-8.0-0.0-3.2","43","<p><img class= 'stimulus' src='images/baseline/04062v.jpg'></img></p>","null","","1551288217550","","","","","","",""
"null","","html-keyboard-response","353","2139192","0.0-8.0-0.0-4.2","43","<p><img class= 'stimulus' src='images/baseline/02982v.jpg'></img></p>","null","","1551288217650","4","","","","","",""
"null","","html-keyboard-response","354","2139292","0.0-8.0-0.0-5.2","43","<p><img class= 'stimulus' src='images/baseline/Lake 4.jpg'></img></p>","null","","1551288217750","","","","","","",""
"null","","html-keyboard-response","355","2139392","0.0-8.0-0.0-6.2","43","<p><img class= 'stimulus' src='images/negative/Shot 3.jpg'></img></p>","null","","1551288217851","6","","","","","",""
"null","","html-keyboard-response","356","2139492","0.0-8.0-0.0-7.2","43","<p><img class= 'stimulus' src='images/baseline/03066v.jpg'></img></p>","null","","1551288217950","","","","","","",""
"null","","html-keyboard-response","357","2139592","0.0-8.0-0.0-8.2","43","<p><img class= 'stimulus' src='images/target/chicago-673558_640.jpg'></img></p>","null","","1551288218050","8","","","","","",""
"null","","html-keyboard-response","358","2139692","0.0-8.0-0.0-9.2","43","<p><img class= 'stimulus' src='images/baseline/landscape17.jpg'></img></p>","null","","1551288218151","","","","","","",""
"null","","html-keyboard-response","359","2139792","0.0-8.0-0.0-10.2","43","<p><img class= 'stimulus' src='images/baseline/scenic-mountain-landscape.jpg'></img></p>","null","","1551288218250","","","","","","",""
"null","","html-keyboard-response","360","2139892","0.0-8.0-0.0-11.2","43","<p><img class= 'stimulus' src='images/baseline/4k-wallpaper-agriculture-clouds-842711.jpg'></img></p>","null","","1551288218351","","","","","","",""
"null","","html-keyboard-response","361","2139992","0.0-8.0-0.0-12.2","43","<p><img class= 'stimulus' src='images/baseline/pexels-photo-59321.jpeg'></img></p>","null","","1551288218451","12","","","","","",""
"null","","html-keyboard-response","362","2140093","0.0-8.0-0.0-13.2","43","<p><img class= 'stimulus' src='images/baseline/05240v.jpg'></img></p>","null","","1551288218550","","","","","","",""
"null","","html-keyboard-response","363","2140193","0.0-8.0-0.0-14.2","43","<p><img class= 'stimulus' src='images/baseline/Street 1.jpg'></img></p>","null","","1551288218649","14","","","","","",""
"null","","html-keyboard-response","364","2140292","0.0-8.0-0.0-15.2","43","<p><img class= 'stimulus' src='images/baseline/landscape34.jpg'></img></p>","null","","1551288218750","","","","","","",""
"null","","html-keyboard-response","365","2140392","0.0-8.0-0.0-16.2","43","<p><img class= 'stimulus' src='images/baseline/03114v.jpg'></img></p>","null","","1551288218850","","","","","","",""
"null","","html-keyboard-response","366","2140509","0.0-8.0-0.0-17.2","43","<p><img class= 'stimulus' src='images/baseline/pexels-photo-1054289.jpeg'></img></p>","null","","1551288218950","","","","","","",""
"3117.700000002049","","html-button-response","367","2144631","0.0-8.0-0.0-18.2","43","<div class = ""response_question"">WAS THE IMAGE ROTATED...</div>","","1","","","6","2","neg","right","test","false"
"990.5000000144355","","html-button-response","368","2145623","0.0-8.0-0.0-0.3","43","","","0","","","","","","","",""
"null","","html-keyboard-response","369","2145709","0.0-8.0-0.0-1.3","43","<p><img class= 'stimulus' src='images/baseline/pexels-photo-894312.jpeg'></img></p>","null","","1551288224167","","","","","","",""
"null","","html-keyboard-response","370","2145809","0.0-8.0-0.0-2.3","43","<p><img class= 'stimulus' src='images/baseline/Sunset 3.jpg'></img></p>","null","","1551288224266","","","","","","",""
"null","","html-keyboard-response","371","2145909","0.0-8.0-0.0-3.3","43","<p><img class= 'stimulus' src='images/baseline/03217v.jpg'></img></p>","null","","1551288224367","","","","","","",""
"null","","html-keyboard-response","372","2146009","0.0-8.0-0.0-4.3","43","<p><img class= 'stimulus' src='images/baseline/Paysage_karabagh_02.jpg'></img></p>","null","","1551288224467","4","","","","","",""
"null","","html-keyboard-response","373","2146109","0.0-8.0-0.0-5.3","43","<p><img class= 'stimulus' src='images/baseline/04222v.jpg'></img></p>","null","","1551288224566","","","","","","",""
"null","","html-keyboard-response","374","2146209","0.0-8.0-0.0-6.3","43","<p><img class= 'stimulus' src='images/baseline/Dirt 2.jpg'></img></p>","null","","1551288224667","6","","","","","",""
"null","","html-keyboard-response","375","2146309","0.0-8.0-0.0-7.3","43","<p><img class= 'stimulus' src='images/baseline/landscape13.jpg'></img></p>","null","","1551288224766","","","","","","",""
"null","","html-keyboard-response","376","2146409","0.0-8.0-0.0-8.3","43","<p><img class= 'stimulus' src='images/baseline/05161v.jpg'></img></p>","null","","1551288224866","8","","","","","",""
"null","","html-keyboard-response","377","2146509","0.0-8.0-0.0-9.3","43","<p><img class= 'stimulus' src='images/baseline/road 1(1).jpg'></img></p>","null","","1551288224967","","","","","","",""
"null","","html-keyboard-response","378","2146610","0.0-8.0-0.0-10.3","43","<p><img class= 'stimulus' src='images/baseline/landscape33.jpg'></img></p>","null","","1551288225067","","","","","","",""
"null","","html-keyboard-response","379","2146708","0.0-8.0-0.0-11.3","43","<p><img class= 'stimulus' src='images/baseline/03075v.jpg'></img></p>","null","","1551288225167","","","","","","",""
"null","","html-keyboard-response","380","2146809","0.0-8.0-0.0-12.3","43","<p><img class= 'stimulus' src='images/target/tree_1.jpg'></img></p>","null","","1551288225268","12","","","","","",""
"null","","html-keyboard-response","381","2146909","0.0-8.0-0.0-13.3","43","<p><img class= 'stimulus' src='images/baseline/05255v.jpg'></img></p>","null","","1551288225366","","","","","","",""
"null","","html-keyboard-response","382","2147008","0.0-8.0-0.0-14.3","43","<p><img class= 'stimulus' src='images/baseline/05158v.jpg'></img></p>","null","","1551288225466","14","","","","","",""
"null","","html-keyboard-response","383","2147109","0.0-8.0-0.0-15.3","43","<p><img class= 'stimulus' src='images/baseline/farmhouse2.jpg'></img></p>","null","","1551288225566","","","","","","",""
"null","","html-keyboard-response","384","2147209","0.0-8.0-0.0-16.3","43","<p><img class= 'stimulus' src='images/baseline/Street 3.jpg'></img></p>","null","","1551288225667","","","","","","",""
"null","","html-keyboard-response","385","2147326","0.0-8.0-0.0-17.3","43","<p><img class= 'stimulus' src='images/baseline/Lake 16.jpg'></img></p>","null","","1551288225767","","","","","","",""
"1038.3999999905936","","html-button-response","386","2149367","0.0-8.0-0.0-18.3","43","<div class = ""response_question"">WAS THE IMAGE ROTATED...</div>","","3","","","4","8","bas","right","test","true"
"982.3999999789521","","html-button-response","387","2150351","0.0-8.0-0.0-0.4","43","","","0","","","","","","","",""
"null","","html-keyboard-response","388","2150426","0.0-8.0-0.0-1.4","43","<p><img class= 'stimulus' src='images/baseline/Waterfall 1.jpg'></img></p>","null","","1551288228883","","","","","","",""
"null","","html-keyboard-response","389","2150526","0.0-8.0-0.0-2.4","43","<p><img class= 'stimulus' src='images/baseline/pexels-photo-459203.jpeg'></img></p>","null","","1551288228984","","","","","","",""
"null","","html-keyboard-response","390","2150626","0.0-8.0-0.0-3.4","43","<p><img class= 'stimulus' src='images/baseline/99_-_Machu_Picchu_-_Juin_2009.edit3.jpg'></img></p>","null","","1551288229083","","","","","","",""
"null","","html-keyboard-response","391","2150726","0.0-8.0-0.0-4.4","43","<p><img class= 'stimulus' src='images/baseline/pexels-photo-414491.jpeg'></img></p>","null","","1551288229184","4","","","","","",""
"null","","html-keyboard-response","392","2150825","0.0-8.0-0.0-5.4","43","<p><img class= 'stimulus' src='images/baseline/landscape3.jpg'></img></p>","null","","1551288229284","","","","","","",""
"null","","html-keyboard-response","393","2150926","0.0-8.0-0.0-6.4","43","<p><img class= 'stimulus left-rotate' src='images/target/sand-3339890_640.jpg'></img></p>","null","","1551288229383","6","","","","","",""
"null","","html-keyboard-response","394","2151027","0.0-8.0-0.0-7.4","43","<p><img class= 'stimulus' src='images/baseline/02962v.jpg'></img></p>","null","","1551288229484","","","","","","",""
"null","","html-keyboard-response","395","2151125","0.0-8.0-0.0-8.4","43","<p><img class= 'stimulus' src='images/baseline/03204v.jpg'></img></p>","null","","1551288229585","8","","","","","",""
"null","","html-keyboard-response","396","2151226","0.0-8.0-0.0-9.4","43","<p><img class= 'stimulus' src='images/baseline/sunny-landscape-with-dry-brush-and-mountain-background.jpg'></img></p>","null","","1551288229684","","","","","","",""
"null","","html-keyboard-response","397","2151325","0.0-8.0-0.0-10.4","43","<p><img class= 'stimulus' src='images/baseline/landscape31.jpg'></img></p>","null","","1551288229783","","","","","","",""
"null","","html-keyboard-response","398","2151426","0.0-8.0-0.0-11.4","43","<p><img class= 'stimulus' src='images/baseline/building_at_national_conservation.jpg'></img></p>","null","","1551288229884","","","","","","",""
"null","","html-keyboard-response","399","2151526","0.0-8.0-0.0-12.4","43","<p><img class= 'stimulus' src='images/baseline/__08_-_ITALY_-_Forli_under_snow_-_winter_landscape_of_city_(christmas).jpg'></img></p>","null","","1551288229984","12","","","","","",""
"null","","html-keyboard-response","400","2151625","0.0-8.0-0.0-13.4","43","<p><img class= 'stimulus' src='images/baseline/hiking-trail.jpg'></img></p>","null","","1551288230083","","","","","","",""
"null","","html-keyboard-response","401","2151726","0.0-8.0-0.0-14.4","43","<p><img class= 'stimulus' src='images/baseline/building2.jpg'></img></p>","null","","1551288230183","14","","","","","",""
"null","","html-keyboard-response","402","2151826","0.0-8.0-0.0-15.4","43","<p><img class= 'stimulus' src='images/baseline/pexels-photo-280222.jpeg'></img></p>","null","","1551288230283","","","","","","",""
"null","","html-keyboard-response","403","2151925","0.0-8.0-0.0-16.4","43","<p><img class= 'stimulus' src='images/baseline/house10.jpg'></img></p>","null","","1551288230383","","","","","","",""
"null","","html-keyboard-response","404","2152043","0.0-8.0-0.0-17.4","43","<p><img class= 'stimulus' src='images/baseline/field 4.jpg'></img></p>","null","","1551288230483","","","","","","",""
"874.4000000008382","","html-button-response","405","2153919","0.0-8.0-0.0-18.4","43","<div class = ""response_question"">WAS THE IMAGE ROTATED...</div>","","0","","","4","2","bas","left","test","true"
"974.5000000111759","","html-button-response","406","2154896","0.0-8.0-0.0-0.5","43","","","0","","","","","","","",""
"null","","html-keyboard-response","407","2154976","0.0-8.0-0.0-1.5","43","<p><img class= 'stimulus' src='images/baseline/04063v.jpg'></img></p>","null","","1551288233433","","","","","","",""
"null","","html-keyboard-response","408","2155076","0.0-8.0-0.0-2.5","43","<p><img class= 'stimulus' src='images/baseline/pexels-photo-534164.jpeg'></img></p>","null","","1551288233534","","","","","","",""
"null","","html-keyboard-response","409","2155176","0.0-8.0-0.0-3.5","43","<p><img class= 'stimulus' src='images/baseline/Linden,_paysage.jpg'></img></p>","null","","1551288233634","","","","","","",""
"null","","html-keyboard-response","410","2155277","0.0-8.0-0.0-4.5","43","<p><img class= 'stimulus' src='images/baseline/02947v.jpg'></img></p>","null","","1551288233734","4","","","","","",""
"null","","html-keyboard-response","411","2155376","0.0-8.0-0.0-5.5","43","<p><img class= 'stimulus' src='images/baseline/landscape16.jpg'></img></p>","null","","1551288233834","","","","","","",""
"null","","html-keyboard-response","412","2155475","0.0-8.0-0.0-6.5","43","<p><img class= 'stimulus' src='images/neutral/Dog 2.jpg'></img></p>","null","","1551288233933","6","","","","","",""
"null","","html-keyboard-response","413","2155575","0.0-8.0-0.0-7.5","43","<p><img class= 'stimulus' src='images/baseline/05252v.jpg'></img></p>","null","","1551288234035","","","","","","",""
"null","","html-keyboard-response","414","2155676","0.0-8.0-0.0-8.5","43","<p><img class= 'stimulus' src='images/baseline/04158v.jpg'></img></p>","null","","1551288234133","8","","","","","",""
"null","","html-keyboard-response","415","2155775","0.0-8.0-0.0-9.5","43","<p><img class= 'stimulus' src='images/baseline/red rocks from afar.jpg'></img></p>","null","","1551288234233","","","","","","",""
"null","","html-keyboard-response","416","2155876","0.0-8.0-0.0-10.5","43","<p><img class= 'stimulus' src='images/baseline/landscape23.jpg'></img></p>","null","","1551288234334","","","","","","",""
"null","","html-keyboard-response","417","2155976","0.0-8.0-0.0-11.5","43","<p><img class= 'stimulus' src='images/baseline/Beach 3.jpg'></img></p>","null","","1551288234432","","","","","","",""
"null","","html-keyboard-response","418","2156076","0.0-8.0-0.0-12.5","43","<p><img class= 'stimulus' src='images/baseline/05131v.jpg'></img></p>","null","","1551288234532","12","","","","","",""
"null","","html-keyboard-response","419","2156176","0.0-8.0-0.0-13.5","43","<p><img class= 'stimulus' src='images/baseline/house3.jpg'></img></p>","null","","1551288234633","","","","","","",""
"null","","html-keyboard-response","420","2156276","0.0-8.0-0.0-14.5","43","<p><img class= 'stimulus' src='images/target/petronas-towers-433081_1920.jpg'></img></p>","null","","1551288234733","14","","","","","",""
"null","","html-keyboard-response","421","2156377","0.0-8.0-0.0-15.5","43","<p><img class= 'stimulus' src='images/baseline/Desert_View_Indian_Wells.jpg'></img></p>","null","","1551288234834","","","","","","",""
"null","","html-keyboard-response","422","2156476","0.0-8.0-0.0-16.5","43","<p><img class= 'stimulus' src='images/baseline/05242v.jpg'></img></p>","null","","1551288234934","","","","","","",""
"null","","html-keyboard-response","423","2156592","0.0-8.0-0.0-17.5","43","<p><img class= 'stimulus' src='images/baseline/Street 2.jpg'></img></p>","null","","1551288235033","","","","","","",""
"851.1999999755062","","html-button-response","424","2158448","0.0-8.0-0.0-18.5","43","<div class = ""response_question"">WAS THE IMAGE ROTATED...</div>","","3","","","6","8","neu","right","test","true"
"806.0999999870546","","html-button-response","425","2159255","0.0-8.0-0.0-0.6","43","","","0","","","","","","","",""
"null","","html-keyboard-response","426","2159343","0.0-8.0-0.0-1.6","43","<p><img class= 'stimulus' src='images/baseline/Street 5.jpg'></img></p>","null","","1551288237799","","","","","","",""
"null","","html-keyboard-response","427","2159443","0.0-8.0-0.0-2.6","43","<p><img class= 'stimulus' src='images/baseline/Skyscraper 2.jpg'></img></p>","null","","1551288237900","","","","","","",""
"null","","html-keyboard-response","428","2159542","0.0-8.0-0.0-3.6","43","<p><img class= 'stimulus' src='images/baseline/house11.jpg'></img></p>","null","","1551288238000","","","","","","",""
"null","","html-keyboard-response","429","2159643","0.0-8.0-0.0-4.6","43","<p><img class= 'stimulus' src='images/baseline/pexels-photo-568236.jpeg'></img></p>","null","","1551288238100","4","","","","","",""
"null","","html-keyboard-response","430","2159743","0.0-8.0-0.0-5.6","43","<p><img class= 'stimulus' src='images/baseline/Sailing 3.jpg'></img></p>","null","","1551288238200","","","","","","",""
"null","","html-keyboard-response","431","2159842","0.0-8.0-0.0-6.6","43","<p><img class= 'stimulus' src='images/baseline/pexels-photo-210617.jpeg'></img></p>","null","","1551288238300","6","","","","","",""
"null","","html-keyboard-response","432","2159942","0.0-8.0-0.0-7.6","43","<p><img class= 'stimulus' src='images/baseline/landscape19.jpg'></img></p>","null","","1551288238400","","","","","","",""
"null","","html-keyboard-response","433","2160042","0.0-8.0-0.0-8.6","43","<p><img class= 'stimulus' src='images/baseline/landscape8.jpg'></img></p>","null","","1551288238500","8","","","","","",""
"null","","html-keyboard-response","434","2160143","0.0-8.0-0.0-9.6","43","<p><img class= 'stimulus' src='images/baseline/farmhouse8.jpg'></img></p>","null","","1551288238601","","","","","","",""
"null","","html-keyboard-response","435","2160243","0.0-8.0-0.0-10.6","43","<p><img class= 'stimulus' src='images/baseline/05186v.jpg'></img></p>","null","","1551288238700","","","","","","",""
"null","","html-keyboard-response","436","2160342","0.0-8.0-0.0-11.6","43","<p><img class= 'stimulus' src='images/baseline/02977v.jpg'></img></p>","null","","1551288238799","","","","","","",""
"null","","html-keyboard-response","437","2160442","0.0-8.0-0.0-12.6","43","<p><img class= 'stimulus' src='images/target/buildin5.jpg'></img></p>","null","","1551288238900","12","","","","","",""
"null","","html-keyboard-response","438","2160543","0.0-8.0-0.0-13.6","43","<p><img class= 'stimulus' src='images/baseline/02960v.jpg'></img></p>","null","","1551288239000","","","","","","",""
"null","","html-keyboard-response","439","2160642","0.0-8.0-0.0-14.6","43","<p><img class= 'stimulus' src='images/baseline/building6.jpg'></img></p>","null","","1551288239100","14","","","","","",""
"null","","html-keyboard-response","440","2160742","0.0-8.0-0.0-15.6","43","<p><img class= 'stimulus' src='images/baseline/building8.jpg'></img></p>","null","","1551288239200","","","","","","",""
"null","","html-keyboard-response","441","2160843","0.0-8.0-0.0-16.6","43","<p><img class= 'stimulus' src='images/baseline/landscape7.jpg'></img></p>","null","","1551288239301","","","","","","",""
"null","","html-keyboard-response","442","2160959","0.0-8.0-0.0-17.6","43","<p><img class= 'stimulus' src='images/baseline/building4.jpg'></img></p>","null","","1551288239400","","","","","","",""
"1493.300000002142","","html-button-response","443","2163456","0.0-8.0-0.0-18.6","43","<div class = ""response_question"">WAS THE IMAGE ROTATED...</div>","","3","","","4","8","bas","right","test","true"
"926.5000000009313","","html-button-response","444","2164384","0.0-8.0-0.0-0.7","43","","","0","","","","","","","",""
"null","","html-keyboard-response","445","2164460","0.0-8.0-0.0-1.7","43","<p><img class= 'stimulus' src='images/baseline/farmhouse7.jpg'></img></p>","null","","1551288242917","","","","","","",""
"null","","html-keyboard-response","446","2164559","0.0-8.0-0.0-2.7","43","<p><img class= 'stimulus' src='images/baseline/Nature 1.jpg'></img></p>","null","","1551288243016","","","","","","",""
"null","","html-keyboard-response","447","2164659","0.0-8.0-0.0-3.7","43","<p><img class= 'stimulus' src='images/baseline/Lake 14.jpg'></img></p>","null","","1551288243117","","","","","","",""
"null","","html-keyboard-response","448","2164759","0.0-8.0-0.0-4.7","43","<p><img class= 'stimulus' src='images/neutral/Orangutan 1.jpg'></img></p>","null","","1551288243217","4","","","","","",""
"null","","html-keyboard-response","449","2164860","0.0-8.0-0.0-5.7","43","<p><img class= 'stimulus' src='images/baseline/building9.jpg'></img></p>","null","","1551288243316","","","","","","",""
"null","","html-keyboard-response","450","2164959","0.0-8.0-0.0-6.7","43","<p><img class= 'stimulus' src='images/baseline/landscape12.jpg'></img></p>","null","","1551288243417","6","","","","","",""
"null","","html-keyboard-response","451","2165060","0.0-8.0-0.0-7.7","43","<p><img class= 'stimulus' src='images/baseline/lookout_tower.jpg'></img></p>","null","","1551288243517","","","","","","",""
"null","","html-keyboard-response","452","2165159","0.0-8.0-0.0-8.7","43","<p><img class= 'stimulus' src='images/baseline/05279v.jpg'></img></p>","null","","1551288243616","8","","","","","",""
"null","","html-keyboard-response","453","2165259","0.0-8.0-0.0-9.7","43","<p><img class= 'stimulus' src='images/baseline/kokkari-1523011968Xfr.jpg'></img></p>","null","","1551288243718","","","","","","",""
"null","","html-keyboard-response","454","2165359","0.0-8.0-0.0-10.7","43","<p><img class= 'stimulus' src='images/baseline/house1.jpg'></img></p>","null","","1551288243816","","","","","","",""
"null","","html-keyboard-response","455","2165459","0.0-8.0-0.0-11.7","43","<p><img class= 'stimulus' src='images/baseline/lake 2.jpg'></img></p>","null","","1551288243917","","","","","","",""
"null","","html-keyboard-response","456","2165560","0.0-8.0-0.0-12.7","43","<p><img class= 'stimulus' src='images/target/cactus1.jpg'></img></p>","null","","1551288244017","12","","","","","",""
"null","","html-keyboard-response","457","2165658","0.0-8.0-0.0-13.7","43","<p><img class= 'stimulus' src='images/baseline/architecture-956332_1280.jpg'></img></p>","null","","1551288244116","","","","","","",""
"null","","html-keyboard-response","458","2165759","0.0-8.0-0.0-14.7","43","<p><img class= 'stimulus' src='images/baseline/city-silhouette-at-sunset-871291580819Esw.jpg'></img></p>","null","","1551288244217","14","","","","","",""
"null","","html-keyboard-response","459","2165859","0.0-8.0-0.0-15.7","43","<p><img class= 'stimulus' src='images/baseline/pexels-photo-541101.jpeg'></img></p>","null","","1551288244316","","","","","","",""
"null","","html-keyboard-response","460","2165959","0.0-8.0-0.0-16.7","43","<p><img class= 'stimulus' src='images/baseline/pexels-photo-750108.jpeg'></img></p>","null","","1551288244417","","","","","","",""
"null","","html-keyboard-response","461","2166077","0.0-8.0-0.0-17.7","43","<p><img class= 'stimulus' src='images/baseline/cranes 1.jpg'></img></p>","null","","1551288244517","","","","","","",""
"4502.20000001695","","html-button-response","462","2171592","0.0-8.0-0.0-18.7","43","<div class = ""response_question"">WAS THE IMAGE ROTATED...</div>","","4","","","4","8","neu","right","test","true"
"1262.0000000167638","","html-button-response","463","2172855","0.0-8.0-0.0-0.8","43","","","0","","","","","","","",""
"null","","html-keyboard-response","464","2172943","0.0-8.0-0.0-1.8","43","<p><img class= 'stimulus' src='images/baseline/Sunset 6.jpg'></img></p>","null","","1551288251400","","","","","","",""
"null","","html-keyboard-response","465","2173043","0.0-8.0-0.0-2.8","43","<p><img class= 'stimulus' src='images/baseline/landscape6.jpg'></img></p>","null","","1551288251499","","","","","","",""
"null","","html-keyboard-response","466","2173143","0.0-8.0-0.0-3.8","43","<p><img class= 'stimulus' src='images/baseline/Freudenberg_sg_Switzerland.jpg'></img></p>","null","","1551288251600","","","","","","",""
"null","","html-keyboard-response","467","2173244","0.0-8.0-0.0-4.8","43","<p><img class= 'stimulus' src='images/neutral/Neutral pose 1.jpg'></img></p>","null","","1551288251700","4","","","","","",""
"null","","html-keyboard-response","468","2173344","0.0-8.0-0.0-5.8","43","<p><img class= 'stimulus' src='images/baseline/04014v.jpg'></img></p>","null","","1551288251800","","","","","","",""
"null","","html-keyboard-response","469","2173444","0.0-8.0-0.0-6.8","43","<p><img class= 'stimulus left-rotate' src='images/target/pexels-photo-1534411.jpeg'></img></p>","null","","1551288251901","6","","","","","",""
"null","","html-keyboard-response","470","2173543","0.0-8.0-0.0-7.8","43","<p><img class= 'stimulus' src='images/baseline/agriculture-cereal-clouds-175389.jpg'></img></p>","null","","1551288252000","","","","","","",""
"null","","html-keyboard-response","471","2173644","0.0-8.0-0.0-8.8","43","<p><img class= 'stimulus' src='images/baseline/farmhouse4.jpg'></img></p>","null","","1551288252101","8","","","","","",""
"null","","html-keyboard-response","472","2173743","0.0-8.0-0.0-9.8","43","<p><img class= 'stimulus' src='images/baseline/building3.jpg'></img></p>","null","","1551288252200","","","","","","",""
"null","","html-keyboard-response","473","2173843","0.0-8.0-0.0-10.8","43","<p><img class= 'stimulus' src='images/baseline/03045v.jpg'></img></p>","null","","1551288252300","","","","","","",""
"null","","html-keyboard-response","474","2173943","0.0-8.0-0.0-11.8","43","<p><img class= 'stimulus' src='images/baseline/Happy pose 3.jpg'></img></p>","null","","1551288252400","","","","","","",""
"null","","html-keyboard-response","475","2174042","0.0-8.0-0.0-12.8","43","<p><img class= 'stimulus' src='images/baseline/03112v.jpg'></img></p>","null","","1551288252500","12","","","","","",""
"null","","html-keyboard-response","476","2174143","0.0-8.0-0.0-13.8","43","<p><img class= 'stimulus' src='images/baseline/Sunset 5.jpg'></img></p>","null","","1551288252600","","","","","","",""
"null","","html-keyboard-response","477","2174243","0.0-8.0-0.0-14.8","43","<p><img class= 'stimulus' src='images/baseline/03041v.jpg'></img></p>","null","","1551288252701","14","","","","","",""
"null","","html-keyboard-response","478","2174342","0.0-8.0-0.0-15.8","43","<p><img class= 'stimulus' src='images/baseline/04117v.jpg'></img></p>","null","","1551288252802","","","","","","",""
"null","","html-keyboard-response","479","2174442","0.0-8.0-0.0-16.8","43","<p><img class= 'stimulus' src='images/baseline/empire-state-building.jpg'></img></p>","null","","1551288252901","","","","","","",""
"null","","html-keyboard-response","480","2174560","0.0-8.0-0.0-17.8","43","<p><img class= 'stimulus' src='images/baseline/05167v.jpg'></img></p>","null","","1551288253001","","","","","","",""
"1724.4000000064261","","html-button-response","481","2177287","0.0-8.0-0.0-18.8","43","<div class = ""response_question"">WAS THE IMAGE ROTATED...</div>","","0","","","4","2","neu","left","test","true"
"822.6000000135973","","html-button-response","482","2178113","0.0-8.0-0.0-0.9","43","","","0","","","","","","","",""
"null","","html-keyboard-response","483","2178193","0.0-8.0-0.0-1.9","43","<p><img class= 'stimulus' src='images/baseline/Grass 6.jpg'></img></p>","null","","1551288256650","","","","","","",""
"null","","html-keyboard-response","484","2178293","0.0-8.0-0.0-2.9","43","<p><img class= 'stimulus' src='images/baseline/horse_statue.jpg'></img></p>","null","","1551288256750","","","","","","",""
"null","","html-keyboard-response","485","2178393","0.0-8.0-0.0-3.9","43","<p><img class= 'stimulus' src='images/baseline/pexels-photo-1287089.jpeg'></img></p>","null","","1551288256850","","","","","","",""
"null","","html-keyboard-response","486","2178493","0.0-8.0-0.0-4.9","43","<p><img class= 'stimulus' src='images/negative/Cockroach 4.jpg'></img></p>","null","","1551288256952","4","","","","","",""
"null","","html-keyboard-response","487","2178593","0.0-8.0-0.0-5.9","43","<p><img class= 'stimulus' src='images/baseline/05264v.jpg'></img></p>","null","","1551288257051","","","","","","",""
"null","","html-keyboard-response","488","2178693","0.0-8.0-0.0-6.9","43","<p><img class= 'stimulus' src='images/baseline/house7.jpg'></img></p>","null","","1551288257151","6","","","","","",""
"null","","html-keyboard-response","489","2178793","0.0-8.0-0.0-7.9","43","<p><img class= 'stimulus' src='images/baseline/town-square-in-wroclaw-1539098440MZy.jpg'></img></p>","null","","1551288257250","","","","","","",""
"null","","html-keyboard-response","490","2178893","0.0-8.0-0.0-8.9","43","<p><img class= 'stimulus' src='images/baseline/05292v.jpg'></img></p>","null","","1551288257351","8","","","","","",""
"null","","html-keyboard-response","491","2178993","0.0-8.0-0.0-9.9","43","<p><img class= 'stimulus' src='images/baseline/foreclosed_home.jpg'></img></p>","null","","1551288257452","","","","","","",""
"null","","html-keyboard-response","492","2179092","0.0-8.0-0.0-10.9","43","<p><img class= 'stimulus' src='images/baseline/landscape38.jpg'></img></p>","null","","1551288257550","","","","","","",""
"null","","html-keyboard-response","493","2179193","0.0-8.0-0.0-11.9","43","<p><img class= 'stimulus' src='images/baseline/pexels-photo-351264.jpeg'></img></p>","null","","1551288257649","","","","","","",""
"null","","html-keyboard-response","494","2179293","0.0-8.0-0.0-12.9","43","<p><img class= 'stimulus' src='images/target/building1.jpg'></img></p>","null","","1551288257749","12","","","","","",""
"null","","html-keyboard-response","495","2179393","0.0-8.0-0.0-13.9","43","<p><img class= 'stimulus' src='images/baseline/Sky 1.jpg'></img></p>","null","","1551288257851","","","","","","",""
"null","","html-keyboard-response","496","2179493","0.0-8.0-0.0-14.9","43","<p><img class= 'stimulus' src='images/baseline/river 1.jpg'></img></p>","null","","1551288257950","14","","","","","",""
"null","","html-keyboard-response","497","2179593","0.0-8.0-0.0-15.9","43","<p><img class= 'stimulus' src='images/baseline/05303v.jpg'></img></p>","null","","1551288258050","","","","","","",""
"null","","html-keyboard-response","498","2179692","0.0-8.0-0.0-16.9","43","<p><img class= 'stimulus' src='images/baseline/04162v.jpg'></img></p>","null","","1551288258152","","","","","","",""
"null","","html-keyboard-response","499","2179809","0.0-8.0-0.0-17.9","43","<p><img class= 'stimulus' src='images/baseline/landscape2.jpg'></img></p>","null","","1551288258251","","","","","","",""
"2090.8000000054017","","html-button-response","500","2182902","0.0-8.0-0.0-18.9","43","<div class = ""response_question"">WAS THE IMAGE ROTATED...</div>","","4","","","4","8","neg","right","test","true"
"813.3000000086613","","html-button-response","501","2183718","0.0-8.0-0.0-0.10","43","","","0","","","","","","","",""
"null","","html-keyboard-response","502","2183790","0.0-8.0-0.0-1.10","43","<p><img class= 'stimulus' src='images/baseline/red-rocks-park.jpg'></img></p>","null","","1551288262247","","","","","","",""
"null","","html-keyboard-response","503","2183891","0.0-8.0-0.0-2.10","43","<p><img class= 'stimulus' src='images/baseline/Path 1.jpg'></img></p>","null","","1551288262348","","","","","","",""
"null","","html-keyboard-response","504","2183991","0.0-8.0-0.0-3.10","43","<p><img class= 'stimulus' src='images/baseline/farmhouse9.jpg'></img></p>","null","","1551288262448","","","","","","",""
"null","","html-keyboard-response","505","2184091","0.0-8.0-0.0-4.10","43","<p><img class= 'stimulus' src='images/baseline/04179v.jpg'></img></p>","null","","1551288262548","4","","","","","",""
"null","","html-keyboard-response","506","2184190","0.0-8.0-0.0-5.10","43","<p><img class= 'stimulus' src='images/baseline/house2.jpg'></img></p>","null","","1551288262649","","","","","","",""
"null","","html-keyboard-response","507","2184291","0.0-8.0-0.0-6.10","43","<p><img class= 'stimulus' src='images/baseline/pexels-photo-1837621.jpeg'></img></p>","null","","1551288262748","6","","","","","",""
