"rt","responses","trial_type","trial_index","time_elapsed","internal_node_id","participant_id","stimulus","key_press","button_pressed","stim_onset","sequence_position","distractor_position","target_lag","distractor_type","target_orientation","phase","correct"
"4243.2999999999765","{""Q0"":""04""}","survey-text","0","4248","0.0-0.0","04","","","","","","","","","","",""
"1999026.1","","html-keyboard-response","1","2003285","0.0-1.0","04","Welcome to the experiment.","67","","","","","","","","",""
"29658.100000000326","","html-button-response","2","2032947","0.0-2.0","04","<p>Several images will be presented sequentially.        Each image will only be on the screen for about 100 milliseconds.</p>        <p> One of the images may be rotated 90 degrees right or left.        Watch for this image and remember if it is rotated right or left.</p>               <p>Images of people and animals will appear, and sometimes they will be unpleasant.        These will never be the rotated target image.</p>","","0","","","","","","","",""
"2262.100000000093","","html-button-response","3","2035210","0.0-3.0","04","<p><img class=""stimulus left-rotate"" src=""images/target/buildin2.png""></img></p><p>This is an example of an image rotated to the left.</p>","","0","","","","","","","",""
"1182.8000000000466","","html-button-response","4","2036394","0.0-4.0","04","<p><img class=""stimulus"" src=""images/target/building2.jpg""></img></p><p>This is an example of an image rotated to the right.</p>","","0","","","","","","","",""
"9207","","html-button-response","5","2045602","0.0-5.0","04","<p>We will now begin a short practice session.</p>         <p>A + symbol will appear in the middle of the screen. Please fix your gaze on the center of the +, and then click the mouse button to begin the image sequence.</p>         <p>Please avoid blinking or eye movements while the images are on the screen.</p>        <p>The image sequence will start relatively slow. After a few sequences, it will speed up.</p>","","0","","","","","","","",""
"15374.699999999953","","html-button-response","6","2060978","0.0-6.0-0.0","04","","","0","","","","","","","",""
"null","","html-keyboard-response","7","2061156","0.0-6.0-1.0","04","<p><img class= 'stimulus' src='images/baseline/03041v.jpg'></img></p>","null","","1549582368101","","","","","","",""
"null","","html-keyboard-response","8","2061355","0.0-6.0-2.0","04","<p><img class= 'stimulus' src='images/baseline/05280v.jpg'></img></p>","null","","1549582368300","","","","","","",""
"null","","html-keyboard-response","9","2061555","0.0-6.0-3.0","04","<p><img class= 'stimulus' src='images/baseline/05189v.jpg'></img></p>","null","","1549582368503","","","","","","",""
"null","","html-keyboard-response","10","2061756","0.0-6.0-4.0","04","<p><img class= 'stimulus' src='images/baseline/04021v.jpg'></img></p>","null","","1549582368701","4","","","","","",""
"null","","html-keyboard-response","11","2061958","0.0-6.0-5.0","04","<p><img class= 'stimulus' src='images/baseline/farmhouse6.jpg'></img></p>","null","","1549582368902","","","","","","",""
"null","","html-keyboard-response","12","2062156","0.0-6.0-6.0","04","<p><img class= 'stimulus' src='images/baseline/Street 4.jpg'></img></p>","null","","1549582369103","6","","","","","",""
"null","","html-keyboard-response","13","2062358","0.0-6.0-7.0","04","<p><img class= 'stimulus' src='images/baseline/Skyscraper 1.jpg'></img></p>","null","","1549582369303","","","","","","",""
"null","","html-keyboard-response","14","2062558","0.0-6.0-8.0","04","<p><img class= 'stimulus' src='images/baseline/house6.jpg'></img></p>","null","","1549582369503","8","","","","","",""
"null","","html-keyboard-response","15","2062756","0.0-6.0-9.0","04","<p><img class= 'stimulus' src='images/baseline/Lake 14.jpg'></img></p>","null","","1549582369703","","","","","","",""
"null","","html-keyboard-response","16","2062957","0.0-6.0-10.0","04","<p><img class= 'stimulus' src='images/baseline/Sky 1.jpg'></img></p>","null","","1549582369903","","","","","","",""
"null","","html-keyboard-response","17","2063157","0.0-6.0-11.0","04","<p><img class= 'stimulus' src='images/baseline/church-silhouette-8712964986014Kb.jpg'></img></p>","null","","1549582370104","","","","","","",""
"null","","html-keyboard-response","18","2063358","0.0-6.0-12.0","04","<p><img class= 'stimulus left-rotate' src='images/target/Tree-Landscape-Winter-Nature-Winter-Trees-Snow-2117951.jpg'></img></p>","null","","1549582370302","12","","","","","",""
"null","","html-keyboard-response","19","2063558","0.0-6.0-13.0","04","<p><img class= 'stimulus' src='images/baseline/Lake 3.jpg'></img></p>","null","","1549582370502","","","","","","",""
"null","","html-keyboard-response","20","2063758","0.0-6.0-14.0","04","<p><img class= 'stimulus' src='images/baseline/04158v.jpg'></img></p>","null","","1549582370703","14","","","","","",""
"null","","html-keyboard-response","21","2063958","0.0-6.0-15.0","04","<p><img class= 'stimulus' src='images/baseline/Lake 15.jpg'></img></p>","null","","1549582370903","","","","","","",""
"null","","html-keyboard-response","22","2064157","0.0-6.0-16.0","04","<p><img class= 'stimulus' src='images/baseline/house1.jpg'></img></p>","null","","1549582371103","","","","","","",""
"null","","html-keyboard-response","23","2064374","0.0-6.0-17.0","04","<p><img class= 'stimulus' src='images/baseline/landscape16.jpg'></img></p>","null","","1549582371302","","","","","","",""
"4319.299999999581","","html-button-response","24","2069698","0.0-6.0-18.0","04","<div class = ""response_question"">WAS THE IMAGE ROTATED...</div>","","0","","","4","8","bas","left","practice","true"
"3501.2000000001863","","html-button-response","25","2073202","0.0-6.0-0.1","04","","","0","","","","","","","",""
"null","","html-keyboard-response","26","2073390","0.0-6.0-1.1","04","<p><img class= 'stimulus' src='images/baseline/Street 1.jpg'></img></p>","null","","1549582380335","","","","","","",""
"null","","html-keyboard-response","27","2073590","0.0-6.0-2.1","04","<p><img class= 'stimulus' src='images/baseline/Grass 6.jpg'></img></p>","null","","1549582380534","","","","","","",""
"null","","html-keyboard-response","28","2073790","0.0-6.0-3.1","04","<p><img class= 'stimulus' src='images/baseline/geese-flying-over-lake-at-dusk.jpg'></img></p>","null","","1549582380735","","","","","","",""
"null","","html-keyboard-response","29","2073989","0.0-6.0-4.1","04","<p><img class= 'stimulus' src='images/baseline/05264v.jpg'></img></p>","null","","1549582380935","4","","","","","",""
"null","","html-keyboard-response","30","2074189","0.0-6.0-5.1","04","<p><img class= 'stimulus' src='images/baseline/farmhouse2.jpg'></img></p>","null","","1549582381135","","","","","","",""
"null","","html-keyboard-response","31","2074390","0.0-6.0-6.1","04","<p><img class= 'stimulus' src='images/baseline/building3.jpg'></img></p>","null","","1549582381334","6","","","","","",""
"null","","html-keyboard-response","32","2074589","0.0-6.0-7.1","04","<p><img class= 'stimulus' src='images/baseline/Aletschgletscher-Eggishorn.jpg'></img></p>","null","","1549582381535","","","","","","",""
"null","","html-keyboard-response","33","2074789","0.0-6.0-8.1","04","<p><img class= 'stimulus' src='images/baseline/pexels-photo-59321.jpeg'></img></p>","null","","1549582381735","8","","","","","",""
"null","","html-keyboard-response","34","2074990","0.0-6.0-9.1","04","<p><img class= 'stimulus' src='images/baseline/Kocherbaumwald-01.jpg'></img></p>","null","","1549582381934","","","","","","",""
"null","","html-keyboard-response","35","2075189","0.0-6.0-10.1","04","<p><img class= 'stimulus' src='images/baseline/autumn-in-red-rocks-park.jpg'></img></p>","null","","1549582382135","","","","","","",""
"null","","html-keyboard-response","36","2075390","0.0-6.0-11.1","04","<p><img class= 'stimulus' src='images/baseline/03056v.jpg'></img></p>","null","","1549582382335","","","","","","",""
"null","","html-keyboard-response","37","2075591","0.0-6.0-12.1","04","<p><img class= 'stimulus' src='images/target/transamerica-pyramid-530061_640.jpg'></img></p>","null","","1549582382535","12","","","","","",""
"null","","html-keyboard-response","38","2075791","0.0-6.0-13.1","04","<p><img class= 'stimulus' src='images/baseline/pexels-photo-1837621.jpeg'></img></p>","null","","1549582382736","","","","","","",""
"null","","html-keyboard-response","39","2075990","0.0-6.0-14.1","04","<p><img class= 'stimulus' src='images/baseline/Paysage_enneige_02.jpg'></img></p>","null","","1549582382937","14","","","","","",""
"null","","html-keyboard-response","40","2076190","0.0-6.0-15.1","04","<p><img class= 'stimulus' src='images/baseline/04229v.jpg'></img></p>","null","","1549582383136","","","","","","",""
"null","","html-keyboard-response","41","2076391","0.0-6.0-16.1","04","<p><img class= 'stimulus' src='images/baseline/Sunset 5.jpg'></img></p>","null","","1549582383336","","","","","","",""
"null","","html-keyboard-response","42","2076607","0.0-6.0-17.1","04","<p><img class= 'stimulus' src='images/baseline/Beach 8.jpg'></img></p>","null","","1549582383536","","","","","","",""
"2262.600000000093","","html-button-response","43","2079874","0.0-6.0-18.1","04","<div class = ""response_question"">WAS THE IMAGE ROTATED...</div>","","3","","","4","8","bas","right","practice","true"
"3294.3000000000466","","html-button-response","44","2083170","0.0-6.0-0.2","04","","","0","","","","","","","",""
"null","","html-keyboard-response","45","2083356","0.0-6.0-1.2","04","<p><img class= 'stimulus' src='images/baseline/red-rocks-park.jpg'></img></p>","null","","1549582390303","","","","","","",""
"null","","html-keyboard-response","46","2083557","0.0-6.0-2.2","04","<p><img class= 'stimulus' src='images/baseline/house11.jpg'></img></p>","null","","1549582390501","","","","","","",""
"null","","html-keyboard-response","47","2083757","0.0-6.0-3.2","04","<p><img class= 'stimulus' src='images/baseline/05279v.jpg'></img></p>","null","","1549582390703","","","","","","",""
"null","","html-keyboard-response","48","2083957","0.0-6.0-4.2","04","<p><img class= 'stimulus' src='images/baseline/03045v.jpg'></img></p>","null","","1549582390902","4","","","","","",""
"null","","html-keyboard-response","49","2084157","0.0-6.0-5.2","04","<p><img class= 'stimulus' src='images/baseline/building6.jpg'></img></p>","null","","1549582391102","","","","","","",""
"null","","html-keyboard-response","50","2084358","0.0-6.0-6.2","04","<p><img class= 'stimulus' src='images/target/building19.jpg'></img></p>","null","","1549582391303","6","","","","","",""
"null","","html-keyboard-response","51","2084557","0.0-6.0-7.2","04","<p><img class= 'stimulus' src='images/baseline/farmhouse1.jpg'></img></p>","null","","1549582391502","","","","","","",""
"null","","html-keyboard-response","52","2084758","0.0-6.0-8.2","04","<p><img class= 'stimulus' src='images/baseline/autumn-landscape-with-lake-fall-trees-mountains.jpg'></img></p>","null","","1549582391704","8","","","","","",""
"null","","html-keyboard-response","53","2084958","0.0-6.0-9.2","04","<p><img class= 'stimulus' src='images/baseline/03201v.jpg'></img></p>","null","","1549582391903","","","","","","",""
"null","","html-keyboard-response","54","2085159","0.0-6.0-10.2","04","<p><img class= 'stimulus' src='images/baseline/Lake 4.jpg'></img></p>","null","","1549582392103","","","","","","",""
"null","","html-keyboard-response","55","2085359","0.0-6.0-11.2","04","<p><img class= 'stimulus' src='images/baseline/05203v.jpg'></img></p>","null","","1549582392304","","","","","","",""
"null","","html-keyboard-response","56","2085560","0.0-6.0-12.2","04","<p><img class= 'stimulus' src='images/baseline/Path 1.jpg'></img></p>","null","","1549582392504","12","","","","","",""
"null","","html-keyboard-response","57","2085760","0.0-6.0-13.2","04","<p><img class= 'stimulus' src='images/baseline/03148v.jpg'></img></p>","null","","1549582392705","","","","","","",""
"null","","html-keyboard-response","58","2085959","0.0-6.0-14.2","04","<p><img class= 'stimulus' src='images/baseline/flooded-bridge.jpg'></img></p>","null","","1549582392905","14","","","","","",""
"null","","html-keyboard-response","59","2086159","0.0-6.0-15.2","04","<p><img class= 'stimulus' src='images/baseline/02962v.jpg'></img></p>","null","","1549582393104","","","","","","",""
"null","","html-keyboard-response","60","2086359","0.0-6.0-16.2","04","<p><img class= 'stimulus' src='images/baseline/house8.jpg'></img></p>","null","","1549582393306","","","","","","",""
"null","","html-keyboard-response","61","2086575","0.0-6.0-17.2","04","<p><img class= 'stimulus' src='images/baseline/cyrillic.jpg'></img></p>","null","","1549582393504","","","","","","",""
"1868.8000000002794","","html-button-response","62","2089451","0.0-6.0-18.2","04","<div class = ""response_question"">WAS THE IMAGE ROTATED...</div>","","3","","","4","2","bas","right","practice","true"
"4782.40000000014","","html-button-response","63","2094231","0.0-6.0-0.3","04","","","0","","","","","","","",""
"null","","html-keyboard-response","64","2094404","0.0-6.0-1.3","04","<p><img class= 'stimulus' src='images/baseline/04130v.jpg'></img></p>","null","","1549582401349","","","","","","",""
"null","","html-keyboard-response","65","2094604","0.0-6.0-2.3","04","<p><img class= 'stimulus' src='images/baseline/landscape39.jpg'></img></p>","null","","1549582401551","","","","","","",""
"null","","html-keyboard-response","66","2094805","0.0-6.0-3.3","04","<p><img class= 'stimulus' src='images/baseline/lake 2.jpg'></img></p>","null","","1549582401749","","","","","","",""
"null","","html-keyboard-response","67","2095005","0.0-6.0-4.3","04","<p><img class= 'stimulus' src='images/baseline/04179v.jpg'></img></p>","null","","1549582401950","4","","","","","",""
"null","","html-keyboard-response","68","2095204","0.0-6.0-5.3","04","<p><img class= 'stimulus' src='images/baseline/horse_statue.jpg'></img></p>","null","","1549582402149","","","","","","",""
"null","","html-keyboard-response","69","2095405","0.0-6.0-6.3","04","<p><img class= 'stimulus' src='images/baseline/agriculture-cereal-clouds-175389.jpg'></img></p>","null","","1549582402350","6","","","","","",""
"null","","html-keyboard-response","70","2095605","0.0-6.0-7.3","04","<p><img class= 'stimulus' src='images/baseline/lone-old-cottonwood-tree.jpg'></img></p>","null","","1549582402550","","","","","","",""
"null","","html-keyboard-response","71","2095804","0.0-6.0-8.3","04","<p><img class= 'stimulus' src='images/target/fishhouse.jpg'></img></p>","null","","1549582402750","8","","","","","",""
"null","","html-keyboard-response","72","2096006","0.0-6.0-9.3","04","<p><img class= 'stimulus' src='images/baseline/farmhouse8.jpg'></img></p>","null","","1549582402951","","","","","","",""
"null","","html-keyboard-response","73","2096206","0.0-6.0-10.3","04","<p><img class= 'stimulus' src='images/baseline/Sailing 3.jpg'></img></p>","null","","1549582403151","","","","","","",""
"null","","html-keyboard-response","74","2096406","0.0-6.0-11.3","04","<p><img class= 'stimulus' src='images/baseline/snowy tree.jpg'></img></p>","null","","1549582403351","","","","","","",""
"null","","html-keyboard-response","75","2096606","0.0-6.0-12.3","04","<p><img class= 'stimulus' src='images/baseline/Nature 2.jpg'></img></p>","null","","1549582403550","12","","","","","",""
"null","","html-keyboard-response","76","2096805","0.0-6.0-13.3","04","<p><img class= 'stimulus' src='images/baseline/trees 23.jpg'></img></p>","null","","1549582403751","","","","","","",""
"null","","html-keyboard-response","77","2097005","0.0-6.0-14.3","04","<p><img class= 'stimulus' src='images/baseline/Road 1.jpg'></img></p>","null","","1549582403951","14","","","","","",""
"null","","html-keyboard-response","78","2097206","0.0-6.0-15.3","04","<p><img class= 'stimulus' src='images/baseline/landscape31.jpg'></img></p>","null","","1549582404150","","","","","","",""
"null","","html-keyboard-response","79","2097405","0.0-6.0-16.3","04","<p><img class= 'stimulus' src='images/baseline/04031v.jpg'></img></p>","null","","1549582404351","","","","","","",""
"null","","html-keyboard-response","80","2097623","0.0-6.0-17.3","04","<p><img class= 'stimulus' src='images/baseline/landscape37.jpg'></img></p>","null","","1549582404551","","","","","","",""
"3133.899999999907","","html-button-response","81","2101761","0.0-6.0-18.3","04","<div class = ""response_question"">WAS THE IMAGE ROTATED...</div>","","3","","","6","2","bas","right","practice","true"
"10957.899999999907","","html-button-response","82","2112719","0.0-6.0-0.4","04","","","0","","","","","","","",""
"null","","html-keyboard-response","83","2112854","0.0-6.0-1.4","04","<p><img class= 'stimulus' src='images/baseline/pexels-photo-1261728.jpeg'></img></p>","null","","1549582419850","","","","","","",""
"null","","html-keyboard-response","84","2113004","0.0-6.0-2.4","04","<p><img class= 'stimulus' src='images/baseline/landscape35.jpg'></img></p>","null","","1549582420001","","","","","","",""
"null","","html-keyboard-response","85","2113154","0.0-6.0-3.4","04","<p><img class= 'stimulus' src='images/baseline/dirt-road-or-trail-through-park.jpg'></img></p>","null","","1549582420149","","","","","","",""
"null","","html-keyboard-response","86","2113304","0.0-6.0-4.4","04","<p><img class= 'stimulus' src='images/baseline/landscape14.jpg'></img></p>","null","","1549582420299","4","","","","","",""
"null","","html-keyboard-response","87","2113454","0.0-6.0-5.4","04","<p><img class= 'stimulus' src='images/baseline/landscape38.jpg'></img></p>","null","","1549582420449","","","","","","",""
"null","","html-keyboard-response","88","2113603","0.0-6.0-6.4","04","<p><img class= 'stimulus' src='images/baseline/sunset-over-the-lake.jpg'></img></p>","null","","1549582420600","6","","","","","",""
"null","","html-keyboard-response","89","2113754","0.0-6.0-7.4","04","<p><img class= 'stimulus' src='images/baseline/landscape22.jpg'></img></p>","null","","1549582420749","","","","","","",""
"null","","html-keyboard-response","90","2113904","0.0-6.0-8.4","04","<p><img class= 'stimulus' src='images/baseline/Niinsaare_jarv.jpg'></img></p>","null","","1549582420899","8","","","","","",""
"null","","html-keyboard-response","91","2114054","0.0-6.0-9.4","04","<p><img class= 'stimulus' src='images/baseline/landscape23.jpg'></img></p>","null","","1549582421050","","","","","","",""
"null","","html-keyboard-response","92","2114204","0.0-6.0-10.4","04","<p><img class= 'stimulus' src='images/baseline/bird-flying-at-sunset.jpg'></img></p>","null","","1549582421201","","","","","","",""
"null","","html-keyboard-response","93","2114353","0.0-6.0-11.4","04","<p><img class= 'stimulus' src='images/baseline/sunny-landscape-with-dry-brush-and-mountain-background.jpg'></img></p>","null","","1549582421349","","","","","","",""
"null","","html-keyboard-response","94","2114504","0.0-6.0-12.4","04","<p><img class= 'stimulus' src='images/baseline/landscape1.jpg'></img></p>","null","","1549582421500","12","","","","","",""
"null","","html-keyboard-response","95","2114653","0.0-6.0-13.4","04","<p><img class= 'stimulus' src='images/baseline/landscape40.jpg'></img></p>","null","","1549582421650","","","","","","",""
"null","","html-keyboard-response","96","2114803","0.0-6.0-14.4","04","<p><img class= 'stimulus' src='images/target/tree-740901_1280.jpg'></img></p>","null","","1549582421798","14","","","","","",""
"null","","html-keyboard-response","97","2114953","0.0-6.0-15.4","04","<p><img class= 'stimulus' src='images/baseline/04162v.jpg'></img></p>","null","","1549582421949","","","","","","",""
"null","","html-keyboard-response","98","2115104","0.0-6.0-16.4","04","<p><img class= 'stimulus' src='images/baseline/02982v.jpg'></img></p>","null","","1549582422099","","","","","","",""
"null","","html-keyboard-response","99","2115270","0.0-6.0-17.4","04","<p><img class= 'stimulus' src='images/baseline/Desert_View_Indian_Wells.jpg'></img></p>","null","","1549582422250","","","","","","",""
"1214.1999999997206","","html-button-response","100","2117504","0.0-6.0-18.4","04","<div class = ""response_question"">WAS THE IMAGE ROTATED...</div>","","3","","","6","8","bas","right","practice","true"
"15030.30000000028","","html-button-response","101","2132536","0.0-6.0-0.5","04","","","0","","","","","","","",""
"null","","html-keyboard-response","102","2132670","0.0-6.0-1.5","04","<p><img class= 'stimulus' src='images/baseline/pexels-photo-750108.jpeg'></img></p>","null","","1549582439666","","","","","","",""
"null","","html-keyboard-response","103","2132820","0.0-6.0-2.5","04","<p><img class= 'stimulus' src='images/baseline/seoul-410266_1920.jpg'></img></p>","null","","1549582439816","","","","","","",""
"null","","html-keyboard-response","104","2132970","0.0-6.0-3.5","04","<p><img class= 'stimulus' src='images/baseline/Paysage_karabagh_02.jpg'></img></p>","null","","1549582439965","","","","","","",""
"null","","html-keyboard-response","105","2133120","0.0-6.0-4.5","04","<p><img class= 'stimulus' src='images/baseline/04085v.jpg'></img></p>","null","","1549582440115","4","","","","","",""
"null","","html-keyboard-response","106","2133270","0.0-6.0-5.5","04","<p><img class= 'stimulus' src='images/baseline/valley 2.jpg'></img></p>","null","","1549582440265","","","","","","",""
"null","","html-keyboard-response","107","2133419","0.0-6.0-6.5","04","<p><img class= 'stimulus left-rotate' src='images/target/church-2306128_640.jpg'></img></p>","null","","1549582440417","6","","","","","",""
"null","","html-keyboard-response","108","2133570","0.0-6.0-7.5","04","<p><img class= 'stimulus' src='images/baseline/03204v.jpg'></img></p>","null","","1549582440566","","","","","","",""
"null","","html-keyboard-response","109","2133720","0.0-6.0-8.5","04","<p><img class= 'stimulus' src='images/baseline/landscape6.jpg'></img></p>","null","","1549582440715","8","","","","","",""
"null","","html-keyboard-response","110","2133870","0.0-6.0-9.5","04","<p><img class= 'stimulus' src='images/baseline/05292v.jpg'></img></p>","null","","1549582440866","","","","","","",""
"null","","html-keyboard-response","111","2134020","0.0-6.0-10.5","04","<p><img class= 'stimulus' src='images/baseline/lookout_tower.jpg'></img></p>","null","","1549582441015","","","","","","",""
"null","","html-keyboard-response","112","2134171","0.0-6.0-11.5","04","<p><img class= 'stimulus' src='images/baseline/05252v.jpg'></img></p>","null","","1549582441165","","","","","","",""
"null","","html-keyboard-response","113","2134320","0.0-6.0-12.5","04","<p><img class= 'stimulus' src='images/baseline/meadow-with-mountain-in-background.jpg'></img></p>","null","","1549582441316","12","","","","","",""
"null","","html-keyboard-response","114","2134471","0.0-6.0-13.5","04","<p><img class= 'stimulus' src='images/baseline/pexels-photo-1048039.jpeg'></img></p>","null","","1549582441465","","","","","","",""
"null","","html-keyboard-response","115","2134620","0.0-6.0-14.5","04","<p><img class= 'stimulus' src='images/baseline/03098v.jpg'></img></p>","null","","1549582441615","14","","","","","",""
"null","","html-keyboard-response","116","2134769","0.0-6.0-15.5","04","<p><img class= 'stimulus' src='images/baseline/pexels-photo-534164.jpeg'></img></p>","null","","1549582441767","","","","","","",""
"null","","html-keyboard-response","117","2134920","0.0-6.0-16.5","04","<p><img class= 'stimulus' src='images/baseline/05158v.jpg'></img></p>","null","","1549582441916","","","","","","",""
"null","","html-keyboard-response","118","2135086","0.0-6.0-17.5","04","<p><img class= 'stimulus' src='images/baseline/red rocks from afar.jpg'></img></p>","null","","1549582442065","","","","","","",""
"1463.8999999999069","","html-button-response","119","2137560","0.0-6.0-18.5","04","<div class = ""response_question"">WAS THE IMAGE ROTATED...</div>","","0","","","4","2","bas","left","practice","true"
"2830.5","","html-button-response","120","2140392","0.0-6.0-0.6","04","","","0","","","","","","","",""
"null","","html-keyboard-response","121","2140520","0.0-6.0-1.6","04","<p><img class= 'stimulus' src='images/baseline/Lake 5.jpg'></img></p>","null","","1549582447515","","","","","","",""
"null","","html-keyboard-response","122","2140670","0.0-6.0-2.6","04","<p><img class= 'stimulus' src='images/baseline/landscape29.jpg'></img></p>","null","","1549582447665","","","","","","",""
"null","","html-keyboard-response","123","2140820","0.0-6.0-3.6","04","<p><img class= 'stimulus' src='images/baseline/field 3.jpg'></img></p>","null","","1549582447815","","","","","","",""
"null","","html-keyboard-response","124","2140970","0.0-6.0-4.6","04","<p><img class= 'stimulus' src='images/baseline/field 4.jpg'></img></p>","null","","1549582447967","4","","","","","",""
"null","","html-keyboard-response","125","2141120","0.0-6.0-5.6","04","<p><img class= 'stimulus' src='images/baseline/landscape17.jpg'></img></p>","null","","1549582448116","","","","","","",""
"null","","html-keyboard-response","126","2141271","0.0-6.0-6.6","04","<p><img class= 'stimulus' src='images/baseline/Linden,_paysage.jpg'></img></p>","null","","1549582448267","6","","","","","",""
"null","","html-keyboard-response","127","2141420","0.0-6.0-7.6","04","<p><img class= 'stimulus' src='images/baseline/chicago-skyline-at-night-1476869511p8U.jpg'></img></p>","null","","1549582448416","","","","","","",""
"null","","html-keyboard-response","128","2141570","0.0-6.0-8.6","04","<p><img class= 'stimulus' src='images/baseline/Lake 7.jpg'></img></p>","null","","1549582448566","8","","","","","",""
"null","","html-keyboard-response","129","2141719","0.0-6.0-9.6","04","<p><img class= 'stimulus' src='images/baseline/pexels-photo-414491.jpeg'></img></p>","null","","1549582448715","","","","","","",""
"null","","html-keyboard-response","130","2141872","0.0-6.0-10.6","04","<p><img class= 'stimulus' src='images/baseline/04300v.jpg'></img></p>","null","","1549582448865","","","","","","",""
"null","","html-keyboard-response","131","2142020","0.0-6.0-11.6","04","<p><img class= 'stimulus' src='images/baseline/Bahia_Onelli_Parque_Nacional_Los_Glaciares_Patagonia_Argentina_Luca_Galuzzi_2005.jpg'></img></p>","null","","1549582449015","","","","","","",""
"null","","html-keyboard-response","132","2142169","0.0-6.0-12.6","04","<p><img class= 'stimulus' src='images/baseline/agriculture-bright-clouds-440731.jpg'></img></p>","null","","1549582449166","12","","","","","",""
"null","","html-keyboard-response","133","2142320","0.0-6.0-13.6","04","<p><img class= 'stimulus' src='images/baseline/landscape12.jpg'></img></p>","null","","1549582449315","","","","","","",""
"null","","html-keyboard-response","134","2142470","0.0-6.0-14.6","04","<p><img class= 'stimulus left-rotate' src='images/target/oak-1913194_640.jpg'></img></p>","null","","1549582449466","14","","","","","",""
"null","","html-keyboard-response","135","2142620","0.0-6.0-15.6","04","<p><img class= 'stimulus' src='images/baseline/Freudenberg_sg_Switzerland.jpg'></img></p>","null","","1549582449617","","","","","","",""
"null","","html-keyboard-response","136","2142770","0.0-6.0-16.6","04","<p><img class= 'stimulus' src='images/baseline/building9.jpg'></img></p>","null","","1549582449764","","","","","","",""
"null","","html-keyboard-response","137","2142936","0.0-6.0-17.6","04","<p><img class= 'stimulus' src='images/baseline/04040v.jpg'></img></p>","null","","1549582449915","","","","","","",""
"1898.5000000004657","","html-button-response","138","2145839","0.0-6.0-18.6","04","<div class = ""response_question"">WAS THE IMAGE ROTATED...</div>","","0","","","6","8","bas","left","practice","true"
"3262.5000000004657","","html-button-response","139","2149103","0.0-6.0-0.7","04","","","0","","","","","","","",""
"null","","html-keyboard-response","140","2149237","0.0-6.0-1.7","04","<p><img class= 'stimulus' src='images/baseline/architecture-1314416_1920.jpg'></img></p>","null","","1549582456233","","","","","","",""
"null","","html-keyboard-response","141","2149387","0.0-6.0-2.7","04","<p><img class= 'stimulus' src='images/baseline/farmhouse9.jpg'></img></p>","null","","1549582456382","","","","","","",""
"null","","html-keyboard-response","142","2149538","0.0-6.0-3.7","04","<p><img class= 'stimulus' src='images/baseline/house10.jpg'></img></p>","null","","1549582456532","","","","","","",""
"null","","html-keyboard-response","143","2149687","0.0-6.0-4.7","04","<p><img class= 'stimulus' src='images/baseline/05161v.jpg'></img></p>","null","","1549582456683","4","","","","","",""
"null","","html-keyboard-response","144","2149837","0.0-6.0-5.7","04","<p><img class= 'stimulus' src='images/baseline/agriculture-countryside-crop-259280.jpg'></img></p>","null","","1549582456833","","","","","","",""
"null","","html-keyboard-response","145","2149987","0.0-6.0-6.7","04","<p><img class= 'stimulus' src='images/baseline/empire-state-building.jpg'></img></p>","null","","1549582456981","6","","","","","",""
"null","","html-keyboard-response","146","2150137","0.0-6.0-7.7","04","<p><img class= 'stimulus' src='images/baseline/04117v.jpg'></img></p>","null","","1549582457132","","","","","","",""
"null","","html-keyboard-response","147","2150287","0.0-6.0-8.7","04","<p><img class= 'stimulus left-rotate' src='images/target/chicago-673558_640.jpg'></img></p>","null","","1549582457282","8","","","","","",""
"null","","html-keyboard-response","148","2150437","0.0-6.0-9.7","04","<p><img class= 'stimulus' src='images/baseline/05145v.jpg'></img></p>","null","","1549582457432","","","","","","",""
"null","","html-keyboard-response","149","2150587","0.0-6.0-10.7","04","<p><img class= 'stimulus' src='images/baseline/landscape7.jpg'></img></p>","null","","1549582457582","","","","","","",""
"null","","html-keyboard-response","150","2150737","0.0-6.0-11.7","04","<p><img class= 'stimulus' src='images/baseline/scenic-mountain-landscape.jpg'></img></p>","null","","1549582457733","","","","","","",""
"null","","html-keyboard-response","151","2150887","0.0-6.0-12.7","04","<p><img class= 'stimulus' src='images/baseline/architecture_modern_architecture_852928.jpg'></img></p>","null","","1549582457883","12","","","","","",""
"null","","html-keyboard-response","152","2151037","0.0-6.0-13.7","04","<p><img class= 'stimulus' src='images/baseline/03114v.jpg'></img></p>","null","","1549582458032","","","","","","",""
"null","","html-keyboard-response","153","2151187","0.0-6.0-14.7","04","<p><img class= 'stimulus' src='images/baseline/04086v.jpg'></img></p>","null","","1549582458182","14","","","","","",""
"null","","html-keyboard-response","154","2151337","0.0-6.0-15.7","04","<p><img class= 'stimulus' src='images/baseline/lake 1.jpg'></img></p>","null","","1549582458333","","","","","","",""
"null","","html-keyboard-response","155","2151487","0.0-6.0-16.7","04","<p><img class= 'stimulus' src='images/baseline/Lake 13.jpg'></img></p>","null","","1549582458482","","","","","","",""
"null","","html-keyboard-response","156","2151654","0.0-6.0-17.7","04","<p><img class= 'stimulus' src='images/baseline/03217v.jpg'></img></p>","null","","1549582458633","","","","","","",""
"1095.7000000001863","","html-button-response","157","2153752","0.0-6.0-18.7","04","<div class = ""response_question"">WAS THE IMAGE ROTATED...</div>","","0","","","6","2","bas","left","practice","true"
"2181.3000000002794","","html-button-response","158","2155938","0.0-6.0-0.8","04","","","0","","","","","","","",""
"null","","html-keyboard-response","159","2156023","0.0-6.0-1.8","04","<p><img class= 'stimulus' src='images/baseline/Dirt 2.jpg'></img></p>","null","","1549582463069","","","","","","",""
"null","","html-keyboard-response","160","2156122","0.0-6.0-2.8","04","<p><img class= 'stimulus' src='images/baseline/landscape19.jpg'></img></p>","null","","1549582463169","","","","","","",""
"null","","html-keyboard-response","161","2156222","0.0-6.0-3.8","04","<p><img class= 'stimulus' src='images/baseline/04284v.jpg'></img></p>","null","","1549582463268","","","","","","",""
"null","","html-keyboard-response","162","2156322","0.0-6.0-4.8","04","<p><img class= 'stimulus' src='images/baseline/Lake 8.jpg'></img></p>","null","","1549582463367","4","","","","","",""
"null","","html-keyboard-response","163","2156423","0.0-6.0-5.8","04","<p><img class= 'stimulus' src='images/baseline/pexels-photo-280222.jpeg'></img></p>","null","","1549582463469","","","","","","",""
"null","","html-keyboard-response","164","2156522","0.0-6.0-6.8","04","<p><img class= 'stimulus' src='images/baseline/building8.jpg'></img></p>","null","","1549582463568","6","","","","","",""
"null","","html-keyboard-response","165","2156622","0.0-6.0-7.8","04","<p><img class= 'stimulus' src='images/baseline/05198v.jpg'></img></p>","null","","1549582463668","","","","","","",""
"null","","html-keyboard-response","166","2156723","0.0-6.0-8.8","04","<p><img class= 'stimulus' src='images/baseline/building12.jpg'></img></p>","null","","1549582463768","8","","","","","",""
"null","","html-keyboard-response","167","2156823","0.0-6.0-9.8","04","<p><img class= 'stimulus' src='images/baseline/field 2.jpg'></img></p>","null","","1549582463868","","","","","","",""
"null","","html-keyboard-response","168","2156922","0.0-6.0-10.8","04","<p><img class= 'stimulus' src='images/baseline/landscape15.jpg'></img></p>","null","","1549582463968","","","","","","",""
"null","","html-keyboard-response","169","2157023","0.0-6.0-11.8","04","<p><img class= 'stimulus' src='images/baseline/lake3.jpg'></img></p>","null","","1549582464068","","","","","","",""
"null","","html-keyboard-response","170","2157123","0.0-6.0-12.8","04","<p><img class= 'stimulus' src='images/baseline/pexels-photo-1840893.jpeg'></img></p>","null","","1549582464168","12","","","","","",""
"null","","html-keyboard-response","171","2157222","0.0-6.0-13.8","04","<p><img class= 'stimulus' src='images/baseline/Skyscraper 2.jpg'></img></p>","null","","1549582464269","","","","","","",""
"null","","html-keyboard-response","172","2157323","0.0-6.0-14.8","04","<p><img class= 'stimulus' src='images/target/buildin2.png'></img></p>","null","","1549582464367","14","","","","","",""
"null","","html-keyboard-response","173","2157422","0.0-6.0-15.8","04","<p><img class= 'stimulus' src='images/baseline/Street 2.jpg'></img></p>","null","","1549582464467","","","","","","",""
"null","","html-keyboard-response","174","2157522","0.0-6.0-16.8","04","<p><img class= 'stimulus' src='images/baseline/pexels-photo-351264.jpeg'></img></p>","null","","1549582464568","","","","","","",""
"null","","html-keyboard-response","175","2157638","0.0-6.0-17.8","04","<p><img class= 'stimulus' src='images/baseline/landscape3.jpg'></img></p>","null","","1549582464668","","","","","","",""
"1634.1000000000931","","html-button-response","176","2160282","0.0-6.0-18.8","04","<div class = ""response_question"">WAS THE IMAGE ROTATED...</div>","","3","","","6","8","bas","right","practice","true"
"2182.100000000093","","html-button-response","177","2162466","0.0-6.0-0.9","04","","","0","","","","","","","",""
"null","","html-keyboard-response","178","2162539","0.0-6.0-1.9","04","<p><img class= 'stimulus' src='images/baseline/Waterfall 1.jpg'></img></p>","null","","1549582469584","","","","","","",""
"null","","html-keyboard-response","179","2162640","0.0-6.0-2.9","04","<p><img class= 'stimulus' src='images/baseline/05242v.jpg'></img></p>","null","","1549582469684","","","","","","",""
"null","","html-keyboard-response","180","2162739","0.0-6.0-3.9","04","<p><img class= 'stimulus' src='images/baseline/05139v.jpg'></img></p>","null","","1549582469784","","","","","","",""
"null","","html-keyboard-response","181","2162839","0.0-6.0-4.9","04","<p><img class= 'stimulus' src='images/baseline/Cold 7.jpg'></img></p>","null","","1549582469886","4","","","","","",""
"null","","html-keyboard-response","182","2162939","0.0-6.0-5.9","04","<p><img class= 'stimulus' src='images/baseline/pexels-photo-1287089.jpeg'></img></p>","null","","1549582469985","","","","","","",""
"null","","html-keyboard-response","183","2163039","0.0-6.0-6.9","04","<p><img class= 'stimulus left-rotate' src='images/target/dubai-1113262_640.jpg'></img></p>","null","","1549582470085","6","","","","","",""
"null","","html-keyboard-response","184","2163139","0.0-6.0-7.9","04","<p><img class= 'stimulus' src='images/baseline/landscape11.jpg'></img></p>","null","","1549582470186","","","","","","",""
"null","","html-keyboard-response","185","2163240","0.0-6.0-8.9","04","<p><img class= 'stimulus' src='images/baseline/__08_-_ITALY_-_Forli_under_snow_-_winter_landscape_of_city_(christmas).jpg'></img></p>","null","","1549582470286","8","","","","","",""
"null","","html-keyboard-response","186","2163339","0.0-6.0-9.9","04","<p><img class= 'stimulus' src='images/baseline/04010v.jpg'></img></p>","null","","1549582470385","","","","","","",""
"null","","html-keyboard-response","187","2163439","0.0-6.0-10.9","04","<p><img class= 'stimulus' src='images/baseline/Bridge 1.jpg'></img></p>","null","","1549582470485","","","","","","",""
"null","","html-keyboard-response","188","2163539","0.0-6.0-11.9","04","<p><img class= 'stimulus' src='images/baseline/hills 4.jpg'></img></p>","null","","1549582470585","","","","","","",""
"null","","html-keyboard-response","189","2163639","0.0-6.0-12.9","04","<p><img class= 'stimulus' src='images/baseline/vintage-art-deco-storefront.jpg'></img></p>","null","","1549582470685","12","","","","","",""
"null","","html-keyboard-response","190","2163740","0.0-6.0-13.9","04","<p><img class= 'stimulus' src='images/baseline/05247v.jpg'></img></p>","null","","1549582470784","","","","","","",""
"null","","html-keyboard-response","191","2163839","0.0-6.0-14.9","04","<p><img class= 'stimulus' src='images/baseline/Skijump 1.jpg'></img></p>","null","","1549582470885","14","","","","","",""
"null","","html-keyboard-response","192","2163940","0.0-6.0-15.9","04","<p><img class= 'stimulus' src='images/baseline/landscape2.jpg'></img></p>","null","","1549582470985","","","","","","",""
"null","","html-keyboard-response","193","2164040","0.0-6.0-16.9","04","<p><img class= 'stimulus' src='images/baseline/4k-wallpaper-agriculture-clouds-842711.jpg'></img></p>","null","","1549582471086","","","","","","",""
"null","","html-keyboard-response","194","2164156","0.0-6.0-17.9","04","<p><img class= 'stimulus' src='images/baseline/03075v.jpg'></img></p>","null","","1549582471185","","","","","","",""
"1262.6999999997206","","html-button-response","195","2166434","0.0-6.0-18.9","04","<div class = ""response_question"">WAS THE IMAGE ROTATED...</div>","","0","","","4","2","bas","left","practice","true"
"2070.5000000004657","","html-button-response","196","2168506","0.0-6.0-0.10","04","","","0","","","","","","","",""
"null","","html-keyboard-response","197","2168589","0.0-6.0-1.10","04","<p><img class= 'stimulus' src='images/baseline/valley 1.jpg'></img></p>","null","","1549582475635","","","","","","",""
"null","","html-keyboard-response","198","2168689","0.0-6.0-2.10","04","<p><img class= 'stimulus' src='images/baseline/hiking-trail.jpg'></img></p>","null","","1549582475735","","","","","","",""
"null","","html-keyboard-response","199","2168789","0.0-6.0-3.10","04","<p><img class= 'stimulus' src='images/baseline/foreclosed_home.jpg'></img></p>","null","","1549582475834","","","","","","",""
"null","","html-keyboard-response","200","2168889","0.0-6.0-4.10","04","<p><img class= 'stimulus' src='images/baseline/04062v.jpg'></img></p>","null","","1549582475934","4","","","","","",""
"null","","html-keyboard-response","201","2168990","0.0-6.0-5.10","04","<p><img class= 'stimulus' src='images/baseline/sun-through-winter-tree-branches1.jpg'></img></p>","null","","1549582476035","","","","","","",""
"null","","html-keyboard-response","202","2169089","0.0-6.0-6.10","04","<p><img class= 'stimulus' src='images/baseline/pexels-photo-541101.jpeg'></img></p>","null","","1549582476136","6","","","","","",""
"null","","html-keyboard-response","203","2169189","0.0-6.0-7.10","04","<p><img class= 'stimulus' src='images/baseline/02947v.jpg'></img></p>","null","","1549582476236","","","","","","",""
"null","","html-keyboard-response","204","2169290","0.0-6.0-8.10","04","<p><img class= 'stimulus' src='images/baseline/02977v.jpg'></img></p>","null","","1549582476336","8","","","","","",""
"null","","html-keyboard-response","205","2169389","0.0-6.0-9.10","04","<p><img class= 'stimulus' src='images/baseline/building5.jpg'></img></p>","null","","1549582476435","","","","","","",""
"null","","html-keyboard-response","206","2169489","0.0-6.0-10.10","04","<p><img class= 'stimulus' src='images/baseline/town-square-in-wroclaw-1539098440MZy.jpg'></img></p>","null","","1549582476536","","","","","","",""
"null","","html-keyboard-response","207","2169589","0.0-6.0-11.10","04","<p><img class= 'stimulus' src='images/baseline/04014v.jpg'></img></p>","null","","1549582476634","","","","","","",""
"null","","html-keyboard-response","208","2169689","0.0-6.0-12.10","04","<p><img class= 'stimulus left-rotate' src='images/target/cactus2.jpg'></img></p>","null","","1549582476736","12","","","","","",""
"null","","html-keyboard-response","209","2169789","0.0-6.0-13.10","04","<p><img class= 'stimulus' src='images/baseline/landscape34.jpg'></img></p>","null","","1549582476834","","","","","","",""
"null","","html-keyboard-response","210","2169890","0.0-6.0-14.10","04","<p><img class= 'stimulus' src='images/baseline/building2.jpg'></img></p>","null","","1549582476934","14","","","","","",""
"null","","html-keyboard-response","211","2169989","0.0-6.0-15.10","04","<p><img class= 'stimulus' src='images/baseline/03063v.jpg'></img></p>","null","","1549582477035","","","","","","",""
"null","","html-keyboard-response","212","2170090","0.0-6.0-16.10","04","<p><img class= 'stimulus' src='images/baseline/05240v.jpg'></img></p>","null","","1549582477134","","","","","","",""
"null","","html-keyboard-response","213","2170206","0.0-6.0-17.10","04","<p><img class= 'stimulus' src='images/baseline/99_-_Machu_Picchu_-_Juin_2009.edit3.jpg'></img></p>","null","","1549582477235","","","","","","",""
"843.3999999999069","","html-button-response","214","2172059","0.0-6.0-18.10","04","<div class = ""response_question"">WAS THE IMAGE ROTATED...</div>","","0","","","4","8","bas","left","practice","true"
"1638.6000000000931","","html-button-response","215","2173698","0.0-6.0-0.11","04","","","0","","","","","","","",""
"null","","html-keyboard-response","216","2173773","0.0-6.0-1.11","04","<p><img class= 'stimulus' src='images/baseline/02945v.jpg'></img></p>","null","","1549582480817","","","","","","",""
"null","","html-keyboard-response","217","2173874","0.0-6.0-2.11","04","<p><img class= 'stimulus' src='images/baseline/Sunset 3.jpg'></img></p>","null","","1549582480919","","","","","","",""
"null","","html-keyboard-response","218","2173973","0.0-6.0-3.11","04","<p><img class= 'stimulus' src='images/baseline/Happy pose 3.jpg'></img></p>","null","","1549582481019","","","","","","",""
"null","","html-keyboard-response","219","2174072","0.0-6.0-4.11","04","<p><img class= 'stimulus' src='images/baseline/Peyto_Lake-Banff_NP-Canada.jpg'></img></p>","null","","1549582481118","4","","","","","",""
"null","","html-keyboard-response","220","2174172","0.0-6.0-5.11","04","<p><img class= 'stimulus' src='images/baseline/04196v.jpg'></img></p>","null","","1549582481218","","","","","","",""
"null","","html-keyboard-response","221","2174273","0.0-6.0-6.11","04","<p><img class= 'stimulus' src='images/baseline/Camping 10.jpg'></img></p>","null","","1549582481318","6","","","","","",""
"null","","html-keyboard-response","222","2174374","0.0-6.0-7.11","04","<p><img class= 'stimulus' src='images/baseline/04222v.jpg'></img></p>","null","","1549582481418","","","","","","",""
"null","","html-keyboard-response","223","2174474","0.0-6.0-8.11","04","<p><img class= 'stimulus' src='images/baseline/03180v.jpg'></img></p>","null","","1549582481518","8","","","","","",""
"null","","html-keyboard-response","224","2174573","0.0-6.0-9.11","04","<p><img class= 'stimulus' src='images/baseline/05303v.jpg'></img></p>","null","","1549582481618","","","","","","",""
"null","","html-keyboard-response","225","2174673","0.0-6.0-10.11","04","<p><img class= 'stimulus' src='images/baseline/04060v.jpg'></img></p>","null","","1549582481718","","","","","","",""
"null","","html-keyboard-response","226","2174773","0.0-6.0-11.11","04","<p><img class= 'stimulus' src='images/baseline/Dock 1.jpg'></img></p>","null","","1549582481818","","","","","","",""
"null","","html-keyboard-response","227","2174872","0.0-6.0-12.11","04","<p><img class= 'stimulus' src='images/target/pexels-photo-210683.jpeg'></img></p>","null","","1549582481918","12","","","","","",""
"null","","html-keyboard-response","228","2174973","0.0-6.0-13.11","04","<p><img class= 'stimulus' src='images/baseline/landscape33.jpg'></img></p>","null","","1549582482019","","","","","","",""
"null","","html-keyboard-response","229","2175072","0.0-6.0-14.11","04","<p><img class= 'stimulus' src='images/baseline/house3.jpg'></img></p>","null","","1549582482119","14","","","","","",""
"null","","html-keyboard-response","230","2175173","0.0-6.0-15.11","04","<p><img class= 'stimulus' src='images/baseline/pexels-photo-259280.jpeg'></img></p>","null","","1549582482218","","","","","","",""
"null","","html-keyboard-response","231","2175272","0.0-6.0-16.11","04","<p><img class= 'stimulus' src='images/baseline/04098v.jpg'></img></p>","null","","1549582482319","","","","","","",""
"null","","html-keyboard-response","232","2175390","0.0-6.0-17.11","04","<p><img class= 'stimulus' src='images/baseline/04063v.jpg'></img></p>","null","","1549582482418","","","","","","",""
"1112.1999999997206","","html-button-response","233","2177507","0.0-6.0-18.11","04","<div class = ""response_question"">WAS THE IMAGE ROTATED...</div>","","4","","","4","8","bas","right","practice","true"
"1462.3000000002794","","html-button-response","234","2178970","0.0-6.0-0.12","04","","","0","","","","","","","",""
"null","","html-keyboard-response","235","2179056","0.0-6.0-1.12","04","<p><img class= 'stimulus' src='images/baseline/landscape13.jpg'></img></p>","null","","1549582486101","","","","","","",""
"null","","html-keyboard-response","236","2179157","0.0-6.0-2.12","04","<p><img class= 'stimulus' src='images/baseline/pexels-photo-221125.jpeg'></img></p>","null","","1549582486203","","","","","","",""
"null","","html-keyboard-response","237","2179257","0.0-6.0-3.12","04","<p><img class= 'stimulus' src='images/baseline/pexels-photo-459203.jpeg'></img></p>","null","","1549582486302","","","","","","",""
"null","","html-keyboard-response","238","2179357","0.0-6.0-4.12","04","<p><img class= 'stimulus' src='images/baseline/Nature 1.jpg'></img></p>","null","","1549582486403","4","","","","","",""
"null","","html-keyboard-response","239","2179456","0.0-6.0-5.12","04","<p><img class= 'stimulus' src='images/baseline/pexels-photo-568236.jpeg'></img></p>","null","","1549582486501","","","","","","",""
"null","","html-keyboard-response","240","2179557","0.0-6.0-6.12","04","<p><img class= 'stimulus' src='images/baseline/house7.jpg'></img></p>","null","","1549582486603","6","","","","","",""
"null","","html-keyboard-response","241","2179657","0.0-6.0-7.12","04","<p><img class= 'stimulus' src='images/baseline/03066v.jpg'></img></p>","null","","1549582486703","","","","","","",""
"null","","html-keyboard-response","242","2179756","0.0-6.0-8.12","04","<p><img class= 'stimulus' src='images/target/building15.jpg'></img></p>","null","","1549582486802","8","","","","","",""
"null","","html-keyboard-response","243","2179856","0.0-6.0-9.12","04","<p><img class= 'stimulus' src='images/baseline/05167v.jpg'></img></p>","null","","1549582486902","","","","","","",""
"null","","html-keyboard-response","244","2179957","0.0-6.0-10.12","04","<p><img class= 'stimulus' src='images/baseline/Sunset 6.jpg'></img></p>","null","","1549582487001","","","","","","",""
"null","","html-keyboard-response","245","2180056","0.0-6.0-11.12","04","<p><img class= 'stimulus' src='images/baseline/04201v.jpg'></img></p>","null","","1549582487102","","","","","","",""
"null","","html-keyboard-response","246","2180156","0.0-6.0-12.12","04","<p><img class= 'stimulus' src='images/baseline/03212v.jpg'></img></p>","null","","1549582487202","12","","","","","",""
"null","","html-keyboard-response","247","2180256","0.0-6.0-13.12","04","<p><img class= 'stimulus' src='images/baseline/03162v.jpg'></img></p>","null","","1549582487302","","","","","","",""
"null","","html-keyboard-response","248","2180358","0.0-6.0-14.12","04","<p><img class= 'stimulus' src='images/baseline/pexels-photo-894312.jpeg'></img></p>","null","","1549582487402","14","","","","","",""
"null","","html-keyboard-response","249","2180457","0.0-6.0-15.12","04","<p><img class= 'stimulus' src='images/baseline/pexels-photo-1054289.jpeg'></img></p>","null","","1549582487501","","","","","","",""
"null","","html-keyboard-response","250","2180555","0.0-6.0-16.12","04","<p><img class= 'stimulus' src='images/baseline/Street 3.jpg'></img></p>","null","","1549582487603","","","","","","",""
"null","","html-keyboard-response","251","2180672","0.0-6.0-17.12","04","<p><img class= 'stimulus' src='images/baseline/04193v.jpg'></img></p>","null","","1549582487702","","","","","","",""
"1222","","html-button-response","252","2182898","0.0-6.0-18.12","04","<div class = ""response_question"">WAS THE IMAGE ROTATED...</div>","","4","","","6","2","bas","right","practice","true"
"1261.3000000002794","","html-button-response","253","2184162","0.0-6.0-0.13","04","","","0","","","","","","","",""
"null","","html-keyboard-response","254","2184240","0.0-6.0-1.13","04","<p><img class= 'stimulus' src='images/baseline/pexels-photo-210617.jpeg'></img></p>","null","","1549582491286","","","","","","",""
"null","","html-keyboard-response","255","2184339","0.0-6.0-2.13","04","<p><img class= 'stimulus' src='images/baseline/building16.jpg'></img></p>","null","","1549582491384","","","","","","",""
"null","","html-keyboard-response","256","2184439","0.0-6.0-3.13","04","<p><img class= 'stimulus' src='images/baseline/02988v.jpg'></img></p>","null","","1549582491485","","","","","","",""
"null","","html-keyboard-response","257","2184540","0.0-6.0-4.13","04","<p><img class= 'stimulus' src='images/baseline/Street 5.jpg'></img></p>","null","","1549582491585","4","","","","","",""
"null","","html-keyboard-response","258","2184639","0.0-6.0-5.13","04","<p><img class= 'stimulus' src='images/baseline/05131v.jpg'></img></p>","null","","1549582491684","","","","","","",""
"null","","html-keyboard-response","259","2184739","0.0-6.0-6.13","04","<p><img class= 'stimulus' src='images/target/tree-3563269_640.jpg'></img></p>","null","","1549582491785","6","","","","","",""
"null","","html-keyboard-response","260","2184840","0.0-6.0-7.13","04","<p><img class= 'stimulus' src='images/baseline/landscape8.jpg'></img></p>","null","","1549582491885","","","","","","",""
"null","","html-keyboard-response","261","2184940","0.0-6.0-8.13","04","<p><img class= 'stimulus' src='images/baseline/02971v.jpg'></img></p>","null","","1549582491985","8","","","","","",""
"null","","html-keyboard-response","262","2185039","0.0-6.0-9.13","04","<p><img class= 'stimulus' src='images/baseline/architecture-956332_1280.jpg'></img></p>","null","","1549582492084","","","","","","",""
"null","","html-keyboard-response","263","2185140","0.0-6.0-10.13","04","<p><img class= 'stimulus' src='images/baseline/grand-teton-mountains.jpg'></img></p>","null","","1549582492187","","","","","","",""
"null","","html-keyboard-response","264","2185240","0.0-6.0-11.13","04","<p><img class= 'stimulus' src='images/baseline/road.jpg'></img></p>","null","","1549582492285","","","","","","",""
"null","","html-keyboard-response","265","2185339","0.0-6.0-12.13","04","<p><img class= 'stimulus' src='images/baseline/landscape4.jpg'></img></p>","null","","1549582492385","12","","","","","",""
"null","","html-keyboard-response","266","2185439","0.0-6.0-13.13","04","<p><img class= 'stimulus' src='images/baseline/hills 1.jpg'></img></p>","null","","1549582492485","","","","","","",""
"null","","html-keyboard-response","267","2185539","0.0-6.0-14.13","04","<p><img class= 'stimulus' src='images/baseline/kokkari-1523011968Xfr.jpg'></img></p>","null","","1549582492584","14","","","","","",""
"null","","html-keyboard-response","268","2185640","0.0-6.0-15.13","04","<p><img class= 'stimulus' src='images/baseline/house2.jpg'></img></p>","null","","1549582492686","","","","","","",""
"null","","html-keyboard-response","269","2185740","0.0-6.0-16.13","04","<p><img class= 'stimulus' src='images/baseline/Beach 3.jpg'></img></p>","null","","1549582492786","","","","","","",""
"null","","html-keyboard-response","270","2185855","0.0-6.0-17.13","04","<p><img class= 'stimulus' src='images/baseline/farmhouse3.jpg'></img></p>","null","","1549582492885","","","","","","",""
"637.0000000004657","","html-button-response","271","2187498","0.0-6.0-18.13","04","<div class = ""response_question"">WAS THE IMAGE ROTATED...</div>","","3","","","4","2","bas","right","practice","true"
"1286.5999999996275","","html-button-response","272","2188786","0.0-6.0-0.14","04","","","0","","","","","","","",""
"null","","html-keyboard-response","273","2188873","0.0-6.0-1.14","04","<p><img class= 'stimulus' src='images/baseline/03220v.jpg'></img></p>","null","","1549582495918","","","","","","",""
"null","","html-keyboard-response","274","2188972","0.0-6.0-2.14","04","<p><img class= 'stimulus' src='images/baseline/landscape36.jpg'></img></p>","null","","1549582496019","","","","","","",""
"null","","html-keyboard-response","275","2189074","0.0-6.0-3.14","04","<p><img class= 'stimulus' src='images/baseline/road 1(1).jpg'></img></p>","null","","1549582496118","","","","","","",""
"null","","html-keyboard-response","276","2189174","0.0-6.0-4.14","04","<p><img class= 'stimulus' src='images/baseline/river 1.jpg'></img></p>","null","","1549582496218","4","","","","","",""
"null","","html-keyboard-response","277","2189273","0.0-6.0-5.14","04","<p><img class= 'stimulus' src='images/baseline/02960v.jpg'></img></p>","null","","1549582496320","","","","","","",""
"null","","html-keyboard-response","278","2189372","0.0-6.0-6.14","04","<p><img class= 'stimulus' src='images/baseline/farmhouse7.jpg'></img></p>","null","","1549582496417","6","","","","","",""
"null","","html-keyboard-response","279","2189474","0.0-6.0-7.14","04","<p><img class= 'stimulus' src='images/baseline/pexels-photo-427676.jpeg'></img></p>","null","","1549582496518","","","","","","",""
"null","","html-keyboard-response","280","2189574","0.0-6.0-8.14","04","<p><img class= 'stimulus left-rotate' src='images/target/building4.jpg'></img></p>","null","","1549582496618","8","","","","","",""
"null","","html-keyboard-response","281","2189673","0.0-6.0-9.14","04","<p><img class= 'stimulus' src='images/baseline/Sidewalk 4.jpg'></img></p>","null","","1549582496718","","","","","","",""
"null","","html-keyboard-response","282","2189774","0.0-6.0-10.14","04","<p><img class= 'stimulus' src='images/baseline/farmhouse11.jpg'></img></p>","null","","1549582496818","","","","","","",""
"null","","html-keyboard-response","283","2189873","0.0-6.0-11.14","04","<p><img class= 'stimulus' src='images/baseline/03112v.jpg'></img></p>","null","","1549582496919","","","","","","",""
"null","","html-keyboard-response","284","2189973","0.0-6.0-12.14","04","<p><img class= 'stimulus' src='images/baseline/Sunset 4.jpg'></img></p>","null","","1549582497018","12","","","","","",""
"null","","html-keyboard-response","285","2190072","0.0-6.0-13.14","04","<p><img class= 'stimulus' src='images/baseline/pexels-photo-440731.jpeg'></img></p>","null","","1549582497118","","","","","","",""
"null","","html-keyboard-response","286","2190173","0.0-6.0-14.14","04","<p><img class= 'stimulus' src='images/baseline/Beach 2.jpg'></img></p>","null","","1549582497220","14","","","","","",""
"null","","html-keyboard-response","287","2190273","0.0-6.0-15.14","04","<p><img class= 'stimulus' src='images/baseline/05179v.jpg'></img></p>","null","","1549582497318","","","","","","",""
"null","","html-keyboard-response","288","2190372","0.0-6.0-16.14","04","<p><img class= 'stimulus' src='images/baseline/building_at_national_conservation.jpg'></img></p>","null","","1549582497419","","","","","","",""
"null","","html-keyboard-response","289","2190490","0.0-6.0-17.14","04","<p><img class= 'stimulus' src='images/baseline/Lake 16.jpg'></img></p>","null","","1549582497519","","","","","","",""
"760.6999999997206","","html-button-response","290","2192266","0.0-6.0-18.14","04","<div class = ""response_question"">WAS THE IMAGE ROTATED...</div>","","0","","","6","2","bas","left","practice","true"
"1366.3999999999069","","html-button-response","291","2193634","0.0-6.0-0.15","04","","","0","","","","","","","",""
"null","","html-keyboard-response","292","2193706","0.0-6.0-1.15","04","<p><img class= 'stimulus' src='images/baseline/05186v.jpg'></img></p>","null","","1549582500751","","","","","","",""
"null","","html-keyboard-response","293","2193806","0.0-6.0-2.15","04","<p><img class= 'stimulus' src='images/baseline/cranes 1.jpg'></img></p>","null","","1549582500852","","","","","","",""
"null","","html-keyboard-response","294","2193907","0.0-6.0-3.15","04","<p><img class= 'stimulus' src='images/baseline/05255v.jpg'></img></p>","null","","1549582500952","","","","","","",""
"null","","html-keyboard-response","295","2194006","0.0-6.0-4.15","04","<p><img class= 'stimulus' src='images/baseline/city-silhouette-at-sunset-871291580819Esw.jpg'></img></p>","null","","1549582501052","4","","","","","",""
"null","","html-keyboard-response","296","2194106","0.0-6.0-5.15","04","<p><img class= 'stimulus' src='images/baseline/farmhouse4.jpg'></img></p>","null","","1549582501151","","","","","","",""
"null","","html-keyboard-response","297","2194206","0.0-6.0-6.15","04","<p><img class= 'stimulus' src='images/baseline/04064v.jpg'></img></p>","null","","1549582501252","6","","","","","",""
"null","","html-keyboard-response","298","2194307","0.0-6.0-7.15","04","<p><img class= 'stimulus' src='images/baseline/pexels-photo-808465.jpeg'></img></p>","null","","1549582501353","","","","","","",""
"null","","html-keyboard-response","299","2194406","0.0-6.0-8.15","04","<p><img class= 'stimulus' src='images/baseline/field 1.jpg'></img></p>","null","","1549582501452","8","","","","","",""
"null","","html-keyboard-response","300","2194506","0.0-6.0-9.15","04","<p><img class= 'stimulus' src='images/baseline/Lake 9.jpg'></img></p>","null","","1549582501553","","","","","","",""
"null","","html-keyboard-response","301","2194606","0.0-6.0-10.15","04","<p><img class= 'stimulus' src='images/baseline/building4.jpg'></img></p>","null","","1549582501652","","","","","","",""
"null","","html-keyboard-response","302","2194706","0.0-6.0-11.15","04","<p><img class= 'stimulus' src='images/baseline/hills 3.jpg'></img></p>","null","","1549582501751","","","","","","",""
"null","","html-keyboard-response","303","2194806","0.0-6.0-12.15","04","<p><img class= 'stimulus' src='images/baseline/tennis-court-net-buried-in-snow.jpg'></img></p>","null","","1549582501851","12","","","","","",""
"null","","html-keyboard-response","304","2194906","0.0-6.0-13.15","04","<p><img class= 'stimulus' src='images/baseline/03201v.jpg'></img></p>","null","","1549582501952","","","","","","",""
"null","","html-keyboard-response","305","2195006","0.0-6.0-14.15","04","<p><img class= 'stimulus left-rotate' src='images/target/mitre peak.jpg'></img></p>","null","","1549582502051","14","","","","","",""
"null","","html-keyboard-response","306","2195107","0.0-6.0-15.15","04","<p><img class= 'stimulus' src='images/baseline/Sunset 6.jpg'></img></p>","null","","1549582502152","","","","","","",""
"null","","html-keyboard-response","307","2195207","0.0-6.0-16.15","04","<p><img class= 'stimulus' src='images/baseline/cyrillic.jpg'></img></p>","null","","1549582502252","","","","","","",""
"null","","html-keyboard-response","308","2195323","0.0-6.0-17.15","04","<p><img class= 'stimulus' src='images/baseline/04098v.jpg'></img></p>","null","","1549582502352","","","","","","",""
"658.3000000002794","","html-button-response","309","2196986","0.0-6.0-18.15","04","<div class = ""response_question"">WAS THE IMAGE ROTATED...</div>","","1","","","6","8","bas","left","practice","true"
"44182.499999999534","","html-button-response","310","2241170","0.0-7.0","04","<p>You have now completed the practice phase. We will now begin the real trials.         This is a reminder that you will be searching for a rotated image among the series of upright images.</p>         <p>Remember, please do not blink or move your eyes while the images are on the screen.</p>         <p>At the end of the experiment, the experimenter will be able to show you how accurate you were.</p>","","0","","","","","","","",""
"2334.8000000002794","","html-button-response","311","2243506","0.0-8.0-0.0-0.0","04","","","0","","","","","","","",""
"null","","html-keyboard-response","312","2243590","0.0-8.0-0.0-1.0","04","<p><img class= 'stimulus' src='images/baseline/03098v.jpg'></img></p>","null","","1549582550634","","","","","","",""
"null","","html-keyboard-response","313","2243690","0.0-8.0-0.0-2.0","04","<p><img class= 'stimulus' src='images/baseline/vintage-art-deco-storefront.jpg'></img></p>","null","","1549582550737","","","","","","",""
"null","","html-keyboard-response","314","2243792","0.0-8.0-0.0-3.0","04","<p><img class= 'stimulus' src='images/baseline/02945v.jpg'></img></p>","null","","1549582550835","","","","","","",""
"null","","html-keyboard-response","315","2243891","0.0-8.0-0.0-4.0","04","<p><img class= 'stimulus' src='images/baseline/05280v.jpg'></img></p>","null","","1549582550935","4","","","","","",""
"null","","html-keyboard-response","316","2243990","0.0-8.0-0.0-5.0","04","<p><img class= 'stimulus' src='images/baseline/04062v.jpg'></img></p>","null","","1549582551035","","","","","","",""
"null","","html-keyboard-response","317","2244090","0.0-8.0-0.0-6.0","04","<p><img class= 'stimulus' src='images/negative/Wolf 2.jpg'></img></p>","null","","1549582551135","6","","","","","",""
"null","","html-keyboard-response","318","2244190","0.0-8.0-0.0-7.0","04","<p><img class= 'stimulus' src='images/baseline/landscape4.jpg'></img></p>","null","","1549582551235","","","","","","",""
"null","","html-keyboard-response","319","2244290","0.0-8.0-0.0-8.0","04","<p><img class= 'stimulus left-rotate' src='images/target/building5.jpg'></img></p>","null","","1549582551335","8","","","","","",""
"null","","html-keyboard-response","320","2244389","0.0-8.0-0.0-9.0","04","<p><img class= 'stimulus' src='images/baseline/Desert_View_Indian_Wells.jpg'></img></p>","null","","1549582551435","","","","","","",""
"null","","html-keyboard-response","321","2244490","0.0-8.0-0.0-10.0","04","<p><img class= 'stimulus' src='images/baseline/99_-_Machu_Picchu_-_Juin_2009.edit3.jpg'></img></p>","null","","1549582551536","","","","","","",""
"null","","html-keyboard-response","322","2244590","0.0-8.0-0.0-11.0","04","<p><img class= 'stimulus' src='images/baseline/05198v.jpg'></img></p>","null","","1549582551635","","","","","","",""
"null","","html-keyboard-response","323","2244691","0.0-8.0-0.0-12.0","04","<p><img class= 'stimulus' src='images/baseline/04085v.jpg'></img></p>","null","","1549582551735","12","","","","","",""
"null","","html-keyboard-response","324","2244790","0.0-8.0-0.0-13.0","04","<p><img class= 'stimulus' src='images/baseline/Cold 7.jpg'></img></p>","null","","1549582551836","","","","","","",""
"null","","html-keyboard-response","325","2244891","0.0-8.0-0.0-14.0","04","<p><img class= 'stimulus' src='images/baseline/agriculture-bright-clouds-440731.jpg'></img></p>","null","","1549582551935","14","","","","","",""
"null","","html-keyboard-response","326","2244990","0.0-8.0-0.0-15.0","04","<p><img class= 'stimulus' src='images/baseline/meadow-with-mountain-in-background.jpg'></img></p>","null","","1549582552035","","","","","","",""
"null","","html-keyboard-response","327","2245089","0.0-8.0-0.0-16.0","04","<p><img class= 'stimulus' src='images/baseline/geese-flying-over-lake-at-dusk.jpg'></img></p>","null","","1549582552135","","","","","","",""
"null","","html-keyboard-response","328","2245207","0.0-8.0-0.0-17.0","04","<p><img class= 'stimulus' src='images/baseline/city-silhouette-at-sunset-871291580819Esw.jpg'></img></p>","null","","1549582552236","","","","","","",""
"879.7999999998137","","html-button-response","329","2247090","0.0-8.0-0.0-18.0","04","<div class = ""response_question"">WAS THE IMAGE ROTATED...</div>","","1","","","6","2","neg","left","test","true"
"2734.5000000004657","","html-button-response","330","2249826","0.0-8.0-0.0-0.1","04","","","0","","","","","","","",""
"null","","html-keyboard-response","331","2249906","0.0-8.0-0.0-1.1","04","<p><img class= 'stimulus' src='images/baseline/03148v.jpg'></img></p>","null","","1549582556952","","","","","","",""
"null","","html-keyboard-response","332","2250007","0.0-8.0-0.0-2.1","04","<p><img class= 'stimulus' src='images/baseline/02962v.jpg'></img></p>","null","","1549582557052","","","","","","",""
"null","","html-keyboard-response","333","2250106","0.0-8.0-0.0-3.1","04","<p><img class= 'stimulus' src='images/baseline/pexels-photo-541101.jpeg'></img></p>","null","","1549582557152","","","","","","",""
"null","","html-keyboard-response","334","2250207","0.0-8.0-0.0-4.1","04","<p><img class= 'stimulus' src='images/negative/Animal carcass 6.jpg'></img></p>","null","","1549582557253","4","","","","","",""
"null","","html-keyboard-response","335","2250306","0.0-8.0-0.0-5.1","04","<p><img class= 'stimulus' src='images/baseline/05203v.jpg'></img></p>","null","","1549582557352","","","","","","",""
"null","","html-keyboard-response","336","2250406","0.0-8.0-0.0-6.1","04","<p><img class= 'stimulus' src='images/target/building3.jpg'></img></p>","null","","1549582557452","6","","","","","",""
"null","","html-keyboard-response","337","2250507","0.0-8.0-0.0-7.1","04","<p><img class= 'stimulus' src='images/baseline/Bridge 1.jpg'></img></p>","null","","1549582557552","","","","","","",""
"null","","html-keyboard-response","338","2250607","0.0-8.0-0.0-8.1","04","<p><img class= 'stimulus' src='images/baseline/Lake 16.jpg'></img></p>","null","","1549582557652","8","","","","","",""
"null","","html-keyboard-response","339","2250707","0.0-8.0-0.0-9.1","04","<p><img class= 'stimulus' src='images/baseline/04162v.jpg'></img></p>","null","","1549582557753","","","","","","",""
"null","","html-keyboard-response","340","2250808","0.0-8.0-0.0-10.1","04","<p><img class= 'stimulus' src='images/baseline/Grass 6.jpg'></img></p>","null","","1549582557852","","","","","","",""
"null","","html-keyboard-response","341","2250907","0.0-8.0-0.0-11.1","04","<p><img class= 'stimulus' src='images/baseline/Sunset 5.jpg'></img></p>","null","","1549582557952","","","","","","",""
"null","","html-keyboard-response","342","2251006","0.0-8.0-0.0-12.1","04","<p><img class= 'stimulus' src='images/baseline/road.jpg'></img></p>","null","","1549582558052","12","","","","","",""
"null","","html-keyboard-response","343","2251107","0.0-8.0-0.0-13.1","04","<p><img class= 'stimulus' src='images/baseline/landscape1.jpg'></img></p>","null","","1549582558152","","","","","","",""
"null","","html-keyboard-response","344","2251207","0.0-8.0-0.0-14.1","04","<p><img class= 'stimulus' src='images/baseline/pexels-photo-1054289.jpeg'></img></p>","null","","1549582558252","14","","","","","",""
"null","","html-keyboard-response","345","2251306","0.0-8.0-0.0-15.1","04","<p><img class= 'stimulus' src='images/baseline/04086v.jpg'></img></p>","null","","1549582558353","","","","","","",""
"null","","html-keyboard-response","346","2251406","0.0-8.0-0.0-16.1","04","<p><img class= 'stimulus' src='images/baseline/Lake 3.jpg'></img></p>","null","","1549582558453","","","","","","",""
"null","","html-keyboard-response","347","2251523","0.0-8.0-0.0-17.1","04","<p><img class= 'stimulus' src='images/baseline/pexels-photo-459203.jpeg'></img></p>","null","","1549582558551","","","","","","",""
"1091.1000000000931","","html-button-response","348","2253618","0.0-8.0-0.0-18.1","04","<div class = ""response_question"">WAS THE IMAGE ROTATED...</div>","","4","","","4","2","neg","right","test","true"
"4485.399999999907","","html-button-response","349","2258106","0.0-8.0-0.0-0.2","04","","","0","","","","","","","",""
"null","","html-keyboard-response","350","2258190","0.0-8.0-0.0-1.2","04","<p><img class= 'stimulus' src='images/baseline/field 4.jpg'></img></p>","null","","1549582565235","","","","","","",""
"null","","html-keyboard-response","351","2258290","0.0-8.0-0.0-2.2","04","<p><img class= 'stimulus' src='images/baseline/pexels-photo-894312.jpeg'></img></p>","null","","1549582565336","","","","","","",""
"null","","html-keyboard-response","352","2258390","0.0-8.0-0.0-3.2","04","<p><img class= 'stimulus' src='images/baseline/house3.jpg'></img></p>","null","","1549582565435","","","","","","",""
"null","","html-keyboard-response","353","2258490","0.0-8.0-0.0-4.2","04","<p><img class= 'stimulus' src='images/baseline/river 1.jpg'></img></p>","null","","1549582565535","4","","","","","",""
"null","","html-keyboard-response","354","2258590","0.0-8.0-0.0-5.2","04","<p><img class= 'stimulus' src='images/baseline/03063v.jpg'></img></p>","null","","1549582565637","","","","","","",""
"null","","html-keyboard-response","355","2258690","0.0-8.0-0.0-6.2","04","<p><img class= 'stimulus' src='images/negative/Shark 10.jpg'></img></p>","null","","1549582565736","6","","","","","",""
"null","","html-keyboard-response","356","2258790","0.0-8.0-0.0-7.2","04","<p><img class= 'stimulus' src='images/baseline/building4.jpg'></img></p>","null","","1549582565836","","","","","","",""
"null","","html-keyboard-response","357","2258891","0.0-8.0-0.0-8.2","04","<p><img class= 'stimulus' src='images/target/pexels-photo-1123982.jpeg'></img></p>","null","","1549582565936","8","","","","","",""
"null","","html-keyboard-response","358","2258989","0.0-8.0-0.0-9.2","04","<p><img class= 'stimulus' src='images/baseline/Sailing 3.jpg'></img></p>","null","","1549582566037","","","","","","",""
"null","","html-keyboard-response","359","2259090","0.0-8.0-0.0-10.2","04","<p><img class= 'stimulus' src='images/baseline/04064v.jpg'></img></p>","null","","1549582566137","","","","","","",""
"null","","html-keyboard-response","360","2259190","0.0-8.0-0.0-11.2","04","<p><img class= 'stimulus' src='images/baseline/landscape29.jpg'></img></p>","null","","1549582566236","","","","","","",""
"null","","html-keyboard-response","361","2259290","0.0-8.0-0.0-12.2","04","<p><img class= 'stimulus' src='images/baseline/house7.jpg'></img></p>","null","","1549582566335","12","","","","","",""
"null","","html-keyboard-response","362","2259390","0.0-8.0-0.0-13.2","04","<p><img class= 'stimulus' src='images/baseline/Happy pose 3.jpg'></img></p>","null","","1549582566436","","","","","","",""
"null","","html-keyboard-response","363","2259491","0.0-8.0-0.0-14.2","04","<p><img class= 'stimulus' src='images/baseline/04222v.jpg'></img></p>","null","","1549582566537","14","","","","","",""
"null","","html-keyboard-response","364","2259591","0.0-8.0-0.0-15.2","04","<p><img class= 'stimulus' src='images/baseline/landscape36.jpg'></img></p>","null","","1549582566635","","","","","","",""
"null","","html-keyboard-response","365","2259690","0.0-8.0-0.0-16.2","04","<p><img class= 'stimulus' src='images/baseline/red rocks from afar.jpg'></img></p>","null","","1549582566735","","","","","","",""
"null","","html-keyboard-response","366","2259807","0.0-8.0-0.0-17.2","04","<p><img class= 'stimulus' src='images/baseline/cranes 1.jpg'></img></p>","null","","1549582566836","","","","","","",""
"2445.6999999997206","","html-button-response","367","2263258","0.0-8.0-0.0-18.2","04","<div class = ""response_question"">WAS THE IMAGE ROTATED...</div>","","4","","","6","2","neg","right","test","true"
"2502.3000000002794","","html-button-response","368","2265761","0.0-8.0-0.0-0.3","04","","","0","","","","","","","",""
"null","","html-keyboard-response","369","2265840","0.0-8.0-0.0-1.3","04","<p><img class= 'stimulus' src='images/baseline/Sunset 4.jpg'></img></p>","null","","1549582572886","","","","","","",""
"null","","html-keyboard-response","370","2265940","0.0-8.0-0.0-2.3","04","<p><img class= 'stimulus' src='images/baseline/03056v.jpg'></img></p>","null","","1549582572986","","","","","","",""
"null","","html-keyboard-response","371","2266040","0.0-8.0-0.0-3.3","04","<p><img class= 'stimulus' src='images/baseline/02960v.jpg'></img></p>","null","","1549582573085","","","","","","",""
"null","","html-keyboard-response","372","2266142","0.0-8.0-0.0-4.3","04","<p><img class= 'stimulus' src='images/baseline/Waterfall 1.jpg'></img></p>","null","","1549582573187","4","","","","","",""
"null","","html-keyboard-response","373","2266241","0.0-8.0-0.0-5.3","04","<p><img class= 'stimulus' src='images/baseline/farmhouse2.jpg'></img></p>","null","","1549582573286","","","","","","",""
"null","","html-keyboard-response","374","2266341","0.0-8.0-0.0-6.3","04","<p><img class= 'stimulus' src='images/negative/Dummy 1.jpg'></img></p>","null","","1549582573386","6","","","","","",""
"null","","html-keyboard-response","375","2266440","0.0-8.0-0.0-7.3","04","<p><img class= 'stimulus' src='images/baseline/farmhouse7.jpg'></img></p>","null","","1549582573485","","","","","","",""
"null","","html-keyboard-response","376","2266540","0.0-8.0-0.0-8.3","04","<p><img class= 'stimulus left-rotate' src='images/target/tree-197536_640.jpg'></img></p>","null","","1549582573585","8","","","","","",""
"null","","html-keyboard-response","377","2266641","0.0-8.0-0.0-9.3","04","<p><img class= 'stimulus' src='images/baseline/snowy tree.jpg'></img></p>","null","","1549582573687","","","","","","",""
"null","","html-keyboard-response","378","2266740","0.0-8.0-0.0-10.3","04","<p><img class= 'stimulus' src='images/baseline/Dirt 2.jpg'></img></p>","null","","1549582573786","","","","","","",""
"null","","html-keyboard-response","379","2266840","0.0-8.0-0.0-11.3","04","<p><img class= 'stimulus' src='images/baseline/Street 4.jpg'></img></p>","null","","1549582573886","","","","","","",""
"null","","html-keyboard-response","380","2266940","0.0-8.0-0.0-12.3","04","<p><img class= 'stimulus' src='images/baseline/farmhouse3.jpg'></img></p>","null","","1549582573985","12","","","","","",""
"null","","html-keyboard-response","381","2267040","0.0-8.0-0.0-13.3","04","<p><img class= 'stimulus' src='images/baseline/04196v.jpg'></img></p>","null","","1549582574086","","","","","","",""
"null","","html-keyboard-response","382","2267140","0.0-8.0-0.0-14.3","04","<p><img class= 'stimulus' src='images/baseline/Beach 3.jpg'></img></p>","null","","1549582574186","14","","","","","",""
"null","","html-keyboard-response","383","2267241","0.0-8.0-0.0-15.3","04","<p><img class= 'stimulus' src='images/baseline/pexels-photo-280222.jpeg'></img></p>","null","","1549582574286","","","","","","",""
"null","","html-keyboard-response","384","2267341","0.0-8.0-0.0-16.3","04","<p><img class= 'stimulus' src='images/baseline/horse_statue.jpg'></img></p>","null","","1549582574386","","","","","","",""
"null","","html-keyboard-response","385","2267456","0.0-8.0-0.0-17.3","04","<p><img class= 'stimulus' src='images/baseline/Lake 14.jpg'></img></p>","null","","1549582574485","","","","","","",""
"712.8999999999069","","html-button-response","386","2269178","0.0-8.0-0.0-18.3","04","<div class = ""response_question"">WAS THE IMAGE ROTATED...</div>","","0","","","6","2","neg","left","test","true"
"1726.5","","html-button-response","387","2270906","0.0-8.0-0.0-0.4","04","","","0","","","","","","","",""
"null","","html-keyboard-response","388","2270990","0.0-8.0-0.0-1.4","04","<p><img class= 'stimulus' src='images/baseline/Lake 4.jpg'></img></p>","null","","1549582578035","","","","","","",""
"null","","html-keyboard-response","389","2271090","0.0-8.0-0.0-2.4","04","<p><img class= 'stimulus' src='images/baseline/04021v.jpg'></img></p>","null","","1549582578135","","","","","","",""
"null","","html-keyboard-response","390","2271190","0.0-8.0-0.0-3.4","04","<p><img class= 'stimulus' src='images/baseline/Skyscraper 1.jpg'></img></p>","null","","1549582578236","","","","","","",""
"null","","html-keyboard-response","391","2271291","0.0-8.0-0.0-4.4","04","<p><img class= 'stimulus' src='images/baseline/farmhouse4.jpg'></img></p>","null","","1549582578335","4","","","","","",""
"null","","html-keyboard-response","392","2271390","0.0-8.0-0.0-5.4","04","<p><img class= 'stimulus' src='images/baseline/seoul-410266_1920.jpg'></img></p>","null","","1549582578436","","","","","","",""
"null","","html-keyboard-response","393","2271491","0.0-8.0-0.0-6.4","04","<p><img class= 'stimulus' src='images/negative/Bloody knife 1.jpg'></img></p>","null","","1549582578536","6","","","","","",""
"null","","html-keyboard-response","394","2271590","0.0-8.0-0.0-7.4","04","<p><img class= 'stimulus' src='images/baseline/building16.jpg'></img></p>","null","","1549582578636","","","","","","",""
"null","","html-keyboard-response","395","2271691","0.0-8.0-0.0-8.4","04","<p><img class= 'stimulus' src='images/target/specphotops-563427-unsplash.jpg'></img></p>","null","","1549582578735","8","","","","","",""
"null","","html-keyboard-response","396","2271790","0.0-8.0-0.0-9.4","04","<p><img class= 'stimulus' src='images/baseline/03112v.jpg'></img></p>","null","","1549582578836","","","","","","",""
"null","","html-keyboard-response","397","2271890","0.0-8.0-0.0-10.4","04","<p><img class= 'stimulus' src='images/baseline/Niinsaare_jarv.jpg'></img></p>","null","","1549582578937","","","","","","",""
"null","","html-keyboard-response","398","2271990","0.0-8.0-0.0-11.4","04","<p><img class= 'stimulus' src='images/baseline/dirt-road-or-trail-through-park.jpg'></img></p>","null","","1549582579036","","","","","","",""
"null","","html-keyboard-response","399","2272090","0.0-8.0-0.0-12.4","04","<p><img class= 'stimulus' src='images/baseline/house1.jpg'></img></p>","null","","1549582579136","12","","","","","",""
"null","","html-keyboard-response","400","2272190","0.0-8.0-0.0-13.4","04","<p><img class= 'stimulus' src='images/baseline/03217v.jpg'></img></p>","null","","1549582579236","","","","","","",""
"null","","html-keyboard-response","401","2272291","0.0-8.0-0.0-14.4","04","<p><img class= 'stimulus' src='images/baseline/Nature 1.jpg'></img></p>","null","","1549582579335","14","","","","","",""
"null","","html-keyboard-response","402","2272390","0.0-8.0-0.0-15.4","04","<p><img class= 'stimulus' src='images/baseline/field 3.jpg'></img></p>","null","","1549582579437","","","","","","",""
"null","","html-keyboard-response","403","2272490","0.0-8.0-0.0-16.4","04","<p><img class= 'stimulus' src='images/baseline/Sky 1.jpg'></img></p>","null","","1549582579536","","","","","","",""
"null","","html-keyboard-response","404","2272607","0.0-8.0-0.0-17.4","04","<p><img class= 'stimulus' src='images/baseline/05252v.jpg'></img></p>","null","","1549582579636","","","","","","",""
"2192.2000000001863","","html-button-response","405","2275802","0.0-8.0-0.0-18.4","04","<div class = ""response_question"">WAS THE IMAGE ROTATED...</div>","","1","","","6","2","neg","right","test","false"
"1998.3999999999069","","html-button-response","406","2277802","0.0-8.0-0.0-0.5","04","","","0","","","","","","","",""
"null","","html-keyboard-response","407","2277874","0.0-8.0-0.0-1.5","04","<p><img class= 'stimulus' src='images/baseline/pexels-photo-414491.jpeg'></img></p>","null","","1549582584919","","","","","","",""
"null","","html-keyboard-response","408","2277974","0.0-8.0-0.0-2.5","04","<p><img class= 'stimulus' src='images/baseline/Dock 1.jpg'></img></p>","null","","1549582585020","","","","","","",""
"null","","html-keyboard-response","409","2278073","0.0-8.0-0.0-3.5","04","<p><img class= 'stimulus' src='images/baseline/town-square-in-wroclaw-1539098440MZy.jpg'></img></p>","null","","1549582585120","","","","","","",""
"null","","html-keyboard-response","410","2278174","0.0-8.0-0.0-4.5","04","<p><img class= 'stimulus' src='images/neutral/School 4.jpg'></img></p>","null","","1549582585219","4","","","","","",""
"null","","html-keyboard-response","411","2278273","0.0-8.0-0.0-5.5","04","<p><img class= 'stimulus' src='images/baseline/pexels-photo-210617.jpeg'></img></p>","null","","1549582585319","","","","","","",""
"null","","html-keyboard-response","412","2278373","0.0-8.0-0.0-6.5","04","<p><img class= 'stimulus' src='images/target/pexels-photo-1534411.jpeg'></img></p>","null","","1549582585419","6","","","","","",""
"null","","html-keyboard-response","413","2278474","0.0-8.0-0.0-7.5","04","<p><img class= 'stimulus' src='images/baseline/house6.jpg'></img></p>","null","","1549582585520","","","","","","",""
"null","","html-keyboard-response","414","2278574","0.0-8.0-0.0-8.5","04","<p><img class= 'stimulus' src='images/baseline/landscape14.jpg'></img></p>","null","","1549582585618","8","","","","","",""
"null","","html-keyboard-response","415","2278674","0.0-8.0-0.0-9.5","04","<p><img class= 'stimulus' src='images/baseline/05264v.jpg'></img></p>","null","","1549582585719","","","","","","",""
"null","","html-keyboard-response","416","2278775","0.0-8.0-0.0-10.5","04","<p><img class= 'stimulus' src='images/baseline/building_at_national_conservation.jpg'></img></p>","null","","1549582585818","","","","","","",""
"null","","html-keyboard-response","417","2278873","0.0-8.0-0.0-11.5","04","<p><img class= 'stimulus' src='images/baseline/04158v.jpg'></img></p>","null","","1549582585920","","","","","","",""
"null","","html-keyboard-response","418","2278974","0.0-8.0-0.0-12.5","04","<p><img class= 'stimulus' src='images/baseline/02971v.jpg'></img></p>","null","","1549582586020","12","","","","","",""
"null","","html-keyboard-response","419","2279074","0.0-8.0-0.0-13.5","04","<p><img class= 'stimulus' src='images/baseline/04179v.jpg'></img></p>","null","","1549582586119","","","","","","",""
"null","","html-keyboard-response","420","2279174","0.0-8.0-0.0-14.5","04","<p><img class= 'stimulus' src='images/baseline/hills 3.jpg'></img></p>","null","","1549582586220","14","","","","","",""
"null","","html-keyboard-response","421","2279274","0.0-8.0-0.0-15.5","04","<p><img class= 'stimulus' src='images/baseline/05247v.jpg'></img></p>","null","","1549582586319","","","","","","",""
"null","","html-keyboard-response","422","2279374","0.0-8.0-0.0-16.5","04","<p><img class= 'stimulus' src='images/baseline/Lake 5.jpg'></img></p>","null","","1549582586418","","","","","","",""
"null","","html-keyboard-response","423","2279490","0.0-8.0-0.0-17.5","04","<p><img class= 'stimulus' src='images/baseline/landscape23.jpg'></img></p>","null","","1549582586519","","","","","","",""
"2713.399999999441","","html-button-response","424","2283210","0.0-8.0-0.0-18.5","04","<div class = ""response_question"">WAS THE IMAGE ROTATED...</div>","","5","","","4","2","neu","right","test","false"
"2126.3000000002794","","html-button-response","425","2285338","0.0-8.0-0.0-0.6","04","","","0","","","","","","","",""
"null","","html-keyboard-response","426","2285423","0.0-8.0-0.0-1.6","04","<p><img class= 'stimulus' src='images/baseline/Sidewalk 4.jpg'></img></p>","null","","1549582592469","","","","","","",""
"null","","html-keyboard-response","427","2285525","0.0-8.0-0.0-2.6","04","<p><img class= 'stimulus' src='images/baseline/Lake 8.jpg'></img></p>","null","","1549582592570","","","","","","",""
"null","","html-keyboard-response","428","2285624","0.0-8.0-0.0-3.6","04","<p><img class= 'stimulus' src='images/baseline/church-silhouette-8712964986014Kb.jpg'></img></p>","null","","1549582592670","","","","","","",""
"null","","html-keyboard-response","429","2285724","0.0-8.0-0.0-4.6","04","<p><img class= 'stimulus' src='images/baseline/house8.jpg'></img></p>","null","","1549582592770","4","","","","","",""
"null","","html-keyboard-response","430","2285825","0.0-8.0-0.0-5.6","04","<p><img class= 'stimulus' src='images/baseline/agriculture-cereal-clouds-175389.jpg'></img></p>","null","","1549582592869","","","","","","",""
"null","","html-keyboard-response","431","2285924","0.0-8.0-0.0-6.6","04","<p><img class= 'stimulus' src='images/neutral/Penguins 2.jpg'></img></p>","null","","1549582592969","6","","","","","",""
"null","","html-keyboard-response","432","2286024","0.0-8.0-0.0-7.6","04","<p><img class= 'stimulus' src='images/baseline/lake 2.jpg'></img></p>","null","","1549582593069","","","","","","",""
"null","","html-keyboard-response","433","2286124","0.0-8.0-0.0-8.6","04","<p><img class= 'stimulus left-rotate' src='images/target/skyscraper-3855012_640.jpg'></img></p>","null","","1549582593169","8","","","","","",""
"null","","html-keyboard-response","434","2286224","0.0-8.0-0.0-9.6","04","<p><img class= 'stimulus' src='images/baseline/landscape12.jpg'></img></p>","null","","1549582593269","","","","","","",""
"null","","html-keyboard-response","435","2286324","0.0-8.0-0.0-10.6","04","<p><img class= 'stimulus' src='images/baseline/sun-through-winter-tree-branches1.jpg'></img></p>","null","","1549582593370","","","","","","",""
"null","","html-keyboard-response","436","2286424","0.0-8.0-0.0-11.6","04","<p><img class= 'stimulus' src='images/baseline/05179v.jpg'></img></p>","null","","1549582593470","","","","","","",""
"null","","html-keyboard-response","437","2286523","0.0-8.0-0.0-12.6","04","<p><img class= 'stimulus' src='images/baseline/landscape2.jpg'></img></p>","null","","1549582593569","12","","","","","",""
"null","","html-keyboard-response","438","2286624","0.0-8.0-0.0-13.6","04","<p><img class= 'stimulus' src='images/baseline/pexels-photo-427676.jpeg'></img></p>","null","","1549582593670","","","","","","",""
"null","","html-keyboard-response","439","2286724","0.0-8.0-0.0-14.6","04","<p><img class= 'stimulus' src='images/baseline/pexels-photo-1840893.jpeg'></img></p>","null","","1549582593769","14","","","","","",""
"null","","html-keyboard-response","440","2286824","0.0-8.0-0.0-15.6","04","<p><img class= 'stimulus' src='images/baseline/05167v.jpg'></img></p>","null","","1549582593869","","","","","","",""
"null","","html-keyboard-response","441","2286923","0.0-8.0-0.0-16.6","04","<p><img class= 'stimulus' src='images/baseline/autumn-landscape-with-lake-fall-trees-mountains.jpg'></img></p>","null","","1549582593969","","","","","","",""
"null","","html-keyboard-response","442","2287041","0.0-8.0-0.0-17.6","04","<p><img class= 'stimulus' src='images/baseline/house11.jpg'></img></p>","null","","1549582594069","","","","","","",""
"827","","html-button-response","443","2288874","0.0-8.0-0.0-18.6","04","<div class = ""response_question"">WAS THE IMAGE ROTATED...</div>","","4","","","6","2","neu","left","test","false"
"2302.2000000001863","","html-button-response","444","2291167","0.0-8.0-0.0-0.7","04","","","0","","","","","","","",""
"null","","html-keyboard-response","445","2291245","0.0-8.0-0.0-1.7","04","<p><img class= 'stimulus' src='images/baseline/landscape17.jpg'></img></p>","null","","1549582598291","","","","","","",""
"null","","html-keyboard-response","446","2291345","0.0-8.0-0.0-2.7","04","<p><img class= 'stimulus' src='images/baseline/landscape34.jpg'></img></p>","null","","1549582598391","","","","","","",""
"null","","html-keyboard-response","447","2291446","0.0-8.0-0.0-3.7","04","<p><img class= 'stimulus' src='images/baseline/building5.jpg'></img></p>","null","","1549582598492","","","","","","",""
"null","","html-keyboard-response","448","2291546","0.0-8.0-0.0-4.7","04","<p><img class= 'stimulus' src='images/baseline/04031v.jpg'></img></p>","null","","1549582598591","4","","","","","",""
"null","","html-keyboard-response","449","2291646","0.0-8.0-0.0-5.7","04","<p><img class= 'stimulus' src='images/baseline/Street 5.jpg'></img></p>","null","","1549582598691","","","","","","",""
"null","","html-keyboard-response","450","2291746","0.0-8.0-0.0-6.7","04","<p><img class= 'stimulus' src='images/baseline/landscape37.jpg'></img></p>","null","","1549582598791","6","","","","","",""
"null","","html-keyboard-response","451","2291845","0.0-8.0-0.0-7.7","04","<p><img class= 'stimulus' src='images/baseline/03220v.jpg'></img></p>","null","","1549582598891","","","","","","",""
"null","","html-keyboard-response","452","2291946","0.0-8.0-0.0-8.7","04","<p><img class= 'stimulus' src='images/baseline/pexels-photo-259280.jpeg'></img></p>","null","","1549582598992","8","","","","","",""
"null","","html-keyboard-response","453","2292047","0.0-8.0-0.0-9.7","04","<p><img class= 'stimulus' src='images/baseline/sunny-landscape-with-dry-brush-and-mountain-background.jpg'></img></p>","null","","1549582599092","","","","","","",""
"null","","html-keyboard-response","454","2292146","0.0-8.0-0.0-10.7","04","<p><img class= 'stimulus' src='images/baseline/05189v.jpg'></img></p>","null","","1549582599192","","","","","","",""
"null","","html-keyboard-response","455","2292246","0.0-8.0-0.0-11.7","04","<p><img class= 'stimulus' src='images/baseline/pexels-photo-1837621.jpeg'></img></p>","null","","1549582599291","","","","","","",""
"null","","html-keyboard-response","456","2292345","0.0-8.0-0.0-12.7","04","<p><img class= 'stimulus' src='images/target/lone-tree-1934897_640.jpg'></img></p>","null","","1549582599390","12","","","","","",""
"null","","html-keyboard-response","457","2292446","0.0-8.0-0.0-13.7","04","<p><img class= 'stimulus' src='images/baseline/building8.jpg'></img></p>","null","","1549582599492","","","","","","",""
"null","","html-keyboard-response","458","2292546","0.0-8.0-0.0-14.7","04","<p><img class= 'stimulus' src='images/baseline/04010v.jpg'></img></p>","null","","1549582599591","14","","","","","",""
"null","","html-keyboard-response","459","2292646","0.0-8.0-0.0-15.7","04","<p><img class= 'stimulus' src='images/baseline/road 1(1).jpg'></img></p>","null","","1549582599691","","","","","","",""
"null","","html-keyboard-response","460","2292746","0.0-8.0-0.0-16.7","04","<p><img class= 'stimulus' src='images/baseline/scenic-mountain-landscape.jpg'></img></p>","null","","1549582599791","","","","","","",""
"null","","html-keyboard-response","461","2292862","0.0-8.0-0.0-17.7","04","<p><img class= 'stimulus' src='images/baseline/05255v.jpg'></img></p>","null","","1549582599891","","","","","","",""
"537.5","","html-button-response","462","2294415","0.0-8.0-0.0-18.7","04","<div class = ""response_question"">WAS THE IMAGE ROTATED...</div>","","3","","","4","8","bas","right","test","true"
"1926.3000000002794","","html-button-response","463","2296343","0.0-8.0-0.0-0.8","04","","","0","","","","","","","",""
"null","","html-keyboard-response","464","2296429","0.0-8.0-0.0-1.8","04","<p><img class= 'stimulus' src='images/baseline/landscape16.jpg'></img></p>","null","","1549582603476","","","","","","",""
"null","","html-keyboard-response","465","2296529","0.0-8.0-0.0-2.8","04","<p><img class= 'stimulus' src='images/baseline/flooded-bridge.jpg'></img></p>","null","","1549582603575","","","","","","",""
"null","","html-keyboard-response","466","2296629","0.0-8.0-0.0-3.8","04","<p><img class= 'stimulus' src='images/baseline/Sunset 3.jpg'></img></p>","null","","1549582603675","","","","","","",""
"null","","html-keyboard-response","467","2296729","0.0-8.0-0.0-4.8","04","<p><img class= 'stimulus' src='images/baseline/lake 1.jpg'></img></p>","null","","1549582603774","4","","","","","",""
"null","","html-keyboard-response","468","2296829","0.0-8.0-0.0-5.8","04","<p><img class= 'stimulus' src='images/baseline/Paysage_karabagh_02.jpg'></img></p>","null","","1549582603875","","","","","","",""
"null","","html-keyboard-response","469","2296929","0.0-8.0-0.0-6.8","04","<p><img class= 'stimulus' src='images/baseline/04117v.jpg'></img></p>","null","","1549582603974","6","","","","","",""
"null","","html-keyboard-response","470","2297029","0.0-8.0-0.0-7.8","04","<p><img class= 'stimulus' src='images/baseline/pexels-photo-568236.jpeg'></img></p>","null","","1549582604075","","","","","","",""
"null","","html-keyboard-response","471","2297131","0.0-8.0-0.0-8.8","04","<p><img class= 'stimulus' src='images/target/tree.jpeg'></img></p>","null","","1549582604176","8","","","","","",""
"null","","html-keyboard-response","472","2297230","0.0-8.0-0.0-9.8","04","<p><img class= 'stimulus' src='images/baseline/tennis-court-net-buried-in-snow.jpg'></img></p>","null","","1549582604274","","","","","","",""
"null","","html-keyboard-response","473","2297330","0.0-8.0-0.0-10.8","04","<p><img class= 'stimulus' src='images/baseline/landscape15.jpg'></img></p>","null","","1549582604374","","","","","","",""
"null","","html-keyboard-response","474","2297429","0.0-8.0-0.0-11.8","04","<p><img class= 'stimulus' src='images/baseline/building6.jpg'></img></p>","null","","1549582604475","","","","","","",""
"null","","html-keyboard-response","475","2297530","0.0-8.0-0.0-12.8","04","<p><img class= 'stimulus' src='images/baseline/house10.jpg'></img></p>","null","","1549582604576","12","","","","","",""
"null","","html-keyboard-response","476","2297629","0.0-8.0-0.0-13.8","04","<p><img class= 'stimulus' src='images/baseline/landscape39.jpg'></img></p>","null","","1549582604675","","","","","","",""
"null","","html-keyboard-response","477","2297729","0.0-8.0-0.0-14.8","04","<p><img class= 'stimulus' src='images/baseline/trees 23.jpg'></img></p>","null","","1549582604776","14","","","","","",""
"null","","html-keyboard-response","478","2297829","0.0-8.0-0.0-15.8","04","<p><img class= 'stimulus' src='images/baseline/Lake 13.jpg'></img></p>","null","","1549582604874","","","","","","",""
"null","","html-keyboard-response","479","2297929","0.0-8.0-0.0-16.8","04","<p><img class= 'stimulus' src='images/baseline/pexels-photo-534164.jpeg'></img></p>","null","","1549582604975","","","","","","",""
"null","","html-keyboard-response","480","2298047","0.0-8.0-0.0-17.8","04","<p><img class= 'stimulus' src='images/baseline/Lake 9.jpg'></img></p>","null","","1549582605075","","","","","","",""
"3275.4000000003725","","html-button-response","481","2302327","0.0-8.0-0.0-18.8","04","<div class = ""response_question"">WAS THE IMAGE ROTATED...</div>","","4","","","6","2","bas","right","test","true"
"2150.2000000001863","","html-button-response","482","2304480","0.0-8.0-0.0-0.9","04","","","0","","","","","","","",""
"null","","html-keyboard-response","483","2304562","0.0-8.0-0.0-1.9","04","<p><img class= 'stimulus' src='images/baseline/05303v.jpg'></img></p>","null","","1549582611609","","","","","","",""
"null","","html-keyboard-response","484","2304663","0.0-8.0-0.0-2.9","04","<p><img class= 'stimulus' src='images/baseline/03212v.jpg'></img></p>","null","","1549582611709","","","","","","",""
"null","","html-keyboard-response","485","2304763","0.0-8.0-0.0-3.9","04","<p><img class= 'stimulus' src='images/baseline/hills 4.jpg'></img></p>","null","","1549582611808","","","","","","",""
"null","","html-keyboard-response","486","2304862","0.0-8.0-0.0-4.9","04","<p><img class= 'stimulus' src='images/baseline/Lake 7.jpg'></img></p>","null","","1549582611908","4","","","","","",""
"null","","html-keyboard-response","487","2304962","0.0-8.0-0.0-5.9","04","<p><img class= 'stimulus' src='images/baseline/valley 1.jpg'></img></p>","null","","1549582612008","","","","","","",""
"null","","html-keyboard-response","488","2305063","0.0-8.0-0.0-6.9","04","<p><img class= 'stimulus' src='images/baseline/farmhouse9.jpg'></img></p>","null","","1549582612109","6","","","","","",""
"null","","html-keyboard-response","489","2305163","0.0-8.0-0.0-7.9","04","<p><img class= 'stimulus' src='images/baseline/Skyscraper 2.jpg'></img></p>","null","","1549582612208","","","","","","",""
"null","","html-keyboard-response","490","2305263","0.0-8.0-0.0-8.9","04","<p><img class= 'stimulus' src='images/baseline/Linden,_paysage.jpg'></img></p>","null","","1549582612309","8","","","","","",""
"null","","html-keyboard-response","491","2305362","0.0-8.0-0.0-9.9","04","<p><img class= 'stimulus' src='images/baseline/lookout_tower.jpg'></img></p>","null","","1549582612407","","","","","","",""
"null","","html-keyboard-response","492","2305462","0.0-8.0-0.0-10.9","04","<p><img class= 'stimulus' src='images/baseline/Camping 10.jpg'></img></p>","null","","1549582612508","","","","","","",""
"null","","html-keyboard-response","493","2305563","0.0-8.0-0.0-11.9","04","<p><img class= 'stimulus' src='images/baseline/architecture_modern_architecture_852928.jpg'></img></p>","null","","1549582612608","","","","","","",""
"null","","html-keyboard-response","494","2305662","0.0-8.0-0.0-12.9","04","<p><img class= 'stimulus' src='images/target/oak-456524_640.jpg'></img></p>","null","","1549582612708","12","","","","","",""
"null","","html-keyboard-response","495","2305763","0.0-8.0-0.0-13.9","04","<p><img class= 'stimulus' src='images/baseline/05242v.jpg'></img></p>","null","","1549582612808","","","","","","",""
"null","","html-keyboard-response","496","2305863","0.0-8.0-0.0-14.9","04","<p><img class= 'stimulus' src='images/baseline/Street 3.jpg'></img></p>","null","","1549582612908","14","","","","","",""
"null","","html-keyboard-response","497","2305963","0.0-8.0-0.0-15.9","04","<p><img class= 'stimulus' src='images/baseline/03162v.jpg'></img></p>","null","","1549582613008","","","","","","",""
"null","","html-keyboard-response","498","2306062","0.0-8.0-0.0-16.9","04","<p><img class= 'stimulus' src='images/baseline/Kocherbaumwald-01.jpg'></img></p>","null","","1549582613108","","","","","","",""
"null","","html-keyboard-response","499","2306179","0.0-8.0-0.0-17.9","04","<p><img class= 'stimulus' src='images/baseline/pexels-photo-440731.jpeg'></img></p>","null","","1549582613208","","","","","","",""
"1589.6999999997206","","html-button-response","500","2308775","0.0-8.0-0.0-18.9","04","<div class = ""response_question"">WAS THE IMAGE ROTATED...</div>","","2","","","4","8","bas","right","test","false"
"1806.299999999348","","html-button-response","501","2310583","0.0-8.0-0.0-0.10","04","","","0","","","","","","","",""
"null","","html-keyboard-response","502","2310663","0.0-8.0-0.0-1.10","04","<p><img class= 'stimulus' src='images/baseline/03066v.jpg'></img></p>","null","","1549582617709","","","","","","",""
"null","","html-keyboard-response","503","2310763","0.0-8.0-0.0-2.10","04","<p><img class= 'stimulus' src='images/baseline/03180v.jpg'></img></p>","null","","1549582617808","","","","","","",""
"null","","html-keyboard-response","504","2310863","0.0-8.0-0.0-3.10","04","<p><img class= 'stimulus' src='images/baseline/Road 1.jpg'></img></p>","null","","1549582617908","","","","","","",""
"null","","html-keyboard-response","505","2310963","0.0-8.0-0.0-4.10","04","<p><img class= 'stimulus' src='images/baseline/pexels-photo-59321.jpeg'></img></p>","null","","1549582618008","4","","","","","",""
"null","","html-keyboard-response","506","2311062","0.0-8.0-0.0-5.10","04","<p><img class= 'stimulus' src='images/baseline/04193v.jpg'></img></p>","null","","1549582618108","","","","","","",""
"null","","html-keyboard-response","507","2311163","0.0-8.0-0.0-6.10","04","<p><img class= 'stimulus' src='images/baseline/hills 1.jpg'></img></p>","null","","1549582618209","6","","","","","",""
"null","","html-keyboard-response","508","2311264","0.0-8.0-0.0-7.10","04","<p><img class= 'stimulus' src='images/baseline/foreclosed_home.jpg'></img></p>","null","","1549582618310","","","","","","",""
