"rt","responses","trial_type","trial_index","time_elapsed","internal_node_id","participant_id","stimulus","key_press","button_pressed","stim_onset","sequence_position","distractor_position","target_lag","distractor_type","target_orientation","phase","correct"
"6193.299999998999","{""Q0"":""25""}","survey-text","0","6197","0.0-0.0","25","","","","","","","","","","",""
"2417875.9000000134","","html-keyboard-response","1","2424083","0.0-1.0","25","Welcome to the experiment.","67","","","","","","","","",""
"31407.800000000745","","html-button-response","2","2455497","0.0-2.0","25","<p>Several images will be presented sequentially.        Each image will only be on the screen for about 100 milliseconds.</p>        <p> One of the images may be rotated 90 degrees right or left.        Watch for this image and remember if it is rotated right or left.</p>               <p>Images of people and animals will appear, and sometimes they will be unpleasant.        These will never be the rotated target image.</p>","","0","","","","","","","",""
"3293.7999999998137","","html-button-response","3","2458792","0.0-3.0","25","<p><img class=""stimulus left-rotate"" src=""images/target/tree-in-desert-landscape.jpg""></img></p><p>This is an example of an image rotated to the left.</p>","","0","","","","","","","",""
"3877.2000000025146","","html-button-response","4","2462672","0.0-4.0","25","<p><img class=""stimulus"" src=""images/target/building19.jpg""></img></p><p>This is an example of an image rotated to the right.</p>","","0","","","","","","","",""
"20231.500000008848","","html-button-response","5","2482904","0.0-5.0","25","<p>We will now begin a short practice session.</p>         <p>A + symbol will appear in the middle of the screen. Please fix your gaze on the center of the +, and then click the mouse button to begin the image sequence.</p>         <p>Please avoid blinking or eye movements while the images are on the screen.</p>        <p>The image sequence will start relatively slow. After a few sequences, it will speed up.</p>","","0","","","","","","","",""
"22870.69999999972","","html-button-response","6","2505777","0.0-6.0-0.0","25","","","0","","","","","","","",""
"null","","html-keyboard-response","7","2505965","0.0-6.0-1.0","25","<p><img class= 'stimulus' src='images/baseline/pexels-photo-568236.jpeg'></img></p>","null","","1550619431285","","","","","","",""
"null","","html-keyboard-response","8","2506164","0.0-6.0-2.0","25","<p><img class= 'stimulus' src='images/baseline/pexels-photo-534164.jpeg'></img></p>","null","","1550619431486","","","","","","",""
"null","","html-keyboard-response","9","2506366","0.0-6.0-3.0","25","<p><img class= 'stimulus' src='images/baseline/Niinsaare_jarv.jpg'></img></p>","null","","1550619431687","","","","","","",""
"null","","html-keyboard-response","10","2506565","0.0-6.0-4.0","25","<p><img class= 'stimulus' src='images/baseline/vintage-art-deco-storefront.jpg'></img></p>","null","","1550619431886","4","","","","","",""
"null","","html-keyboard-response","11","2506765","0.0-6.0-5.0","25","<p><img class= 'stimulus' src='images/baseline/pexels-photo-414491.jpeg'></img></p>","null","","1550619432087","","","","","","",""
"null","","html-keyboard-response","12","2506965","0.0-6.0-6.0","25","<p><img class= 'stimulus' src='images/baseline/sunset-over-the-lake.jpg'></img></p>","null","","1550619432286","6","","","","","",""
"null","","html-keyboard-response","13","2507165","0.0-6.0-7.0","25","<p><img class= 'stimulus' src='images/baseline/field 2.jpg'></img></p>","null","","1550619432487","","","","","","",""
"null","","html-keyboard-response","14","2507366","0.0-6.0-8.0","25","<p><img class= 'stimulus' src='images/baseline/house1.jpg'></img></p>","null","","1550619432686","8","","","","","",""
"null","","html-keyboard-response","15","2507565","0.0-6.0-9.0","25","<p><img class= 'stimulus' src='images/baseline/04222v.jpg'></img></p>","null","","1550619432886","","","","","","",""
"null","","html-keyboard-response","16","2507765","0.0-6.0-10.0","25","<p><img class= 'stimulus' src='images/baseline/house11.jpg'></img></p>","null","","1550619433086","","","","","","",""
"null","","html-keyboard-response","17","2507966","0.0-6.0-11.0","25","<p><img class= 'stimulus' src='images/baseline/05179v.jpg'></img></p>","null","","1550619433286","","","","","","",""
"null","","html-keyboard-response","18","2508166","0.0-6.0-12.0","25","<p><img class= 'stimulus' src='images/target/cactus2.jpg'></img></p>","null","","1550619433487","12","","","","","",""
"null","","html-keyboard-response","19","2508366","0.0-6.0-13.0","25","<p><img class= 'stimulus' src='images/baseline/geese-flying-over-lake-at-dusk.jpg'></img></p>","null","","1550619433688","","","","","","",""
"null","","html-keyboard-response","20","2508565","0.0-6.0-14.0","25","<p><img class= 'stimulus' src='images/baseline/Lake 15.jpg'></img></p>","null","","1550619433886","14","","","","","",""
"null","","html-keyboard-response","21","2508766","0.0-6.0-15.0","25","<p><img class= 'stimulus' src='images/baseline/landscape38.jpg'></img></p>","null","","1550619434085","","","","","","",""
"null","","html-keyboard-response","22","2508966","0.0-6.0-16.0","25","<p><img class= 'stimulus' src='images/baseline/05186v.jpg'></img></p>","null","","1550619434286","","","","","","",""
"null","","html-keyboard-response","23","2509182","0.0-6.0-17.0","25","<p><img class= 'stimulus' src='images/baseline/building5.jpg'></img></p>","null","","1550619434487","","","","","","",""
"4396.399999997579","","html-button-response","24","2514586","0.0-6.0-18.0","25","<div class = ""response_question"">WAS THE IMAGE ROTATED...</div>","","3","","","4","8","bas","right","practice","true"
"5373.4999999869615","","html-button-response","25","2519960","0.0-6.0-0.1","25","","","0","","","","","","","",""
"null","","html-keyboard-response","26","2520149","0.0-6.0-1.1","25","<p><img class= 'stimulus' src='images/baseline/Lake 13.jpg'></img></p>","null","","1550619445470","","","","","","",""
"null","","html-keyboard-response","27","2520349","0.0-6.0-2.1","25","<p><img class= 'stimulus' src='images/baseline/04014v.jpg'></img></p>","null","","1550619445668","","","","","","",""
"null","","html-keyboard-response","28","2520549","0.0-6.0-3.1","25","<p><img class= 'stimulus' src='images/baseline/04086v.jpg'></img></p>","null","","1550619445869","","","","","","",""
"null","","html-keyboard-response","29","2520749","0.0-6.0-4.1","25","<p><img class= 'stimulus' src='images/baseline/02982v.jpg'></img></p>","null","","1550619446070","4","","","","","",""
"null","","html-keyboard-response","30","2520949","0.0-6.0-5.1","25","<p><img class= 'stimulus' src='images/baseline/03075v.jpg'></img></p>","null","","1550619446270","","","","","","",""
"null","","html-keyboard-response","31","2521149","0.0-6.0-6.1","25","<p><img class= 'stimulus' src='images/baseline/pexels-photo-1837621.jpeg'></img></p>","null","","1550619446470","6","","","","","",""
"null","","html-keyboard-response","32","2521350","0.0-6.0-7.1","25","<p><img class= 'stimulus' src='images/baseline/Sunset 6.jpg'></img></p>","null","","1550619446670","","","","","","",""
"null","","html-keyboard-response","33","2521550","0.0-6.0-8.1","25","<p><img class= 'stimulus' src='images/baseline/landscape34.jpg'></img></p>","null","","1550619446870","8","","","","","",""
"null","","html-keyboard-response","34","2521750","0.0-6.0-9.1","25","<p><img class= 'stimulus' src='images/baseline/pexels-photo-1048039.jpeg'></img></p>","null","","1550619447070","","","","","","",""
"null","","html-keyboard-response","35","2521950","0.0-6.0-10.1","25","<p><img class= 'stimulus' src='images/baseline/Path 1.jpg'></img></p>","null","","1550619447271","","","","","","",""
"null","","html-keyboard-response","36","2522149","0.0-6.0-11.1","25","<p><img class= 'stimulus' src='images/baseline/building9.jpg'></img></p>","null","","1550619447471","","","","","","",""
"null","","html-keyboard-response","37","2522351","0.0-6.0-12.1","25","<p><img class= 'stimulus' src='images/baseline/Waterfall 1.jpg'></img></p>","null","","1550619447672","12","","","","","",""
"null","","html-keyboard-response","38","2522549","0.0-6.0-13.1","25","<p><img class= 'stimulus' src='images/baseline/landscape35.jpg'></img></p>","null","","1550619447871","","","","","","",""
"null","","html-keyboard-response","39","2522750","0.0-6.0-14.1","25","<p><img class= 'stimulus' src='images/target/buildin.png'></img></p>","null","","1550619448072","14","","","","","",""
"null","","html-keyboard-response","40","2522950","0.0-6.0-15.1","25","<p><img class= 'stimulus' src='images/baseline/house7.jpg'></img></p>","null","","1550619448270","","","","","","",""
"null","","html-keyboard-response","41","2523151","0.0-6.0-16.1","25","<p><img class= 'stimulus' src='images/baseline/02947v.jpg'></img></p>","null","","1550619448471","","","","","","",""
"null","","html-keyboard-response","42","2523367","0.0-6.0-17.1","25","<p><img class= 'stimulus' src='images/baseline/Road 1.jpg'></img></p>","null","","1550619448672","","","","","","",""
"2091.3999999905936","","html-button-response","43","2526465","0.0-6.0-18.1","25","<div class = ""response_question"">WAS THE IMAGE ROTATED...</div>","","3","","","6","8","bas","right","practice","true"
"2766.3999999933876","","html-button-response","44","2529233","0.0-6.0-0.2","25","","","0","","","","","","","",""
"null","","html-keyboard-response","45","2529416","0.0-6.0-1.2","25","<p><img class= 'stimulus' src='images/baseline/field 1.jpg'></img></p>","null","","1550619454737","","","","","","",""
"null","","html-keyboard-response","46","2529616","0.0-6.0-2.2","25","<p><img class= 'stimulus' src='images/baseline/field 3.jpg'></img></p>","null","","1550619454937","","","","","","",""
"null","","html-keyboard-response","47","2529817","0.0-6.0-3.2","25","<p><img class= 'stimulus' src='images/baseline/05303v.jpg'></img></p>","null","","1550619455137","","","","","","",""
"null","","html-keyboard-response","48","2530017","0.0-6.0-4.2","25","<p><img class= 'stimulus' src='images/baseline/landscape31.jpg'></img></p>","null","","1550619455336","4","","","","","",""
"null","","html-keyboard-response","49","2530217","0.0-6.0-5.2","25","<p><img class= 'stimulus' src='images/baseline/03217v.jpg'></img></p>","null","","1550619455537","","","","","","",""
"null","","html-keyboard-response","50","2530417","0.0-6.0-6.2","25","<p><img class= 'stimulus' src='images/target/tree_1.jpg'></img></p>","null","","1550619455737","6","","","","","",""
"null","","html-keyboard-response","51","2530618","0.0-6.0-7.2","25","<p><img class= 'stimulus' src='images/baseline/Sidewalk 4.jpg'></img></p>","null","","1550619455939","","","","","","",""
"null","","html-keyboard-response","52","2530819","0.0-6.0-8.2","25","<p><img class= 'stimulus' src='images/baseline/lake3.jpg'></img></p>","null","","1550619456137","8","","","","","",""
"null","","html-keyboard-response","53","2531018","0.0-6.0-9.2","25","<p><img class= 'stimulus' src='images/baseline/farmhouse3.jpg'></img></p>","null","","1550619456340","","","","","","",""
"null","","html-keyboard-response","54","2531219","0.0-6.0-10.2","25","<p><img class= 'stimulus' src='images/baseline/dirt-road-or-trail-through-park.jpg'></img></p>","null","","1550619456540","","","","","","",""
"null","","html-keyboard-response","55","2531418","0.0-6.0-11.2","25","<p><img class= 'stimulus' src='images/baseline/04098v.jpg'></img></p>","null","","1550619456739","","","","","","",""
"null","","html-keyboard-response","56","2531619","0.0-6.0-12.2","25","<p><img class= 'stimulus' src='images/baseline/grand-teton-mountains.jpg'></img></p>","null","","1550619456939","12","","","","","",""
"null","","html-keyboard-response","57","2531819","0.0-6.0-13.2","25","<p><img class= 'stimulus' src='images/baseline/building8.jpg'></img></p>","null","","1550619457138","","","","","","",""
"null","","html-keyboard-response","58","2532019","0.0-6.0-14.2","25","<p><img class= 'stimulus' src='images/baseline/landscape1.jpg'></img></p>","null","","1550619457340","14","","","","","",""
"null","","html-keyboard-response","59","2532219","0.0-6.0-15.2","25","<p><img class= 'stimulus' src='images/baseline/Aletschgletscher-Eggishorn.jpg'></img></p>","null","","1550619457539","","","","","","",""
"null","","html-keyboard-response","60","2532417","0.0-6.0-16.2","25","<p><img class= 'stimulus' src='images/baseline/04021v.jpg'></img></p>","null","","1550619457739","","","","","","",""
"null","","html-keyboard-response","61","2532635","0.0-6.0-17.2","25","<p><img class= 'stimulus' src='images/baseline/city-silhouette-at-sunset-871291580819Esw.jpg'></img></p>","null","","1550619457939","","","","","","",""
"1225.200000000652","","html-button-response","62","2534865","0.0-6.0-18.2","25","<div class = ""response_question"">WAS THE IMAGE ROTATED...</div>","","3","","","4","2","bas","right","practice","true"
"2686.3999999910593","","html-button-response","63","2537552","0.0-6.0-0.3","25","","","0","","","","","","","",""
"null","","html-keyboard-response","64","2537734","0.0-6.0-1.3","25","<p><img class= 'stimulus' src='images/baseline/04130v.jpg'></img></p>","null","","1550619463054","","","","","","",""
"null","","html-keyboard-response","65","2537934","0.0-6.0-2.3","25","<p><img class= 'stimulus' src='images/baseline/Skyscraper 2.jpg'></img></p>","null","","1550619463255","","","","","","",""
"null","","html-keyboard-response","66","2538133","0.0-6.0-3.3","25","<p><img class= 'stimulus' src='images/baseline/Camping 10.jpg'></img></p>","null","","1550619463454","","","","","","",""
"null","","html-keyboard-response","67","2538334","0.0-6.0-4.3","25","<p><img class= 'stimulus' src='images/baseline/05292v.jpg'></img></p>","null","","1550619463655","4","","","","","",""
"null","","html-keyboard-response","68","2538533","0.0-6.0-5.3","25","<p><img class= 'stimulus' src='images/baseline/Street 1.jpg'></img></p>","null","","1550619463854","","","","","","",""
"null","","html-keyboard-response","69","2538735","0.0-6.0-6.3","25","<p><img class= 'stimulus' src='images/baseline/landscape2.jpg'></img></p>","null","","1550619464056","6","","","","","",""
"null","","html-keyboard-response","70","2538935","0.0-6.0-7.3","25","<p><img class= 'stimulus' src='images/baseline/02945v.jpg'></img></p>","null","","1550619464255","","","","","","",""
"null","","html-keyboard-response","71","2539134","0.0-6.0-8.3","25","<p><img class= 'stimulus' src='images/target/buildin2.png'></img></p>","null","","1550619464455","8","","","","","",""
"null","","html-keyboard-response","72","2539335","0.0-6.0-9.3","25","<p><img class= 'stimulus' src='images/baseline/farmhouse6.jpg'></img></p>","null","","1550619464656","","","","","","",""
"null","","html-keyboard-response","73","2539535","0.0-6.0-10.3","25","<p><img class= 'stimulus' src='images/baseline/04229v.jpg'></img></p>","null","","1550619464855","","","","","","",""
"null","","html-keyboard-response","74","2539734","0.0-6.0-11.3","25","<p><img class= 'stimulus' src='images/baseline/Freudenberg_sg_Switzerland.jpg'></img></p>","null","","1550619465055","","","","","","",""
"null","","html-keyboard-response","75","2539934","0.0-6.0-12.3","25","<p><img class= 'stimulus' src='images/baseline/03045v.jpg'></img></p>","null","","1550619465255","12","","","","","",""
"null","","html-keyboard-response","76","2540134","0.0-6.0-13.3","25","<p><img class= 'stimulus' src='images/baseline/03204v.jpg'></img></p>","null","","1550619465455","","","","","","",""
"null","","html-keyboard-response","77","2540334","0.0-6.0-14.3","25","<p><img class= 'stimulus' src='images/baseline/trees 23.jpg'></img></p>","null","","1550619465656","14","","","","","",""
"null","","html-keyboard-response","78","2540535","0.0-6.0-15.3","25","<p><img class= 'stimulus' src='images/baseline/pexels-photo-221125.jpeg'></img></p>","null","","1550619465854","","","","","","",""
"null","","html-keyboard-response","79","2540733","0.0-6.0-16.3","25","<p><img class= 'stimulus' src='images/baseline/Desert_View_Indian_Wells.jpg'></img></p>","null","","1550619466055","","","","","","",""
"null","","html-keyboard-response","80","2540953","0.0-6.0-17.3","25","<p><img class= 'stimulus' src='images/baseline/agriculture-countryside-crop-259280.jpg'></img></p>","null","","1550619466255","","","","","","",""
"1179.499999998603","","html-button-response","81","2543135","0.0-6.0-18.3","25","<div class = ""response_question"">WAS THE IMAGE ROTATED...</div>","","3","","","6","2","bas","right","practice","true"
"3438.500000004191","","html-button-response","82","2546575","0.0-6.0-0.4","25","","","0","","","","","","","",""
"null","","html-keyboard-response","83","2546708","0.0-6.0-1.4","25","<p><img class= 'stimulus' src='images/baseline/05158v.jpg'></img></p>","null","","1550619472078","","","","","","",""
"null","","html-keyboard-response","84","2546857","0.0-6.0-2.4","25","<p><img class= 'stimulus' src='images/baseline/farmhouse9.jpg'></img></p>","null","","1550619472230","","","","","","",""
"null","","html-keyboard-response","85","2547006","0.0-6.0-3.4","25","<p><img class= 'stimulus' src='images/baseline/landscape29.jpg'></img></p>","null","","1550619472376","","","","","","",""
"null","","html-keyboard-response","86","2547157","0.0-6.0-4.4","25","<p><img class= 'stimulus' src='images/baseline/Lake 9.jpg'></img></p>","null","","1550619472527","4","","","","","",""
"null","","html-keyboard-response","87","2547307","0.0-6.0-5.4","25","<p><img class= 'stimulus' src='images/baseline/town-square-in-wroclaw-1539098440MZy.jpg'></img></p>","null","","1550619472677","","","","","","",""
"null","","html-keyboard-response","88","2547456","0.0-6.0-6.4","25","<p><img class= 'stimulus left-rotate' src='images/target/tree.jpeg'></img></p>","null","","1550619472828","6","","","","","",""
"null","","html-keyboard-response","89","2547606","0.0-6.0-7.4","25","<p><img class= 'stimulus' src='images/baseline/04010v.jpg'></img></p>","null","","1550619472977","","","","","","",""
"null","","html-keyboard-response","90","2547756","0.0-6.0-8.4","25","<p><img class= 'stimulus' src='images/baseline/Linden,_paysage.jpg'></img></p>","null","","1550619473127","8","","","","","",""
"null","","html-keyboard-response","91","2547907","0.0-6.0-9.4","25","<p><img class= 'stimulus' src='images/baseline/Sunset 3.jpg'></img></p>","null","","1550619473277","","","","","","",""
"null","","html-keyboard-response","92","2548056","0.0-6.0-10.4","25","<p><img class= 'stimulus' src='images/baseline/landscape17.jpg'></img></p>","null","","1550619473427","","","","","","",""
"null","","html-keyboard-response","93","2548206","0.0-6.0-11.4","25","<p><img class= 'stimulus' src='images/baseline/05203v.jpg'></img></p>","null","","1550619473577","","","","","","",""
"null","","html-keyboard-response","94","2548356","0.0-6.0-12.4","25","<p><img class= 'stimulus' src='images/baseline/Skyscraper 1.jpg'></img></p>","null","","1550619473727","12","","","","","",""
"null","","html-keyboard-response","95","2548506","0.0-6.0-13.4","25","<p><img class= 'stimulus' src='images/baseline/05280v.jpg'></img></p>","null","","1550619473878","","","","","","",""
"null","","html-keyboard-response","96","2548657","0.0-6.0-14.4","25","<p><img class= 'stimulus' src='images/baseline/03212v.jpg'></img></p>","null","","1550619474027","14","","","","","",""
"null","","html-keyboard-response","97","2548806","0.0-6.0-15.4","25","<p><img class= 'stimulus' src='images/baseline/architecture_modern_architecture_852928.jpg'></img></p>","null","","1550619474177","","","","","","",""
"null","","html-keyboard-response","98","2548957","0.0-6.0-16.4","25","<p><img class= 'stimulus' src='images/baseline/Sky 1.jpg'></img></p>","null","","1550619474327","","","","","","",""
"null","","html-keyboard-response","99","2549123","0.0-6.0-17.4","25","<p><img class= 'stimulus' src='images/baseline/valley 2.jpg'></img></p>","null","","1550619474477","","","","","","",""
"3270.7999999984168","","html-button-response","100","2553399","0.0-6.0-18.4","25","<div class = ""response_question"">WAS THE IMAGE ROTATED...</div>","","0","","","4","2","bas","left","practice","true"
"5838.900000002235","","html-button-response","101","2559239","0.0-6.0-0.5","25","","","0","","","","","","","",""
"null","","html-keyboard-response","102","2559373","0.0-6.0-1.5","25","<p><img class= 'stimulus' src='images/baseline/landscape12.jpg'></img></p>","null","","1550619484743","","","","","","",""
"null","","html-keyboard-response","103","2559523","0.0-6.0-2.5","25","<p><img class= 'stimulus' src='images/baseline/pexels-photo-1287089.jpeg'></img></p>","null","","1550619484894","","","","","","",""
"null","","html-keyboard-response","104","2559673","0.0-6.0-3.5","25","<p><img class= 'stimulus' src='images/baseline/river 1.jpg'></img></p>","null","","1550619485044","","","","","","",""
"null","","html-keyboard-response","105","2559822","0.0-6.0-4.5","25","<p><img class= 'stimulus' src='images/baseline/building2.jpg'></img></p>","null","","1550619485192","4","","","","","",""
"null","","html-keyboard-response","106","2559972","0.0-6.0-5.5","25","<p><img class= 'stimulus' src='images/baseline/Street 2.jpg'></img></p>","null","","1550619485343","","","","","","",""
"null","","html-keyboard-response","107","2560123","0.0-6.0-6.5","25","<p><img class= 'stimulus' src='images/baseline/04063v.jpg'></img></p>","null","","1550619485493","6","","","","","",""
"null","","html-keyboard-response","108","2560273","0.0-6.0-7.5","25","<p><img class= 'stimulus' src='images/baseline/04085v.jpg'></img></p>","null","","1550619485643","","","","","","",""
"null","","html-keyboard-response","109","2560423","0.0-6.0-8.5","25","<p><img class= 'stimulus' src='images/baseline/04064v.jpg'></img></p>","null","","1550619485794","8","","","","","",""
"null","","html-keyboard-response","110","2560572","0.0-6.0-9.5","25","<p><img class= 'stimulus' src='images/baseline/Street 3.jpg'></img></p>","null","","1550619485943","","","","","","",""
"null","","html-keyboard-response","111","2560723","0.0-6.0-10.5","25","<p><img class= 'stimulus' src='images/baseline/pexels-photo-750108.jpeg'></img></p>","null","","1550619486094","","","","","","",""
"null","","html-keyboard-response","112","2560873","0.0-6.0-11.5","25","<p><img class= 'stimulus' src='images/baseline/pexels-photo-259280.jpeg'></img></p>","null","","1550619486244","","","","","","",""
"null","","html-keyboard-response","113","2561023","0.0-6.0-12.5","25","<p><img class= 'stimulus left-rotate' src='images/target/mexico_tower_latin_american.jpg'></img></p>","null","","1550619486393","12","","","","","",""
"null","","html-keyboard-response","114","2561173","0.0-6.0-13.5","25","<p><img class= 'stimulus' src='images/baseline/03063v.jpg'></img></p>","null","","1550619486543","","","","","","",""
"null","","html-keyboard-response","115","2561323","0.0-6.0-14.5","25","<p><img class= 'stimulus' src='images/baseline/__08_-_ITALY_-_Forli_under_snow_-_winter_landscape_of_city_(christmas).jpg'></img></p>","null","","1550619486693","14","","","","","",""
"null","","html-keyboard-response","116","2561472","0.0-6.0-15.5","25","<p><img class= 'stimulus' src='images/baseline/04201v.jpg'></img></p>","null","","1550619486843","","","","","","",""
"null","","html-keyboard-response","117","2561622","0.0-6.0-16.5","25","<p><img class= 'stimulus' src='images/baseline/farmhouse2.jpg'></img></p>","null","","1550619486994","","","","","","",""
"null","","html-keyboard-response","118","2561790","0.0-6.0-17.5","25","<p><img class= 'stimulus' src='images/baseline/Lake 5.jpg'></img></p>","null","","1550619487144","","","","","","",""
"1164.9999999934807","","html-button-response","119","2563959","0.0-6.0-18.5","25","<div class = ""response_question"">WAS THE IMAGE ROTATED...</div>","","0","","","4","8","bas","left","practice","true"
"3190.8000000109896","","html-button-response","120","2567151","0.0-6.0-0.6","25","","","0","","","","","","","",""
"null","","html-keyboard-response","121","2567289","0.0-6.0-1.6","25","<p><img class= 'stimulus' src='images/baseline/Grass 6.jpg'></img></p>","null","","1550619492660","","","","","","",""
"null","","html-keyboard-response","122","2567439","0.0-6.0-2.6","25","<p><img class= 'stimulus' src='images/baseline/road 1(1).jpg'></img></p>","null","","1550619492809","","","","","","",""
"null","","html-keyboard-response","123","2567589","0.0-6.0-3.6","25","<p><img class= 'stimulus' src='images/baseline/landscape40.jpg'></img></p>","null","","1550619492959","","","","","","",""
"null","","html-keyboard-response","124","2567739","0.0-6.0-4.6","25","<p><img class= 'stimulus' src='images/baseline/pexels-photo-1261728.jpeg'></img></p>","null","","1550619493110","4","","","","","",""
"null","","html-keyboard-response","125","2567889","0.0-6.0-5.6","25","<p><img class= 'stimulus' src='images/baseline/sun-through-winter-tree-branches1.jpg'></img></p>","null","","1550619493260","","","","","","",""
"null","","html-keyboard-response","126","2568040","0.0-6.0-6.6","25","<p><img class= 'stimulus' src='images/baseline/Lake 16.jpg'></img></p>","null","","1550619493410","6","","","","","",""
"null","","html-keyboard-response","127","2568189","0.0-6.0-7.6","25","<p><img class= 'stimulus' src='images/baseline/building12.jpg'></img></p>","null","","1550619493560","","","","","","",""
"null","","html-keyboard-response","128","2568339","0.0-6.0-8.6","25","<p><img class= 'stimulus left-rotate' src='images/target/pexels-photo-1534411.jpeg'></img></p>","null","","1550619493710","8","","","","","",""
"null","","html-keyboard-response","129","2568489","0.0-6.0-9.6","25","<p><img class= 'stimulus' src='images/baseline/pexels-photo-280222.jpeg'></img></p>","null","","1550619493861","","","","","","",""
"null","","html-keyboard-response","130","2568639","0.0-6.0-10.6","25","<p><img class= 'stimulus' src='images/baseline/Lake 4.jpg'></img></p>","null","","1550619494010","","","","","","",""
"null","","html-keyboard-response","131","2568790","0.0-6.0-11.6","25","<p><img class= 'stimulus' src='images/baseline/building4.jpg'></img></p>","null","","1550619494160","","","","","","",""
"null","","html-keyboard-response","132","2568939","0.0-6.0-12.6","25","<p><img class= 'stimulus' src='images/baseline/04060v.jpg'></img></p>","null","","1550619494310","12","","","","","",""
"null","","html-keyboard-response","133","2569090","0.0-6.0-13.6","25","<p><img class= 'stimulus' src='images/baseline/04040v.jpg'></img></p>","null","","1550619494461","","","","","","",""
"null","","html-keyboard-response","134","2569239","0.0-6.0-14.6","25","<p><img class= 'stimulus' src='images/baseline/house8.jpg'></img></p>","null","","1550619494610","14","","","","","",""
"null","","html-keyboard-response","135","2569389","0.0-6.0-15.6","25","<p><img class= 'stimulus' src='images/baseline/house10.jpg'></img></p>","null","","1550619494759","","","","","","",""
"null","","html-keyboard-response","136","2569539","0.0-6.0-16.6","25","<p><img class= 'stimulus' src='images/baseline/farmhouse11.jpg'></img></p>","null","","1550619494909","","","","","","",""
"null","","html-keyboard-response","137","2569706","0.0-6.0-17.6","25","<p><img class= 'stimulus' src='images/baseline/Paysage_karabagh_02.jpg'></img></p>","null","","1550619495059","","","","","","",""
"2271.999999997206","","html-button-response","138","2572983","0.0-6.0-18.6","25","<div class = ""response_question"">WAS THE IMAGE ROTATED...</div>","","1","","","6","2","bas","left","practice","true"
"2686.399999991525","","html-button-response","139","2575671","0.0-6.0-0.7","25","","","0","","","","","","","",""
"null","","html-keyboard-response","140","2575807","0.0-6.0-1.7","25","<p><img class= 'stimulus' src='images/baseline/05189v.jpg'></img></p>","null","","1550619501176","","","","","","",""
"null","","html-keyboard-response","141","2575956","0.0-6.0-2.7","25","<p><img class= 'stimulus' src='images/baseline/autumn-landscape-with-lake-fall-trees-mountains.jpg'></img></p>","null","","1550619501326","","","","","","",""
"null","","html-keyboard-response","142","2576105","0.0-6.0-3.7","25","<p><img class= 'stimulus' src='images/baseline/05279v.jpg'></img></p>","null","","1550619501477","","","","","","",""
"null","","html-keyboard-response","143","2576257","0.0-6.0-4.7","25","<p><img class= 'stimulus' src='images/baseline/Bridge 1.jpg'></img></p>","null","","1550619501627","4","","","","","",""
"null","","html-keyboard-response","144","2576406","0.0-6.0-5.7","25","<p><img class= 'stimulus' src='images/baseline/pexels-photo-1840893.jpeg'></img></p>","null","","1550619501778","","","","","","",""
"null","","html-keyboard-response","145","2576556","0.0-6.0-6.7","25","<p><img class= 'stimulus' src='images/baseline/Nature 1.jpg'></img></p>","null","","1550619501926","6","","","","","",""
"null","","html-keyboard-response","146","2576706","0.0-6.0-7.7","25","<p><img class= 'stimulus' src='images/baseline/pexels-photo-59321.jpeg'></img></p>","null","","1550619502076","","","","","","",""
"null","","html-keyboard-response","147","2576856","0.0-6.0-8.7","25","<p><img class= 'stimulus' src='images/baseline/building6.jpg'></img></p>","null","","1550619502226","8","","","","","",""
"null","","html-keyboard-response","148","2577006","0.0-6.0-9.7","25","<p><img class= 'stimulus' src='images/baseline/Cold 7.jpg'></img></p>","null","","1550619502377","","","","","","",""
"null","","html-keyboard-response","149","2577157","0.0-6.0-10.7","25","<p><img class= 'stimulus' src='images/baseline/agriculture-bright-clouds-440731.jpg'></img></p>","null","","1550619502526","","","","","","",""
"null","","html-keyboard-response","150","2577306","0.0-6.0-11.7","25","<p><img class= 'stimulus' src='images/baseline/05161v.jpg'></img></p>","null","","1550619502677","","","","","","",""
"null","","html-keyboard-response","151","2577457","0.0-6.0-12.7","25","<p><img class= 'stimulus' src='images/baseline/hills 4.jpg'></img></p>","null","","1550619502827","12","","","","","",""
"null","","html-keyboard-response","152","2577605","0.0-6.0-13.7","25","<p><img class= 'stimulus' src='images/baseline/Lake 3.jpg'></img></p>","null","","1550619502978","","","","","","",""
"null","","html-keyboard-response","153","2577756","0.0-6.0-14.7","25","<p><img class= 'stimulus left-rotate' src='images/target/torrotito-375925_640.jpg'></img></p>","null","","1550619503127","14","","","","","",""
"null","","html-keyboard-response","154","2577906","0.0-6.0-15.7","25","<p><img class= 'stimulus' src='images/baseline/architecture-956332_1280.jpg'></img></p>","null","","1550619503277","","","","","","",""
"null","","html-keyboard-response","155","2578058","0.0-6.0-16.7","25","<p><img class= 'stimulus' src='images/baseline/Dirt 2.jpg'></img></p>","null","","1550619503427","","","","","","",""
"null","","html-keyboard-response","156","2578223","0.0-6.0-17.7","25","<p><img class= 'stimulus' src='images/baseline/house6.jpg'></img></p>","null","","1550619503577","","","","","","",""
"1219.1000000019558","","html-button-response","157","2580447","0.0-6.0-18.7","25","<div class = ""response_question"">WAS THE IMAGE ROTATED...</div>","","0","","","6","8","bas","left","practice","true"
"1718.800000002142","","html-button-response","158","2582167","0.0-6.0-0.8","25","","","0","","","","","","","",""
"null","","html-keyboard-response","159","2582239","0.0-6.0-1.8","25","<p><img class= 'stimulus' src='images/baseline/farmhouse1.jpg'></img></p>","null","","1550619507660","","","","","","",""
"null","","html-keyboard-response","160","2582339","0.0-6.0-2.8","25","<p><img class= 'stimulus' src='images/baseline/pexels-photo-808465.jpeg'></img></p>","null","","1550619507759","","","","","","",""
"null","","html-keyboard-response","161","2582439","0.0-6.0-3.8","25","<p><img class= 'stimulus' src='images/baseline/landscape8.jpg'></img></p>","null","","1550619507860","","","","","","",""
"null","","html-keyboard-response","162","2582539","0.0-6.0-4.8","25","<p><img class= 'stimulus' src='images/baseline/landscape22.jpg'></img></p>","null","","1550619507960","4","","","","","",""
"null","","html-keyboard-response","163","2582639","0.0-6.0-5.8","25","<p><img class= 'stimulus' src='images/baseline/kokkari-1523011968Xfr.jpg'></img></p>","null","","1550619508060","","","","","","",""
"null","","html-keyboard-response","164","2582739","0.0-6.0-6.8","25","<p><img class= 'stimulus' src='images/baseline/landscape7.jpg'></img></p>","null","","1550619508160","6","","","","","",""
"null","","html-keyboard-response","165","2582840","0.0-6.0-7.8","25","<p><img class= 'stimulus' src='images/baseline/03148v.jpg'></img></p>","null","","1550619508259","","","","","","",""
"null","","html-keyboard-response","166","2582940","0.0-6.0-8.8","25","<p><img class= 'stimulus' src='images/baseline/03066v.jpg'></img></p>","null","","1550619508360","8","","","","","",""
"null","","html-keyboard-response","167","2583039","0.0-6.0-9.8","25","<p><img class= 'stimulus' src='images/baseline/pexels-photo-210617.jpeg'></img></p>","null","","1550619508461","","","","","","",""
"null","","html-keyboard-response","168","2583139","0.0-6.0-10.8","25","<p><img class= 'stimulus' src='images/baseline/snowy tree.jpg'></img></p>","null","","1550619508560","","","","","","",""
"null","","html-keyboard-response","169","2583240","0.0-6.0-11.8","25","<p><img class= 'stimulus' src='images/baseline/04300v.jpg'></img></p>","null","","1550619508660","","","","","","",""
"null","","html-keyboard-response","170","2583339","0.0-6.0-12.8","25","<p><img class= 'stimulus' src='images/target/house-estate-1100x733.jpg'></img></p>","null","","1550619508760","12","","","","","",""
"null","","html-keyboard-response","171","2583439","0.0-6.0-13.8","25","<p><img class= 'stimulus' src='images/baseline/05131v.jpg'></img></p>","null","","1550619508861","","","","","","",""
"null","","html-keyboard-response","172","2583539","0.0-6.0-14.8","25","<p><img class= 'stimulus' src='images/baseline/05139v.jpg'></img></p>","null","","1550619508960","14","","","","","",""
"null","","html-keyboard-response","173","2583640","0.0-6.0-15.8","25","<p><img class= 'stimulus' src='images/baseline/flooded-bridge.jpg'></img></p>","null","","1550619509059","","","","","","",""
"null","","html-keyboard-response","174","2583739","0.0-6.0-16.8","25","<p><img class= 'stimulus' src='images/baseline/03041v.jpg'></img></p>","null","","1550619509160","","","","","","",""
"null","","html-keyboard-response","175","2583855","0.0-6.0-17.8","25","<p><img class= 'stimulus' src='images/baseline/lookout_tower.jpg'></img></p>","null","","1550619509260","","","","","","",""
"1433.3000000040047","","html-button-response","176","2586295","0.0-6.0-18.8","25","<div class = ""response_question"">WAS THE IMAGE ROTATED...</div>","","4","","","4","8","bas","right","practice","true"
"1102.2000000081025","","html-button-response","177","2587399","0.0-6.0-0.9","25","","","0","","","","","","","",""
"null","","html-keyboard-response","178","2587473","0.0-6.0-1.9","25","<p><img class= 'stimulus' src='images/baseline/red-rocks-park.jpg'></img></p>","null","","1550619512893","","","","","","",""
"null","","html-keyboard-response","179","2587573","0.0-6.0-2.9","25","<p><img class= 'stimulus' src='images/baseline/meadow-with-mountain-in-background.jpg'></img></p>","null","","1550619512993","","","","","","",""
"null","","html-keyboard-response","180","2587672","0.0-6.0-3.9","25","<p><img class= 'stimulus' src='images/baseline/05255v.jpg'></img></p>","null","","1550619513094","","","","","","",""
"null","","html-keyboard-response","181","2587773","0.0-6.0-4.9","25","<p><img class= 'stimulus' src='images/baseline/hills 1.jpg'></img></p>","null","","1550619513193","4","","","","","",""
"null","","html-keyboard-response","182","2587874","0.0-6.0-5.9","25","<p><img class= 'stimulus' src='images/baseline/02977v.jpg'></img></p>","null","","1550619513295","","","","","","",""
"null","","html-keyboard-response","183","2587972","0.0-6.0-6.9","25","<p><img class= 'stimulus' src='images/baseline/landscape36.jpg'></img></p>","null","","1550619513394","6","","","","","",""
"null","","html-keyboard-response","184","2588073","0.0-6.0-7.9","25","<p><img class= 'stimulus' src='images/baseline/landscape14.jpg'></img></p>","null","","1550619513493","","","","","","",""
"null","","html-keyboard-response","185","2588172","0.0-6.0-8.9","25","<p><img class= 'stimulus' src='images/baseline/farmhouse7.jpg'></img></p>","null","","1550619513594","8","","","","","",""
"null","","html-keyboard-response","186","2588273","0.0-6.0-9.9","25","<p><img class= 'stimulus' src='images/baseline/seoul-410266_1920.jpg'></img></p>","null","","1550619513694","","","","","","",""
"null","","html-keyboard-response","187","2588373","0.0-6.0-10.9","25","<p><img class= 'stimulus' src='images/baseline/Nature 2.jpg'></img></p>","null","","1550619513794","","","","","","",""
"null","","html-keyboard-response","188","2588473","0.0-6.0-11.9","25","<p><img class= 'stimulus' src='images/baseline/scenic-mountain-landscape.jpg'></img></p>","null","","1550619513894","","","","","","",""
"null","","html-keyboard-response","189","2588573","0.0-6.0-12.9","25","<p><img class= 'stimulus' src='images/baseline/05252v.jpg'></img></p>","null","","1550619513994","12","","","","","",""
"null","","html-keyboard-response","190","2588673","0.0-6.0-13.9","25","<p><img class= 'stimulus' src='images/baseline/horse_statue.jpg'></img></p>","null","","1550619514093","","","","","","",""
"null","","html-keyboard-response","191","2588772","0.0-6.0-14.9","25","<p><img class= 'stimulus' src='images/target/pexels-photo-210683.jpeg'></img></p>","null","","1550619514193","14","","","","","",""
"null","","html-keyboard-response","192","2588873","0.0-6.0-15.9","25","<p><img class= 'stimulus' src='images/baseline/Street 4.jpg'></img></p>","null","","1550619514294","","","","","","",""
"null","","html-keyboard-response","193","2588973","0.0-6.0-16.9","25","<p><img class= 'stimulus' src='images/baseline/autumn-in-red-rocks-park.jpg'></img></p>","null","","1550619514394","","","","","","",""
"null","","html-keyboard-response","194","2589089","0.0-6.0-17.9","25","<p><img class= 'stimulus' src='images/baseline/building3.jpg'></img></p>","null","","1550619514494","","","","","","",""
"1047.5000000004657","","html-button-response","195","2591143","0.0-6.0-18.9","25","<div class = ""response_question"">WAS THE IMAGE ROTATED...</div>","","0","","","6","8","bas","right","practice","false"
"1542.9000000003725","","html-button-response","196","2592687","0.0-6.0-0.10","25","","","0","","","","","","","",""
"null","","html-keyboard-response","197","2592773","0.0-6.0-1.10","25","<p><img class= 'stimulus' src='images/baseline/02988v.jpg'></img></p>","null","","1550619518194","","","","","","",""
"null","","html-keyboard-response","198","2592873","0.0-6.0-2.10","25","<p><img class= 'stimulus' src='images/baseline/05145v.jpg'></img></p>","null","","1550619518293","","","","","","",""
"null","","html-keyboard-response","199","2592973","0.0-6.0-3.10","25","<p><img class= 'stimulus' src='images/baseline/architecture-1314416_1920.jpg'></img></p>","null","","1550619518393","","","","","","",""
"null","","html-keyboard-response","200","2593073","0.0-6.0-4.10","25","<p><img class= 'stimulus' src='images/baseline/house3.jpg'></img></p>","null","","1550619518494","4","","","","","",""
"null","","html-keyboard-response","201","2593172","0.0-6.0-5.10","25","<p><img class= 'stimulus' src='images/baseline/03180v.jpg'></img></p>","null","","1550619518594","","","","","","",""
"null","","html-keyboard-response","202","2593273","0.0-6.0-6.10","25","<p><img class= 'stimulus' src='images/baseline/chicago-skyline-at-night-1476869511p8U.jpg'></img></p>","null","","1550619518694","6","","","","","",""
"null","","html-keyboard-response","203","2593372","0.0-6.0-7.10","25","<p><img class= 'stimulus' src='images/baseline/empire-state-building.jpg'></img></p>","null","","1550619518794","","","","","","",""
"null","","html-keyboard-response","204","2593473","0.0-6.0-8.10","25","<p><img class= 'stimulus' src='images/target/dreifaltigkeitskirche_sandhausen_837699.jpg'></img></p>","null","","1550619518893","8","","","","","",""
"null","","html-keyboard-response","205","2593573","0.0-6.0-9.10","25","<p><img class= 'stimulus' src='images/baseline/sunny-landscape-with-dry-brush-and-mountain-background.jpg'></img></p>","null","","1550619518993","","","","","","",""
"null","","html-keyboard-response","206","2593673","0.0-6.0-10.10","25","<p><img class= 'stimulus' src='images/baseline/Happy pose 3.jpg'></img></p>","null","","1550619519093","","","","","","",""
"null","","html-keyboard-response","207","2593773","0.0-6.0-11.10","25","<p><img class= 'stimulus' src='images/baseline/Dock 1.jpg'></img></p>","null","","1550619519194","","","","","","",""
"null","","html-keyboard-response","208","2593873","0.0-6.0-12.10","25","<p><img class= 'stimulus' src='images/baseline/03162v.jpg'></img></p>","null","","1550619519293","12","","","","","",""
"null","","html-keyboard-response","209","2593973","0.0-6.0-13.10","25","<p><img class= 'stimulus' src='images/baseline/landscape11.jpg'></img></p>","null","","1550619519393","","","","","","",""
"null","","html-keyboard-response","210","2594073","0.0-6.0-14.10","25","<p><img class= 'stimulus' src='images/baseline/Beach 8.jpg'></img></p>","null","","1550619519494","14","","","","","",""
"null","","html-keyboard-response","211","2594173","0.0-6.0-15.10","25","<p><img class= 'stimulus' src='images/baseline/red rocks from afar.jpg'></img></p>","null","","1550619519594","","","","","","",""
"null","","html-keyboard-response","212","2594273","0.0-6.0-16.10","25","<p><img class= 'stimulus' src='images/baseline/valley 1.jpg'></img></p>","null","","1550619519694","","","","","","",""
"null","","html-keyboard-response","213","2594389","0.0-6.0-17.10","25","<p><img class= 'stimulus' src='images/baseline/landscape39.jpg'></img></p>","null","","1550619519793","","","","","","",""
"1389.199999990873","","html-button-response","214","2596783","0.0-6.0-18.10","25","<div class = ""response_question"">WAS THE IMAGE ROTATED...</div>","","3","","","6","2","bas","right","practice","true"
"1582.2000000043772","","html-button-response","215","2598367","0.0-6.0-0.11","25","","","0","","","","","","","",""
"null","","html-keyboard-response","216","2598441","0.0-6.0-1.11","25","<p><img class= 'stimulus' src='images/baseline/05240v.jpg'></img></p>","null","","1550619523860","","","","","","",""
"null","","html-keyboard-response","217","2598539","0.0-6.0-2.11","25","<p><img class= 'stimulus' src='images/baseline/agriculture-cereal-clouds-175389.jpg'></img></p>","null","","1550619523960","","","","","","",""
"null","","html-keyboard-response","218","2598640","0.0-6.0-3.11","25","<p><img class= 'stimulus' src='images/baseline/field 4.jpg'></img></p>","null","","1550619524060","","","","","","",""
"null","","html-keyboard-response","219","2598739","0.0-6.0-4.11","25","<p><img class= 'stimulus' src='images/baseline/04062v.jpg'></img></p>","null","","1550619524159","4","","","","","",""
"null","","html-keyboard-response","220","2598840","0.0-6.0-5.11","25","<p><img class= 'stimulus' src='images/baseline/05247v.jpg'></img></p>","null","","1550619524259","","","","","","",""
"null","","html-keyboard-response","221","2598941","0.0-6.0-6.11","25","<p><img class= 'stimulus' src='images/baseline/cranes 1.jpg'></img></p>","null","","1550619524359","6","","","","","",""
"null","","html-keyboard-response","222","2599039","0.0-6.0-7.11","25","<p><img class= 'stimulus' src='images/baseline/99_-_Machu_Picchu_-_Juin_2009.edit3.jpg'></img></p>","null","","1550619524460","","","","","","",""
"null","","html-keyboard-response","223","2599140","0.0-6.0-8.11","25","<p><img class= 'stimulus left-rotate' src='images/target/beach1.jpeg'></img></p>","null","","1550619524561","8","","","","","",""
"null","","html-keyboard-response","224","2599240","0.0-6.0-9.11","25","<p><img class= 'stimulus' src='images/baseline/Street 5.jpg'></img></p>","null","","1550619524660","","","","","","",""
"null","","html-keyboard-response","225","2599340","0.0-6.0-10.11","25","<p><img class= 'stimulus' src='images/baseline/Peyto_Lake-Banff_NP-Canada.jpg'></img></p>","null","","1550619524760","","","","","","",""
"null","","html-keyboard-response","226","2599440","0.0-6.0-11.11","25","<p><img class= 'stimulus' src='images/baseline/4k-wallpaper-agriculture-clouds-842711.jpg'></img></p>","null","","1550619524861","","","","","","",""
"null","","html-keyboard-response","227","2599540","0.0-6.0-12.11","25","<p><img class= 'stimulus' src='images/baseline/Lake 14.jpg'></img></p>","null","","1550619524961","12","","","","","",""
"null","","html-keyboard-response","228","2599640","0.0-6.0-13.11","25","<p><img class= 'stimulus' src='images/baseline/pexels-photo-541101.jpeg'></img></p>","null","","1550619525060","","","","","","",""
"null","","html-keyboard-response","229","2599740","0.0-6.0-14.11","25","<p><img class= 'stimulus' src='images/baseline/pexels-photo-459203.jpeg'></img></p>","null","","1550619525160","14","","","","","",""
"null","","html-keyboard-response","230","2599839","0.0-6.0-15.11","25","<p><img class= 'stimulus' src='images/baseline/pexels-photo-427676.jpeg'></img></p>","null","","1550619525260","","","","","","",""
"null","","html-keyboard-response","231","2599939","0.0-6.0-16.11","25","<p><img class= 'stimulus' src='images/baseline/03201v.jpg'></img></p>","null","","1550619525359","","","","","","",""
"null","","html-keyboard-response","232","2600057","0.0-6.0-17.11","25","<p><img class= 'stimulus' src='images/baseline/foreclosed_home.jpg'></img></p>","null","","1550619525460","","","","","","",""
"1494.0999999963678","","html-button-response","233","2602568","0.0-6.0-18.11","25","<div class = ""response_question"">WAS THE IMAGE ROTATED...</div>","","0","","","6","2","bas","left","practice","true"
"2454.400000002235","","html-button-response","234","2605026","0.0-6.0-0.12","25","","","0","","","","","","","",""
"null","","html-keyboard-response","235","2605108","0.0-6.0-1.12","25","<p><img class= 'stimulus' src='images/baseline/04284v.jpg'></img></p>","null","","1550619530530","","","","","","",""
"null","","html-keyboard-response","236","2605209","0.0-6.0-2.12","25","<p><img class= 'stimulus' src='images/baseline/Sunset 4.jpg'></img></p>","null","","1550619530629","","","","","","",""
"null","","html-keyboard-response","237","2605309","0.0-6.0-3.12","25","<p><img class= 'stimulus' src='images/baseline/Sunset 5.jpg'></img></p>","null","","1550619530729","","","","","","",""
"null","","html-keyboard-response","238","2605409","0.0-6.0-4.12","25","<p><img class= 'stimulus' src='images/baseline/farmhouse4.jpg'></img></p>","null","","1550619530830","4","","","","","",""
"null","","html-keyboard-response","239","2605509","0.0-6.0-5.12","25","<p><img class= 'stimulus' src='images/baseline/lake 1.jpg'></img></p>","null","","1550619530929","","","","","","",""
"null","","html-keyboard-response","240","2605610","0.0-6.0-6.12","25","<p><img class= 'stimulus' src='images/baseline/Lake 7.jpg'></img></p>","null","","1550619531029","6","","","","","",""
"null","","html-keyboard-response","241","2605709","0.0-6.0-7.12","25","<p><img class= 'stimulus' src='images/baseline/03112v.jpg'></img></p>","null","","1550619531129","","","","","","",""
"null","","html-keyboard-response","242","2605809","0.0-6.0-8.12","25","<p><img class= 'stimulus' src='images/baseline/Paysage_enneige_02.jpg'></img></p>","null","","1550619531231","8","","","","","",""
"null","","html-keyboard-response","243","2605909","0.0-6.0-9.12","25","<p><img class= 'stimulus' src='images/baseline/05264v.jpg'></img></p>","null","","1550619531329","","","","","","",""
"null","","html-keyboard-response","244","2606008","0.0-6.0-10.12","25","<p><img class= 'stimulus' src='images/baseline/hiking-trail.jpg'></img></p>","null","","1550619531430","","","","","","",""
"null","","html-keyboard-response","245","2606110","0.0-6.0-11.12","25","<p><img class= 'stimulus' src='images/baseline/landscape4.jpg'></img></p>","null","","1550619531531","","","","","","",""
"null","","html-keyboard-response","246","2606209","0.0-6.0-12.12","25","<p><img class= 'stimulus left-rotate' src='images/target/landscape1.jpg'></img></p>","null","","1550619531630","12","","","","","",""
"null","","html-keyboard-response","247","2606309","0.0-6.0-13.12","25","<p><img class= 'stimulus' src='images/baseline/church-silhouette-8712964986014Kb.jpg'></img></p>","null","","1550619531730","","","","","","",""
"null","","html-keyboard-response","248","2606409","0.0-6.0-14.12","25","<p><img class= 'stimulus' src='images/baseline/hills 3.jpg'></img></p>","null","","1550619531829","14","","","","","",""
"null","","html-keyboard-response","249","2606509","0.0-6.0-15.12","25","<p><img class= 'stimulus' src='images/baseline/road.jpg'></img></p>","null","","1550619531931","","","","","","",""
"null","","html-keyboard-response","250","2606610","0.0-6.0-16.12","25","<p><img class= 'stimulus' src='images/baseline/Bahia_Onelli_Parque_Nacional_Los_Glaciares_Patagonia_Argentina_Luca_Galuzzi_2005.jpg'></img></p>","null","","1550619532029","","","","","","",""
"null","","html-keyboard-response","251","2606725","0.0-6.0-17.12","25","<p><img class= 'stimulus' src='images/baseline/farmhouse8.jpg'></img></p>","null","","1550619532130","","","","","","",""
"721.7000000090338","","html-button-response","252","2608450","0.0-6.0-18.12","25","<div class = ""response_question"">WAS THE IMAGE ROTATED...</div>","","0","","","4","8","bas","left","practice","true"
"2310.5999999968335","","html-button-response","253","2610762","0.0-6.0-0.13","25","","","0","","","","","","","",""
"null","","html-keyboard-response","254","2610842","0.0-6.0-1.13","25","<p><img class= 'stimulus' src='images/baseline/03220v.jpg'></img></p>","null","","1550619536263","","","","","","",""
"null","","html-keyboard-response","255","2610943","0.0-6.0-2.13","25","<p><img class= 'stimulus' src='images/baseline/Beach 3.jpg'></img></p>","null","","1550619536363","","","","","","",""
"null","","html-keyboard-response","256","2611042","0.0-6.0-3.13","25","<p><img class= 'stimulus' src='images/baseline/landscape13.jpg'></img></p>","null","","1550619536463","","","","","","",""
"null","","html-keyboard-response","257","2611142","0.0-6.0-4.13","25","<p><img class= 'stimulus' src='images/baseline/05167v.jpg'></img></p>","null","","1550619536563","4","","","","","",""
"null","","html-keyboard-response","258","2611243","0.0-6.0-5.13","25","<p><img class= 'stimulus' src='images/baseline/landscape15.jpg'></img></p>","null","","1550619536663","","","","","","",""
"null","","html-keyboard-response","259","2611343","0.0-6.0-6.13","25","<p><img class= 'stimulus' src='images/target/building3.jpg'></img></p>","null","","1550619536763","6","","","","","",""
"null","","html-keyboard-response","260","2611444","0.0-6.0-7.13","25","<p><img class= 'stimulus' src='images/baseline/02971v.jpg'></img></p>","null","","1550619536863","","","","","","",""
"null","","html-keyboard-response","261","2611542","0.0-6.0-8.13","25","<p><img class= 'stimulus' src='images/baseline/04117v.jpg'></img></p>","null","","1550619536962","8","","","","","",""
"null","","html-keyboard-response","262","2611642","0.0-6.0-9.13","25","<p><img class= 'stimulus' src='images/baseline/03056v.jpg'></img></p>","null","","1550619537062","","","","","","",""
"null","","html-keyboard-response","263","2611744","0.0-6.0-10.13","25","<p><img class= 'stimulus' src='images/baseline/landscape23.jpg'></img></p>","null","","1550619537164","","","","","","",""
"null","","html-keyboard-response","264","2611843","0.0-6.0-11.13","25","<p><img class= 'stimulus' src='images/baseline/landscape16.jpg'></img></p>","null","","1550619537263","","","","","","",""
"null","","html-keyboard-response","265","2611942","0.0-6.0-12.13","25","<p><img class= 'stimulus' src='images/baseline/landscape19.jpg'></img></p>","null","","1550619537363","12","","","","","",""
"null","","html-keyboard-response","266","2612043","0.0-6.0-13.13","25","<p><img class= 'stimulus' src='images/baseline/04031v.jpg'></img></p>","null","","1550619537463","","","","","","",""
"null","","html-keyboard-response","267","2612143","0.0-6.0-14.13","25","<p><img class= 'stimulus' src='images/baseline/04179v.jpg'></img></p>","null","","1550619537564","14","","","","","",""
"null","","html-keyboard-response","268","2612242","0.0-6.0-15.13","25","<p><img class= 'stimulus' src='images/baseline/02962v.jpg'></img></p>","null","","1550619537664","","","","","","",""
"null","","html-keyboard-response","269","2612343","0.0-6.0-16.13","25","<p><img class= 'stimulus' src='images/baseline/bird-flying-at-sunset.jpg'></img></p>","null","","1550619537763","","","","","","",""
"null","","html-keyboard-response","270","2612460","0.0-6.0-17.13","25","<p><img class= 'stimulus' src='images/baseline/pexels-photo-440731.jpeg'></img></p>","null","","1550619537862","","","","","","",""
"1835.2000000011176","","html-button-response","271","2615298","0.0-6.0-18.13","25","<div class = ""response_question"">WAS THE IMAGE ROTATED...</div>","","3","","","4","2","bas","right","practice","true"
"1982.4999999981374","","html-button-response","272","2617281","0.0-6.0-0.14","25","","","0","","","","","","","",""
"null","","html-keyboard-response","273","2617360","0.0-6.0-1.14","25","<p><img class= 'stimulus' src='images/baseline/pexels-photo-1054289.jpeg'></img></p>","null","","1550619542780","","","","","","",""
"null","","html-keyboard-response","274","2617459","0.0-6.0-2.14","25","<p><img class= 'stimulus' src='images/baseline/Sailing 3.jpg'></img></p>","null","","1550619542880","","","","","","",""
"null","","html-keyboard-response","275","2617559","0.0-6.0-3.14","25","<p><img class= 'stimulus' src='images/baseline/landscape6.jpg'></img></p>","null","","1550619542980","","","","","","",""
"null","","html-keyboard-response","276","2617659","0.0-6.0-4.14","25","<p><img class= 'stimulus' src='images/baseline/Kocherbaumwald-01.jpg'></img></p>","null","","1550619543080","4","","","","","",""
"null","","html-keyboard-response","277","2617759","0.0-6.0-5.14","25","<p><img class= 'stimulus' src='images/baseline/pexels-photo-351264.jpeg'></img></p>","null","","1550619543179","","","","","","",""
"null","","html-keyboard-response","278","2617860","0.0-6.0-6.14","25","<p><img class= 'stimulus left-rotate' src='images/target/chicago-673558_640.jpg'></img></p>","null","","1550619543279","6","","","","","",""
"null","","html-keyboard-response","279","2617959","0.0-6.0-7.14","25","<p><img class= 'stimulus' src='images/baseline/04162v.jpg'></img></p>","null","","1550619543379","","","","","","",""
"null","","html-keyboard-response","280","2618059","0.0-6.0-8.14","25","<p><img class= 'stimulus' src='images/baseline/building16.jpg'></img></p>","null","","1550619543481","8","","","","","",""
"null","","html-keyboard-response","281","2618160","0.0-6.0-9.14","25","<p><img class= 'stimulus' src='images/baseline/03098v.jpg'></img></p>","null","","1550619543580","","","","","","",""
"null","","html-keyboard-response","282","2618259","0.0-6.0-10.14","25","<p><img class= 'stimulus' src='images/baseline/pexels-photo-894312.jpeg'></img></p>","null","","1550619543680","","","","","","",""
"null","","html-keyboard-response","283","2618360","0.0-6.0-11.14","25","<p><img class= 'stimulus' src='images/baseline/02960v.jpg'></img></p>","null","","1550619543780","","","","","","",""
"null","","html-keyboard-response","284","2618460","0.0-6.0-12.14","25","<p><img class= 'stimulus' src='images/baseline/Beach 2.jpg'></img></p>","null","","1550619543881","12","","","","","",""
"null","","html-keyboard-response","285","2618559","0.0-6.0-13.14","25","<p><img class= 'stimulus' src='images/baseline/landscape33.jpg'></img></p>","null","","1550619543980","","","","","","",""
"null","","html-keyboard-response","286","2618659","0.0-6.0-14.14","25","<p><img class= 'stimulus' src='images/baseline/lake 2.jpg'></img></p>","null","","1550619544080","14","","","","","",""
"null","","html-keyboard-response","287","2618759","0.0-6.0-15.14","25","<p><img class= 'stimulus' src='images/baseline/lone-old-cottonwood-tree.jpg'></img></p>","null","","1550619544179","","","","","","",""
"null","","html-keyboard-response","288","2618860","0.0-6.0-16.14","25","<p><img class= 'stimulus' src='images/baseline/04196v.jpg'></img></p>","null","","1550619544279","","","","","","",""
"null","","html-keyboard-response","289","2618976","0.0-6.0-17.14","25","<p><img class= 'stimulus' src='images/baseline/04158v.jpg'></img></p>","null","","1550619544379","","","","","","",""
"1534.299999999348","","html-button-response","290","2621514","0.0-6.0-18.14","25","<div class = ""response_question"">WAS THE IMAGE ROTATED...</div>","","0","","","4","2","bas","left","practice","true"
"846.5","","html-button-response","291","2622361","0.0-6.0-0.15","25","","","0","","","","","","","",""
"null","","html-keyboard-response","292","2622443","0.0-6.0-1.15","25","<p><img class= 'stimulus' src='images/baseline/04193v.jpg'></img></p>","null","","1550619547863","","","","","","",""
"null","","html-keyboard-response","293","2622542","0.0-6.0-2.15","25","<p><img class= 'stimulus' src='images/baseline/cyrillic.jpg'></img></p>","null","","1550619547964","","","","","","",""
"null","","html-keyboard-response","294","2622643","0.0-6.0-3.15","25","<p><img class= 'stimulus' src='images/baseline/building_at_national_conservation.jpg'></img></p>","null","","1550619548064","","","","","","",""
"null","","html-keyboard-response","295","2622743","0.0-6.0-4.15","25","<p><img class= 'stimulus' src='images/baseline/house2.jpg'></img></p>","null","","1550619548163","4","","","","","",""
"null","","html-keyboard-response","296","2622842","0.0-6.0-5.15","25","<p><img class= 'stimulus' src='images/baseline/landscape3.jpg'></img></p>","null","","1550619548263","","","","","","",""
"null","","html-keyboard-response","297","2622942","0.0-6.0-6.15","25","<p><img class= 'stimulus' src='images/baseline/Lake 8.jpg'></img></p>","null","","1550619548362","6","","","","","",""
"null","","html-keyboard-response","298","2623044","0.0-6.0-7.15","25","<p><img class= 'stimulus' src='images/baseline/Skijump 1.jpg'></img></p>","null","","1550619548463","","","","","","",""
"null","","html-keyboard-response","299","2623142","0.0-6.0-8.15","25","<p><img class= 'stimulus' src='images/baseline/tennis-court-net-buried-in-snow.jpg'></img></p>","null","","1550619548563","8","","","","","",""
"null","","html-keyboard-response","300","2623243","0.0-6.0-9.15","25","<p><img class= 'stimulus' src='images/baseline/05198v.jpg'></img></p>","null","","1550619548663","","","","","","",""
"null","","html-keyboard-response","301","2623343","0.0-6.0-10.15","25","<p><img class= 'stimulus' src='images/baseline/05242v.jpg'></img></p>","null","","1550619548764","","","","","","",""
"null","","html-keyboard-response","302","2623444","0.0-6.0-11.15","25","<p><img class= 'stimulus' src='images/baseline/landscape37.jpg'></img></p>","null","","1550619548863","","","","","","",""
"null","","html-keyboard-response","303","2623543","0.0-6.0-12.15","25","<p><img class= 'stimulus' src='images/baseline/03114v.jpg'></img></p>","null","","1550619548963","12","","","","","",""
"null","","html-keyboard-response","304","2623643","0.0-6.0-13.15","25","<p><img class= 'stimulus' src='images/baseline/landscape15.jpg'></img></p>","null","","1550619549063","","","","","","",""
"null","","html-keyboard-response","305","2623743","0.0-6.0-14.15","25","<p><img class= 'stimulus left-rotate' src='images/target/tree-3563269_640.jpg'></img></p>","null","","1550619549163","14","","","","","",""
"null","","html-keyboard-response","306","2623843","0.0-6.0-15.15","25","<p><img class= 'stimulus' src='images/baseline/pexels-photo-808465.jpeg'></img></p>","null","","1550619549264","","","","","","",""
"null","","html-keyboard-response","307","2623942","0.0-6.0-16.15","25","<p><img class= 'stimulus' src='images/baseline/house11.jpg'></img></p>","null","","1550619549364","","","","","","",""
"null","","html-keyboard-response","308","2624059","0.0-6.0-17.15","25","<p><img class= 'stimulus' src='images/baseline/landscape4.jpg'></img></p>","null","","1550619549463","","","","","","",""
"1229.000000006985","","html-button-response","309","2626306","0.0-6.0-18.15","25","<div class = ""response_question"">WAS THE IMAGE ROTATED...</div>","","0","","","6","8","bas","left","practice","true"
"73966.30000000028","","html-button-response","310","2700279","0.0-7.0","25","<p>You have now completed the practice phase. We will now begin the real trials.         This is a reminder that you will be searching for a rotated image among the series of upright images.</p>         <p>Remember, please do not blink or move your eyes while the images are on the screen.</p>         <p>At the end of the experiment, the experimenter will be able to show you how accurate you were.</p>","","0","","","","","","","",""
"2503.20000000624","","html-button-response","311","2702783","0.0-8.0-0.0-0.0","25","","","0","","","","","","","",""
"null","","html-keyboard-response","312","2702867","0.0-8.0-0.0-1.0","25","<p><img class= 'stimulus' src='images/baseline/lone-old-cottonwood-tree.jpg'></img></p>","null","","1550619628286","","","","","","",""
"null","","html-keyboard-response","313","2702966","0.0-8.0-0.0-2.0","25","<p><img class= 'stimulus' src='images/baseline/landscape36.jpg'></img></p>","null","","1550619628386","","","","","","",""
"null","","html-keyboard-response","314","2703067","0.0-8.0-0.0-3.0","25","<p><img class= 'stimulus' src='images/baseline/Lake 5.jpg'></img></p>","null","","1550619628488","","","","","","",""
"null","","html-keyboard-response","315","2703166","0.0-8.0-0.0-4.0","25","<p><img class= 'stimulus' src='images/baseline/agriculture-cereal-clouds-175389.jpg'></img></p>","null","","1550619628587","4","","","","","",""
"null","","html-keyboard-response","316","2703267","0.0-8.0-0.0-5.0","25","<p><img class= 'stimulus' src='images/baseline/road.jpg'></img></p>","null","","1550619628686","","","","","","",""
"null","","html-keyboard-response","317","2703366","0.0-8.0-0.0-6.0","25","<p><img class= 'stimulus' src='images/baseline/pexels-photo-351264.jpeg'></img></p>","null","","1550619628786","6","","","","","",""
"null","","html-keyboard-response","318","2703467","0.0-8.0-0.0-7.0","25","<p><img class= 'stimulus' src='images/baseline/04222v.jpg'></img></p>","null","","1550619628887","","","","","","",""
"null","","html-keyboard-response","319","2703566","0.0-8.0-0.0-8.0","25","<p><img class= 'stimulus' src='images/baseline/landscape35.jpg'></img></p>","null","","1550619628988","8","","","","","",""
"null","","html-keyboard-response","320","2703665","0.0-8.0-0.0-9.0","25","<p><img class= 'stimulus' src='images/baseline/building5.jpg'></img></p>","null","","1550619629086","","","","","","",""
"null","","html-keyboard-response","321","2703766","0.0-8.0-0.0-10.0","25","<p><img class= 'stimulus' src='images/baseline/building16.jpg'></img></p>","null","","1550619629187","","","","","","",""
"null","","html-keyboard-response","322","2703866","0.0-8.0-0.0-11.0","25","<p><img class= 'stimulus' src='images/baseline/house10.jpg'></img></p>","null","","1550619629286","","","","","","",""
"null","","html-keyboard-response","323","2703966","0.0-8.0-0.0-12.0","25","<p><img class= 'stimulus' src='images/target/Wild-West-South-West-Usa-Landscape-America-1663497.jpg'></img></p>","null","","1550619629386","12","","","","","",""
"null","","html-keyboard-response","324","2704066","0.0-8.0-0.0-13.0","25","<p><img class= 'stimulus' src='images/baseline/04062v.jpg'></img></p>","null","","1550619629486","","","","","","",""
"null","","html-keyboard-response","325","2704166","0.0-8.0-0.0-14.0","25","<p><img class= 'stimulus' src='images/baseline/Beach 3.jpg'></img></p>","null","","1550619629586","14","","","","","",""
"null","","html-keyboard-response","326","2704267","0.0-8.0-0.0-15.0","25","<p><img class= 'stimulus' src='images/baseline/Happy pose 3.jpg'></img></p>","null","","1550619629687","","","","","","",""
"null","","html-keyboard-response","327","2704367","0.0-8.0-0.0-16.0","25","<p><img class= 'stimulus' src='images/baseline/pexels-photo-427676.jpeg'></img></p>","null","","1550619629787","","","","","","",""
"null","","html-keyboard-response","328","2704483","0.0-8.0-0.0-17.0","25","<p><img class= 'stimulus' src='images/baseline/Street 3.jpg'></img></p>","null","","1550619629887","","","","","","",""
"938.2999999942258","","html-button-response","329","2706424","0.0-8.0-0.0-18.0","25","<div class = ""response_question"">WAS THE IMAGE ROTATED...</div>","","3","","","4","8","bas","right","test","true"
"1933.7000000085682","","html-button-response","330","2708360","0.0-8.0-0.0-0.1","25","","","0","","","","","","","",""
"null","","html-keyboard-response","331","2708433","0.0-8.0-0.0-1.1","25","<p><img class= 'stimulus' src='images/baseline/chicago-skyline-at-night-1476869511p8U.jpg'></img></p>","null","","1550619633853","","","","","","",""
"null","","html-keyboard-response","332","2708533","0.0-8.0-0.0-2.1","25","<p><img class= 'stimulus' src='images/baseline/Bahia_Onelli_Parque_Nacional_Los_Glaciares_Patagonia_Argentina_Luca_Galuzzi_2005.jpg'></img></p>","null","","1550619633954","","","","","","",""
"null","","html-keyboard-response","333","2708633","0.0-8.0-0.0-3.1","25","<p><img class= 'stimulus' src='images/baseline/pexels-photo-440731.jpeg'></img></p>","null","","1550619634054","","","","","","",""
"null","","html-keyboard-response","334","2708733","0.0-8.0-0.0-4.1","25","<p><img class= 'stimulus' src='images/baseline/landscape29.jpg'></img></p>","null","","1550619634154","4","","","","","",""
"null","","html-keyboard-response","335","2708833","0.0-8.0-0.0-5.1","25","<p><img class= 'stimulus' src='images/baseline/Aletschgletscher-Eggishorn.jpg'></img></p>","null","","1550619634253","","","","","","",""
"null","","html-keyboard-response","336","2708933","0.0-8.0-0.0-6.1","25","<p><img class= 'stimulus left-rotate' src='images/target/1937-single-tree-at-the-top-of-stone-mountain-pv.jpg'></img></p>","null","","1550619634353","6","","","","","",""
"null","","html-keyboard-response","337","2709033","0.0-8.0-0.0-7.1","25","<p><img class= 'stimulus' src='images/baseline/05242v.jpg'></img></p>","null","","1550619634454","","","","","","",""
"null","","html-keyboard-response","338","2709133","0.0-8.0-0.0-8.1","25","<p><img class= 'stimulus' src='images/baseline/farmhouse6.jpg'></img></p>","null","","1550619634554","8","","","","","",""
"null","","html-keyboard-response","339","2709233","0.0-8.0-0.0-9.1","25","<p><img class= 'stimulus' src='images/baseline/red-rocks-park.jpg'></img></p>","null","","1550619634654","","","","","","",""
"null","","html-keyboard-response","340","2709333","0.0-8.0-0.0-10.1","25","<p><img class= 'stimulus' src='images/baseline/Sidewalk 4.jpg'></img></p>","null","","1550619634753","","","","","","",""
"null","","html-keyboard-response","341","2709432","0.0-8.0-0.0-11.1","25","<p><img class= 'stimulus' src='images/baseline/05303v.jpg'></img></p>","null","","1550619634853","","","","","","",""
"null","","html-keyboard-response","342","2709533","0.0-8.0-0.0-12.1","25","<p><img class= 'stimulus' src='images/baseline/building_at_national_conservation.jpg'></img></p>","null","","1550619634954","12","","","","","",""
"null","","html-keyboard-response","343","2709633","0.0-8.0-0.0-13.1","25","<p><img class= 'stimulus' src='images/baseline/landscape1.jpg'></img></p>","null","","1550619635053","","","","","","",""
"null","","html-keyboard-response","344","2709733","0.0-8.0-0.0-14.1","25","<p><img class= 'stimulus' src='images/baseline/field 3.jpg'></img></p>","null","","1550619635154","14","","","","","",""
"null","","html-keyboard-response","345","2709833","0.0-8.0-0.0-15.1","25","<p><img class= 'stimulus' src='images/baseline/04117v.jpg'></img></p>","null","","1550619635253","","","","","","",""
"null","","html-keyboard-response","346","2709932","0.0-8.0-0.0-16.1","25","<p><img class= 'stimulus' src='images/baseline/Niinsaare_jarv.jpg'></img></p>","null","","1550619635353","","","","","","",""
"null","","html-keyboard-response","347","2710050","0.0-8.0-0.0-17.1","25","<p><img class= 'stimulus' src='images/baseline/02945v.jpg'></img></p>","null","","1550619635453","","","","","","",""
"1331.4000000101514","","html-button-response","348","2712384","0.0-8.0-0.0-18.1","25","<div class = ""response_question"">WAS THE IMAGE ROTATED...</div>","","0","","","4","2","bas","left","test","true"
"3550.4000000073574","","html-button-response","349","2715936","0.0-8.0-0.0-0.2","25","","","0","","","","","","","",""
"null","","html-keyboard-response","350","2716018","0.0-8.0-0.0-1.2","25","<p><img class= 'stimulus' src='images/baseline/landscape13.jpg'></img></p>","null","","1550619641439","","","","","","",""
"null","","html-keyboard-response","351","2716117","0.0-8.0-0.0-2.2","25","<p><img class= 'stimulus' src='images/baseline/autumn-landscape-with-lake-fall-trees-mountains.jpg'></img></p>","null","","1550619641538","","","","","","",""
"null","","html-keyboard-response","352","2716217","0.0-8.0-0.0-3.2","25","<p><img class= 'stimulus' src='images/baseline/04021v.jpg'></img></p>","null","","1550619641639","","","","","","",""
"null","","html-keyboard-response","353","2716317","0.0-8.0-0.0-4.2","25","<p><img class= 'stimulus' src='images/baseline/pexels-photo-280222.jpeg'></img></p>","null","","1550619641738","4","","","","","",""
"null","","html-keyboard-response","354","2716417","0.0-8.0-0.0-5.2","25","<p><img class= 'stimulus' src='images/baseline/sunset-over-the-lake.jpg'></img></p>","null","","1550619641838","","","","","","",""
"null","","html-keyboard-response","355","2716518","0.0-8.0-0.0-6.2","25","<p><img class= 'stimulus' src='images/baseline/empire-state-building.jpg'></img></p>","null","","1550619641937","6","","","","","",""
"null","","html-keyboard-response","356","2716616","0.0-8.0-0.0-7.2","25","<p><img class= 'stimulus' src='images/baseline/03112v.jpg'></img></p>","null","","1550619642037","","","","","","",""
"null","","html-keyboard-response","357","2716717","0.0-8.0-0.0-8.2","25","<p><img class= 'stimulus' src='images/baseline/landscape11.jpg'></img></p>","null","","1550619642138","8","","","","","",""
"null","","html-keyboard-response","358","2716817","0.0-8.0-0.0-9.2","25","<p><img class= 'stimulus' src='images/baseline/landscape38.jpg'></img></p>","null","","1550619642237","","","","","","",""
"null","","html-keyboard-response","359","2716917","0.0-8.0-0.0-10.2","25","<p><img class= 'stimulus' src='images/baseline/Bridge 1.jpg'></img></p>","null","","1550619642337","","","","","","",""
"null","","html-keyboard-response","360","2717017","0.0-8.0-0.0-11.2","25","<p><img class= 'stimulus' src='images/baseline/Kocherbaumwald-01.jpg'></img></p>","null","","1550619642437","","","","","","",""
"null","","html-keyboard-response","361","2717117","0.0-8.0-0.0-12.2","25","<p><img class= 'stimulus' src='images/target/building2.jpg'></img></p>","null","","1550619642537","12","","","","","",""
"null","","html-keyboard-response","362","2717216","0.0-8.0-0.0-13.2","25","<p><img class= 'stimulus' src='images/baseline/farmhouse1.jpg'></img></p>","null","","1550619642637","","","","","","",""
"null","","html-keyboard-response","363","2717316","0.0-8.0-0.0-14.2","25","<p><img class= 'stimulus' src='images/baseline/05252v.jpg'></img></p>","null","","1550619642737","14","","","","","",""
"null","","html-keyboard-response","364","2717416","0.0-8.0-0.0-15.2","25","<p><img class= 'stimulus' src='images/baseline/05161v.jpg'></img></p>","null","","1550619642837","","","","","","",""
"null","","html-keyboard-response","365","2717516","0.0-8.0-0.0-16.2","25","<p><img class= 'stimulus' src='images/baseline/landscape33.jpg'></img></p>","null","","1550619642938","","","","","","",""
"null","","html-keyboard-response","366","2717633","0.0-8.0-0.0-17.2","25","<p><img class= 'stimulus' src='images/baseline/03041v.jpg'></img></p>","null","","1550619643036","","","","","","",""
"868.9000000013039","","html-button-response","367","2719520","0.0-8.0-0.0-18.2","25","<div class = ""response_question"">WAS THE IMAGE ROTATED...</div>","","3","","","4","8","bas","right","test","true"
"3502.600000007078","","html-button-response","368","2723024","0.0-8.0-0.0-0.3","25","","","0","","","","","","","",""
"null","","html-keyboard-response","369","2723100","0.0-8.0-0.0-1.3","25","<p><img class= 'stimulus' src='images/baseline/farmhouse3.jpg'></img></p>","null","","1550619648520","","","","","","",""
"null","","html-keyboard-response","370","2723200","0.0-8.0-0.0-2.3","25","<p><img class= 'stimulus' src='images/baseline/pexels-photo-534164.jpeg'></img></p>","null","","1550619648620","","","","","","",""
"null","","html-keyboard-response","371","2723300","0.0-8.0-0.0-3.3","25","<p><img class= 'stimulus' src='images/baseline/05292v.jpg'></img></p>","null","","1550619648720","","","","","","",""
"null","","html-keyboard-response","372","2723400","0.0-8.0-0.0-4.3","25","<p><img class= 'stimulus' src='images/baseline/flooded-bridge.jpg'></img></p>","null","","1550619648820","4","","","","","",""
"null","","html-keyboard-response","373","2723500","0.0-8.0-0.0-5.3","25","<p><img class= 'stimulus' src='images/baseline/pexels-photo-59321.jpeg'></img></p>","null","","1550619648920","","","","","","",""
"null","","html-keyboard-response","374","2723600","0.0-8.0-0.0-6.3","25","<p><img class= 'stimulus' src='images/baseline/02977v.jpg'></img></p>","null","","1550619649020","6","","","","","",""
"null","","html-keyboard-response","375","2723699","0.0-8.0-0.0-7.3","25","<p><img class= 'stimulus' src='images/baseline/pexels-photo-568236.jpeg'></img></p>","null","","1550619649120","","","","","","",""
"null","","html-keyboard-response","376","2723800","0.0-8.0-0.0-8.3","25","<p><img class= 'stimulus left-rotate' src='images/target/lone-tree-1934897_640.jpg'></img></p>","null","","1550619649219","8","","","","","",""
"null","","html-keyboard-response","377","2723900","0.0-8.0-0.0-9.3","25","<p><img class= 'stimulus' src='images/baseline/02982v.jpg'></img></p>","null","","1550619649320","","","","","","",""
"null","","html-keyboard-response","378","2724000","0.0-8.0-0.0-10.3","25","<p><img class= 'stimulus' src='images/baseline/landscape14.jpg'></img></p>","null","","1550619649420","","","","","","",""
"null","","html-keyboard-response","379","2724100","0.0-8.0-0.0-11.3","25","<p><img class= 'stimulus' src='images/baseline/04063v.jpg'></img></p>","null","","1550619649521","","","","","","",""
"null","","html-keyboard-response","380","2724200","0.0-8.0-0.0-12.3","25","<p><img class= 'stimulus' src='images/baseline/landscape39.jpg'></img></p>","null","","1550619649621","12","","","","","",""
"null","","html-keyboard-response","381","2724300","0.0-8.0-0.0-13.3","25","<p><img class= 'stimulus' src='images/baseline/04086v.jpg'></img></p>","null","","1550619649720","","","","","","",""
"null","","html-keyboard-response","382","2724400","0.0-8.0-0.0-14.3","25","<p><img class= 'stimulus' src='images/baseline/05158v.jpg'></img></p>","null","","1550619649820","14","","","","","",""
"null","","html-keyboard-response","383","2724500","0.0-8.0-0.0-15.3","25","<p><img class= 'stimulus' src='images/baseline/building4.jpg'></img></p>","null","","1550619649920","","","","","","",""
"null","","html-keyboard-response","384","2724600","0.0-8.0-0.0-16.3","25","<p><img class= 'stimulus' src='images/baseline/02971v.jpg'></img></p>","null","","1550619650020","","","","","","",""
"null","","html-keyboard-response","385","2724716","0.0-8.0-0.0-17.3","25","<p><img class= 'stimulus' src='images/baseline/03063v.jpg'></img></p>","null","","1550619650120","","","","","","",""
"1663.1000000052154","","html-button-response","386","2727383","0.0-8.0-0.0-18.3","25","<div class = ""response_question"">WAS THE IMAGE ROTATED...</div>","","0","","","6","2","bas","left","test","true"
"2942.399999999441","","html-button-response","387","2730327","0.0-8.0-0.0-0.4","25","","","0","","","","","","","",""
"null","","html-keyboard-response","388","2730400","0.0-8.0-0.0-1.4","25","<p><img class= 'stimulus' src='images/baseline/Street 2.jpg'></img></p>","null","","1550619655821","","","","","","",""
"null","","html-keyboard-response","389","2730499","0.0-8.0-0.0-2.4","25","<p><img class= 'stimulus' src='images/baseline/field 2.jpg'></img></p>","null","","1550619655920","","","","","","",""
"null","","html-keyboard-response","390","2730601","0.0-8.0-0.0-3.4","25","<p><img class= 'stimulus' src='images/baseline/Path 1.jpg'></img></p>","null","","1550619656020","","","","","","",""
"null","","html-keyboard-response","391","2730700","0.0-8.0-0.0-4.4","25","<p><img class= 'stimulus' src='images/baseline/field 1.jpg'></img></p>","null","","1550619656120","4","","","","","",""
"null","","html-keyboard-response","392","2730799","0.0-8.0-0.0-5.4","25","<p><img class= 'stimulus' src='images/baseline/04300v.jpg'></img></p>","null","","1550619656220","","","","","","",""
"null","","html-keyboard-response","393","2730900","0.0-8.0-0.0-6.4","25","<p><img class= 'stimulus' src='images/baseline/05189v.jpg'></img></p>","null","","1550619656321","6","","","","","",""
"null","","html-keyboard-response","394","2731001","0.0-8.0-0.0-7.4","25","<p><img class= 'stimulus' src='images/baseline/05203v.jpg'></img></p>","null","","1550619656420","","","","","","",""
"null","","html-keyboard-response","395","2731100","0.0-8.0-0.0-8.4","25","<p><img class= 'stimulus' src='images/baseline/pexels-photo-414491.jpeg'></img></p>","null","","1550619656521","8","","","","","",""
"null","","html-keyboard-response","396","2731199","0.0-8.0-0.0-9.4","25","<p><img class= 'stimulus' src='images/baseline/geese-flying-over-lake-at-dusk.jpg'></img></p>","null","","1550619656620","","","","","","",""
"null","","html-keyboard-response","397","2731299","0.0-8.0-0.0-10.4","25","<p><img class= 'stimulus' src='images/baseline/building8.jpg'></img></p>","null","","1550619656719","","","","","","",""
"null","","html-keyboard-response","398","2731399","0.0-8.0-0.0-11.4","25","<p><img class= 'stimulus' src='images/baseline/Paysage_enneige_02.jpg'></img></p>","null","","1550619656820","","","","","","",""
"null","","html-keyboard-response","399","2731499","0.0-8.0-0.0-12.4","25","<p><img class= 'stimulus' src='images/baseline/house6.jpg'></img></p>","null","","1550619656920","12","","","","","",""
"null","","html-keyboard-response","400","2731600","0.0-8.0-0.0-13.4","25","<p><img class= 'stimulus' src='images/baseline/Skyscraper 2.jpg'></img></p>","null","","1550619657019","","","","","","",""
"null","","html-keyboard-response","401","2731700","0.0-8.0-0.0-14.4","25","<p><img class= 'stimulus left-rotate' src='images/target/building15.jpg'></img></p>","null","","1550619657121","14","","","","","",""
"null","","html-keyboard-response","402","2731800","0.0-8.0-0.0-15.4","25","<p><img class= 'stimulus' src='images/baseline/4k-wallpaper-agriculture-clouds-842711.jpg'></img></p>","null","","1550619657220","","","","","","",""
"null","","html-keyboard-response","403","2731899","0.0-8.0-0.0-16.4","25","<p><img class= 'stimulus' src='images/baseline/Lake 14.jpg'></img></p>","null","","1550619657321","","","","","","",""
"null","","html-keyboard-response","404","2732016","0.0-8.0-0.0-17.4","25","<p><img class= 'stimulus' src='images/baseline/landscape7.jpg'></img></p>","null","","1550619657421","","","","","","",""
"2125.5000000088476","","html-button-response","405","2735160","0.0-8.0-0.0-18.4","25","<div class = ""response_question"">WAS THE IMAGE ROTATED...</div>","","0","","","6","8","bas","left","test","true"
"2686.4999999962747","","html-button-response","406","2737848","0.0-8.0-0.0-0.5","25","","","0","","","","","","","",""
"null","","html-keyboard-response","407","2737933","0.0-8.0-0.0-1.5","25","<p><img class= 'stimulus' src='images/baseline/landscape16.jpg'></img></p>","null","","1550619663355","","","","","","",""
"null","","html-keyboard-response","408","2738032","0.0-8.0-0.0-2.5","25","<p><img class= 'stimulus' src='images/baseline/building3.jpg'></img></p>","null","","1550619663454","","","","","","",""
"null","","html-keyboard-response","409","2738133","0.0-8.0-0.0-3.5","25","<p><img class= 'stimulus' src='images/baseline/04179v.jpg'></img></p>","null","","1550619663554","","","","","","",""
"null","","html-keyboard-response","410","2738233","0.0-8.0-0.0-4.5","25","<p><img class= 'stimulus' src='images/neutral/Neuralll (1).jpg'></img></p>","null","","1550619663653","4","","","","","",""
"null","","html-keyboard-response","411","2738333","0.0-8.0-0.0-5.5","25","<p><img class= 'stimulus' src='images/baseline/Beach 8.jpg'></img></p>","null","","1550619663754","","","","","","",""
"null","","html-keyboard-response","412","2738433","0.0-8.0-0.0-6.5","25","<p><img class= 'stimulus' src='images/target/oak-456524_640.jpg'></img></p>","null","","1550619663855","6","","","","","",""
"null","","html-keyboard-response","413","2738534","0.0-8.0-0.0-7.5","25","<p><img class= 'stimulus' src='images/baseline/cranes 1.jpg'></img></p>","null","","1550619663953","","","","","","",""
"null","","html-keyboard-response","414","2738632","0.0-8.0-0.0-8.5","25","<p><img class= 'stimulus' src='images/baseline/farmhouse9.jpg'></img></p>","null","","1550619664053","8","","","","","",""
"null","","html-keyboard-response","415","2738732","0.0-8.0-0.0-9.5","25","<p><img class= 'stimulus' src='images/baseline/Street 5.jpg'></img></p>","null","","1550619664154","","","","","","",""
"null","","html-keyboard-response","416","2738834","0.0-8.0-0.0-10.5","25","<p><img class= 'stimulus' src='images/baseline/farmhouse2.jpg'></img></p>","null","","1550619664255","","","","","","",""
"null","","html-keyboard-response","417","2738933","0.0-8.0-0.0-11.5","25","<p><img class= 'stimulus' src='images/baseline/house8.jpg'></img></p>","null","","1550619664354","","","","","","",""
"null","","html-keyboard-response","418","2739033","0.0-8.0-0.0-12.5","25","<p><img class= 'stimulus' src='images/baseline/Sky 1.jpg'></img></p>","null","","1550619664455","12","","","","","",""
"null","","html-keyboard-response","419","2739133","0.0-8.0-0.0-13.5","25","<p><img class= 'stimulus' src='images/baseline/landscape3.jpg'></img></p>","null","","1550619664553","","","","","","",""
"null","","html-keyboard-response","420","2739233","0.0-8.0-0.0-14.5","25","<p><img class= 'stimulus' src='images/baseline/autumn-in-red-rocks-park.jpg'></img></p>","null","","1550619664653","14","","","","","",""
"null","","html-keyboard-response","421","2739333","0.0-8.0-0.0-15.5","25","<p><img class= 'stimulus' src='images/baseline/05279v.jpg'></img></p>","null","","1550619664754","","","","","","",""
"null","","html-keyboard-response","422","2739433","0.0-8.0-0.0-16.5","25","<p><img class= 'stimulus' src='images/baseline/hills 4.jpg'></img></p>","null","","1550619664853","","","","","","",""
"null","","html-keyboard-response","423","2739550","0.0-8.0-0.0-17.5","25","<p><img class= 'stimulus' src='images/baseline/Sailing 3.jpg'></img></p>","null","","1550619664954","","","","","","",""
"1270.8999999882653","","html-button-response","424","2741824","0.0-8.0-0.0-18.5","25","<div class = ""response_question"">WAS THE IMAGE ROTATED...</div>","","3","","","4","2","neu","right","test","true"
"3269.9000000138767","","html-button-response","425","2745094","0.0-8.0-0.0-0.6","25","","","0","","","","","","","",""
"null","","html-keyboard-response","426","2745165","0.0-8.0-0.0-1.6","25","<p><img class= 'stimulus' src='images/baseline/04201v.jpg'></img></p>","null","","1550619670584","","","","","","",""
"null","","html-keyboard-response","427","2745263","0.0-8.0-0.0-2.6","25","<p><img class= 'stimulus' src='images/baseline/05167v.jpg'></img></p>","null","","1550619670684","","","","","","",""
"null","","html-keyboard-response","428","2745363","0.0-8.0-0.0-3.6","25","<p><img class= 'stimulus' src='images/baseline/sun-through-winter-tree-branches1.jpg'></img></p>","null","","1550619670785","","","","","","",""
"null","","html-keyboard-response","429","2745465","0.0-8.0-0.0-4.6","25","<p><img class= 'stimulus' src='images/baseline/Sunset 6.jpg'></img></p>","null","","1550619670884","4","","","","","",""
"null","","html-keyboard-response","430","2745564","0.0-8.0-0.0-5.6","25","<p><img class= 'stimulus' src='images/baseline/Nature 1.jpg'></img></p>","null","","1550619670985","","","","","","",""
"null","","html-keyboard-response","431","2745664","0.0-8.0-0.0-6.6","25","<p><img class= 'stimulus' src='images/baseline/03098v.jpg'></img></p>","null","","1550619671084","6","","","","","",""
"null","","html-keyboard-response","432","2745764","0.0-8.0-0.0-7.6","25","<p><img class= 'stimulus' src='images/baseline/03045v.jpg'></img></p>","null","","1550619671184","","","","","","",""
"null","","html-keyboard-response","433","2745864","0.0-8.0-0.0-8.6","25","<p><img class= 'stimulus' src='images/baseline/landscape31.jpg'></img></p>","null","","1550619671284","8","","","","","",""
"null","","html-keyboard-response","434","2745964","0.0-8.0-0.0-9.6","25","<p><img class= 'stimulus' src='images/baseline/03148v.jpg'></img></p>","null","","1550619671384","","","","","","",""
"null","","html-keyboard-response","435","2746065","0.0-8.0-0.0-10.6","25","<p><img class= 'stimulus' src='images/baseline/pexels-photo-750108.jpeg'></img></p>","null","","1550619671484","","","","","","",""
"null","","html-keyboard-response","436","2746164","0.0-8.0-0.0-11.6","25","<p><img class= 'stimulus' src='images/baseline/05255v.jpg'></img></p>","null","","1550619671584","","","","","","",""
"null","","html-keyboard-response","437","2746265","0.0-8.0-0.0-12.6","25","<p><img class= 'stimulus' src='images/baseline/architecture-1314416_1920.jpg'></img></p>","null","","1550619671685","12","","","","","",""
"null","","html-keyboard-response","438","2746364","0.0-8.0-0.0-13.6","25","<p><img class= 'stimulus' src='images/baseline/landscape22.jpg'></img></p>","null","","1550619671784","","","","","","",""
"null","","html-keyboard-response","439","2746463","0.0-8.0-0.0-14.6","25","<p><img class= 'stimulus left-rotate' src='images/target/tree-in-desert-landscape.jpg'></img></p>","null","","1550619671884","14","","","","","",""
"null","","html-keyboard-response","440","2746565","0.0-8.0-0.0-15.6","25","<p><img class= 'stimulus' src='images/baseline/building9.jpg'></img></p>","null","","1550619671985","","","","","","",""
"null","","html-keyboard-response","441","2746663","0.0-8.0-0.0-16.6","25","<p><img class= 'stimulus' src='images/baseline/Paysage_karabagh_02.jpg'></img></p>","null","","1550619672085","","","","","","",""
"null","","html-keyboard-response","442","2746781","0.0-8.0-0.0-17.6","25","<p><img class= 'stimulus' src='images/baseline/sunny-landscape-with-dry-brush-and-mountain-background.jpg'></img></p>","null","","1550619672185","","","","","","",""
"1568.9000000129454","","html-button-response","443","2749357","0.0-8.0-0.0-18.6","25","<div class = ""response_question"">WAS THE IMAGE ROTATED...</div>","","1","","","6","8","bas","left","test","true"
"1934.2999999932945","","html-button-response","444","2751293","0.0-8.0-0.0-0.7","25","","","0","","","","","","","",""
"null","","html-keyboard-response","445","2751364","0.0-8.0-0.0-1.7","25","<p><img class= 'stimulus' src='images/baseline/02988v.jpg'></img></p>","null","","1550619676785","","","","","","",""
"null","","html-keyboard-response","446","2751464","0.0-8.0-0.0-2.7","25","<p><img class= 'stimulus' src='images/baseline/cyrillic.jpg'></img></p>","null","","1550619676884","","","","","","",""
"null","","html-keyboard-response","447","2751563","0.0-8.0-0.0-3.7","25","<p><img class= 'stimulus' src='images/baseline/building2.jpg'></img></p>","null","","1550619676985","","","","","","",""
"null","","html-keyboard-response","448","2751664","0.0-8.0-0.0-4.7","25","<p><img class= 'stimulus' src='images/baseline/02947v.jpg'></img></p>","null","","1550619677085","4","","","","","",""
"null","","html-keyboard-response","449","2751765","0.0-8.0-0.0-5.7","25","<p><img class= 'stimulus' src='images/baseline/pexels-photo-259280.jpeg'></img></p>","null","","1550619677185","","","","","","",""
"null","","html-keyboard-response","450","2751864","0.0-8.0-0.0-6.7","25","<p><img class= 'stimulus' src='images/neutral/Penguins 2.jpg'></img></p>","null","","1550619677285","6","","","","","",""
"null","","html-keyboard-response","451","2751964","0.0-8.0-0.0-7.7","25","<p><img class= 'stimulus' src='images/baseline/03204v.jpg'></img></p>","null","","1550619677384","","","","","","",""
"null","","html-keyboard-response","452","2752064","0.0-8.0-0.0-8.7","25","<p><img class= 'stimulus' src='images/target/specphotops-563427-unsplash.jpg'></img></p>","null","","1550619677484","8","","","","","",""
"null","","html-keyboard-response","453","2752165","0.0-8.0-0.0-9.7","25","<p><img class= 'stimulus' src='images/baseline/farmhouse7.jpg'></img></p>","null","","1550619677584","","","","","","",""
"null","","html-keyboard-response","454","2752264","0.0-8.0-0.0-10.7","25","<p><img class= 'stimulus' src='images/baseline/04162v.jpg'></img></p>","null","","1550619677685","","","","","","",""
"null","","html-keyboard-response","455","2752364","0.0-8.0-0.0-11.7","25","<p><img class= 'stimulus' src='images/baseline/Lake 4.jpg'></img></p>","null","","1550619677784","","","","","","",""
"null","","html-keyboard-response","456","2752465","0.0-8.0-0.0-12.7","25","<p><img class= 'stimulus' src='images/baseline/04098v.jpg'></img></p>","null","","1550619677884","12","","","","","",""
"null","","html-keyboard-response","457","2752565","0.0-8.0-0.0-13.7","25","<p><img class= 'stimulus' src='images/baseline/church-silhouette-8712964986014Kb.jpg'></img></p>","null","","1550619677986","","","","","","",""
"null","","html-keyboard-response","458","2752663","0.0-8.0-0.0-14.7","25","<p><img class= 'stimulus' src='images/baseline/Sunset 3.jpg'></img></p>","null","","1550619678084","14","","","","","",""
"null","","html-keyboard-response","459","2752764","0.0-8.0-0.0-15.7","25","<p><img class= 'stimulus' src='images/baseline/Dock 1.jpg'></img></p>","null","","1550619678184","","","","","","",""
"null","","html-keyboard-response","460","2752865","0.0-8.0-0.0-16.7","25","<p><img class= 'stimulus' src='images/baseline/landscape40.jpg'></img></p>","null","","1550619678284","","","","","","",""
"null","","html-keyboard-response","461","2752981","0.0-8.0-0.0-17.7","25","<p><img class= 'stimulus' src='images/baseline/Dirt 2.jpg'></img></p>","null","","1550619678385","","","","","","",""
"1150.3999999985099","","html-button-response","462","2755150","0.0-8.0-0.0-18.7","25","<div class = ""response_question"">WAS THE IMAGE ROTATED...</div>","","4","","","6","2","neu","right","test","true"
"3406.1000000075437","","html-button-response","463","2758557","0.0-8.0-0.0-0.8","25","","","0","","","","","","","",""
"null","","html-keyboard-response","464","2758647","0.0-8.0-0.0-1.8","25","<p><img class= 'stimulus' src='images/baseline/house1.jpg'></img></p>","null","","1550619684068","","","","","","",""
"null","","html-keyboard-response","465","2758748","0.0-8.0-0.0-2.8","25","<p><img class= 'stimulus' src='images/baseline/agriculture-bright-clouds-440731.jpg'></img></p>","null","","1550619684168","","","","","","",""
"null","","html-keyboard-response","466","2758848","0.0-8.0-0.0-3.8","25","<p><img class= 'stimulus' src='images/baseline/__08_-_ITALY_-_Forli_under_snow_-_winter_landscape_of_city_(christmas).jpg'></img></p>","null","","1550619684268","","","","","","",""
"null","","html-keyboard-response","467","2758948","0.0-8.0-0.0-4.8","25","<p><img class= 'stimulus' src='images/neutral/Neutral face 1.jpg'></img></p>","null","","1550619684368","4","","","","","",""
"null","","html-keyboard-response","468","2759047","0.0-8.0-0.0-5.8","25","<p><img class= 'stimulus' src='images/baseline/architecture_modern_architecture_852928.jpg'></img></p>","null","","1550619684468","","","","","","",""
"null","","html-keyboard-response","469","2759147","0.0-8.0-0.0-6.8","25","<p><img class= 'stimulus left-rotate' src='images/target/pexels-photo-602607.jpeg'></img></p>","null","","1550619684569","6","","","","","",""
"null","","html-keyboard-response","470","2759248","0.0-8.0-0.0-7.8","25","<p><img class= 'stimulus' src='images/baseline/agriculture-countryside-crop-259280.jpg'></img></p>","null","","1550619684667","","","","","","",""
"null","","html-keyboard-response","471","2759348","0.0-8.0-0.0-8.8","25","<p><img class= 'stimulus' src='images/baseline/04010v.jpg'></img></p>","null","","1550619684768","8","","","","","",""
"null","","html-keyboard-response","472","2759448","0.0-8.0-0.0-9.8","25","<p><img class= 'stimulus' src='images/baseline/05139v.jpg'></img></p>","null","","1550619684869","","","","","","",""
"null","","html-keyboard-response","473","2759549","0.0-8.0-0.0-10.8","25","<p><img class= 'stimulus' src='images/baseline/05240v.jpg'></img></p>","null","","1550619684967","","","","","","",""
"null","","html-keyboard-response","474","2759647","0.0-8.0-0.0-11.8","25","<p><img class= 'stimulus' src='images/baseline/valley 2.jpg'></img></p>","null","","1550619685067","","","","","","",""
"null","","html-keyboard-response","475","2759747","0.0-8.0-0.0-12.8","25","<p><img class= 'stimulus' src='images/baseline/Freudenberg_sg_Switzerland.jpg'></img></p>","null","","1550619685168","12","","","","","",""
"null","","html-keyboard-response","476","2759848","0.0-8.0-0.0-13.8","25","<p><img class= 'stimulus' src='images/baseline/Cold 7.jpg'></img></p>","null","","1550619685269","","","","","","",""
"null","","html-keyboard-response","477","2759947","0.0-8.0-0.0-14.8","25","<p><img class= 'stimulus' src='images/baseline/03162v.jpg'></img></p>","null","","1550619685368","14","","","","","",""
"null","","html-keyboard-response","478","2760047","0.0-8.0-0.0-15.8","25","<p><img class= 'stimulus' src='images/baseline/Beach 2.jpg'></img></p>","null","","1550619685468","","","","","","",""
"null","","html-keyboard-response","479","2760148","0.0-8.0-0.0-16.8","25","<p><img class= 'stimulus' src='images/baseline/03212v.jpg'></img></p>","null","","1550619685568","","","","","","",""
"null","","html-keyboard-response","480","2760265","0.0-8.0-0.0-17.8","25","<p><img class= 'stimulus' src='images/baseline/Street 4.jpg'></img></p>","null","","1550619685667","","","","","","",""
"5111.100000009406","","html-button-response","481","2766382","0.0-8.0-0.0-18.8","25","<div class = ""response_question"">WAS THE IMAGE ROTATED...</div>","","5","","","4","2","neu","left","test","false"
"2309.799999988172","","html-button-response","482","2768693","0.0-8.0-0.0-0.9","25","","","0","","","","","","","",""
"null","","html-keyboard-response","483","2768764","0.0-8.0-0.0-1.9","25","<p><img class= 'stimulus' src='images/baseline/landscape8.jpg'></img></p>","null","","1550619694184","","","","","","",""
"null","","html-keyboard-response","484","2768865","0.0-8.0-0.0-2.9","25","<p><img class= 'stimulus' src='images/baseline/Skyscraper 1.jpg'></img></p>","null","","1550619694285","","","","","","",""
"null","","html-keyboard-response","485","2768965","0.0-8.0-0.0-3.9","25","<p><img class= 'stimulus' src='images/baseline/trees 23.jpg'></img></p>","null","","1550619694386","","","","","","",""
"null","","html-keyboard-response","486","2769064","0.0-8.0-0.0-4.9","25","<p><img class= 'stimulus' src='images/baseline/landscape34.jpg'></img></p>","null","","1550619694486","4","","","","","",""
"null","","html-keyboard-response","487","2769164","0.0-8.0-0.0-5.9","25","<p><img class= 'stimulus' src='images/baseline/04130v.jpg'></img></p>","null","","1550619694584","","","","","","",""
"null","","html-keyboard-response","488","2769264","0.0-8.0-0.0-6.9","25","<p><img class= 'stimulus' src='images/baseline/pexels-photo-1837621.jpeg'></img></p>","null","","1550619694685","6","","","","","",""
"null","","html-keyboard-response","489","2769365","0.0-8.0-0.0-7.9","25","<p><img class= 'stimulus' src='images/baseline/03201v.jpg'></img></p>","null","","1550619694786","","","","","","",""
"null","","html-keyboard-response","490","2769465","0.0-8.0-0.0-8.9","25","<p><img class= 'stimulus' src='images/baseline/lookout_tower.jpg'></img></p>","null","","1550619694885","8","","","","","",""
"null","","html-keyboard-response","491","2769564","0.0-8.0-0.0-9.9","25","<p><img class= 'stimulus' src='images/baseline/04196v.jpg'></img></p>","null","","1550619694986","","","","","","",""
"null","","html-keyboard-response","492","2769664","0.0-8.0-0.0-10.9","25","<p><img class= 'stimulus' src='images/baseline/04229v.jpg'></img></p>","null","","1550619695085","","","","","","",""
"null","","html-keyboard-response","493","2769764","0.0-8.0-0.0-11.9","25","<p><img class= 'stimulus' src='images/baseline/valley 1.jpg'></img></p>","null","","1550619695185","","","","","","",""
"null","","html-keyboard-response","494","2769865","0.0-8.0-0.0-12.9","25","<p><img class= 'stimulus left-rotate' src='images/target/petronas-towers-433081_1920.jpg'></img></p>","null","","1550619695285","12","","","","","",""
"null","","html-keyboard-response","495","2769964","0.0-8.0-0.0-13.9","25","<p><img class= 'stimulus' src='images/baseline/river 1.jpg'></img></p>","null","","1550619695386","","","","","","",""
"null","","html-keyboard-response","496","2770065","0.0-8.0-0.0-14.9","25","<p><img class= 'stimulus' src='images/baseline/Street 1.jpg'></img></p>","null","","1550619695486","14","","","","","",""
"null","","html-keyboard-response","497","2770165","0.0-8.0-0.0-15.9","25","<p><img class= 'stimulus' src='images/baseline/Sunset 5.jpg'></img></p>","null","","1550619695585","","","","","","",""
"null","","html-keyboard-response","498","2770265","0.0-8.0-0.0-16.9","25","<p><img class= 'stimulus' src='images/baseline/Lake 9.jpg'></img></p>","null","","1550619695684","","","","","","",""
"null","","html-keyboard-response","499","2770381","0.0-8.0-0.0-17.9","25","<p><img class= 'stimulus' src='images/baseline/scenic-mountain-landscape.jpg'></img></p>","null","","1550619695785","","","","","","",""
"1045.900000012014","","html-button-response","500","2772430","0.0-8.0-0.0-18.9","25","<div class = ""response_question"">WAS THE IMAGE ROTATED...</div>","","0","","","4","8","bas","left","test","true"
"2893.700000000652","","html-button-response","501","2775325","0.0-8.0-0.0-0.10","25","","","0","","","","","","","",""
"null","","html-keyboard-response","502","2775397","0.0-8.0-0.0-1.10","25","<p><img class= 'stimulus' src='images/baseline/hills 1.jpg'></img></p>","null","","1550619700818","","","","","","",""
"null","","html-keyboard-response","503","2775497","0.0-8.0-0.0-2.10","25","<p><img class= 'stimulus' src='images/baseline/05247v.jpg'></img></p>","null","","1550619700919","","","","","","",""
"null","","html-keyboard-response","504","2775597","0.0-8.0-0.0-3.10","25","<p><img class= 'stimulus' src='images/baseline/Linden,_paysage.jpg'></img></p>","null","","1550619701018","","","","","","",""
"null","","html-keyboard-response","505","2775697","0.0-8.0-0.0-4.10","25","<p><img class= 'stimulus' src='images/negative/Cockroach 3.jpg'></img></p>","null","","1550619701118","4","","","","","",""
"null","","html-keyboard-response","506","2775798","0.0-8.0-0.0-5.10","25","<p><img class= 'stimulus' src='images/baseline/04060v.jpg'></img></p>","null","","1550619701219","","","","","","",""
