"rt","responses","trial_type","trial_index","time_elapsed","internal_node_id","participant_id","stimulus","key_press","button_pressed","stim_onset","sequence_position","distractor_position","target_lag","distractor_type","target_orientation","phase","correct"
"19936.799999995856","{""Q0"":""07""}","survey-text","0","19941","0.0-0.0","07","","","","","","","","","","",""
"3975680.600000007","","html-keyboard-response","1","3995632","0.0-1.0","07","Welcome to the experiment.","67","","","","","","","","",""
"15141.000000002794","","html-button-response","2","4010778","0.0-2.0","07","<p>Several images will be presented sequentially.        Each image will only be on the screen for about 100 milliseconds.</p>        <p> One of the images may be rotated 90 degrees right or left.        Watch for this image and remember if it is rotated right or left.</p>               <p>Images of people and animals will appear, and sometimes they will be unpleasant.        These will never be the rotated target image.</p>","","0","","","","","","","",""
"2558.0000000046566","","html-button-response","3","4013337","0.0-3.0","07","<p><img class=""stimulus left-rotate"" src=""images/target/pexels-photo-602607.jpeg""></img></p><p>This is an example of an image rotated to the left.</p>","","0","","","","","","","",""
"2222.8999999933876","","html-button-response","4","4015561","0.0-4.0","07","<p><img class=""stimulus"" src=""images/target/tree1.jpg""></img></p><p>This is an example of an image rotated to the right.</p>","","0","","","","","","","",""
"13743.100000007078","","html-button-response","5","4029306","0.0-5.0","07","<p>We will now begin a short practice session.</p>         <p>A + symbol will appear in the middle of the screen. Please fix your gaze on the center of the +, and then click the mouse button to begin the image sequence.</p>         <p>Please avoid blinking or eye movements while the images are on the screen.</p>        <p>The image sequence will start relatively slow. After a few sequences, it will speed up.</p>","","0","","","","","","","",""
"4814.599999997765","","html-button-response","6","4034120","0.0-6.0-0.0","07","","","0","","","","","","","",""
"null","","html-keyboard-response","7","4034293","0.0-6.0-1.0","07","<p><img class= 'stimulus' src='images/baseline/river 1.jpg'></img></p>","null","","1549731201441","","","","","","",""
"null","","html-keyboard-response","8","4034494","0.0-6.0-2.0","07","<p><img class= 'stimulus' src='images/baseline/farmhouse2.jpg'></img></p>","null","","1549731201642","","","","","","",""
"null","","html-keyboard-response","9","4034694","0.0-6.0-3.0","07","<p><img class= 'stimulus' src='images/baseline/Street 3.jpg'></img></p>","null","","1549731201842","","","","","","",""
"null","","html-keyboard-response","10","4034894","0.0-6.0-4.0","07","<p><img class= 'stimulus' src='images/baseline/building4.jpg'></img></p>","null","","1549731202042","4","","","","","",""
"null","","html-keyboard-response","11","4035094","0.0-6.0-5.0","07","<p><img class= 'stimulus' src='images/baseline/field 4.jpg'></img></p>","null","","1549731202242","","","","","","",""
"null","","html-keyboard-response","12","4035294","0.0-6.0-6.0","07","<p><img class= 'stimulus' src='images/baseline/03112v.jpg'></img></p>","null","","1549731202443","6","","","","","",""
"null","","html-keyboard-response","13","4035494","0.0-6.0-7.0","07","<p><img class= 'stimulus' src='images/baseline/landscape16.jpg'></img></p>","null","","1549731202643","","","","","","",""
"null","","html-keyboard-response","14","4035694","0.0-6.0-8.0","07","<p><img class= 'stimulus' src='images/target/buildin5.jpg'></img></p>","null","","1549731202843","8","","","","","",""
"null","","html-keyboard-response","15","4035895","0.0-6.0-9.0","07","<p><img class= 'stimulus' src='images/baseline/Sunset 4.jpg'></img></p>","null","","1549731203042","","","","","","",""
"null","","html-keyboard-response","16","4036094","0.0-6.0-10.0","07","<p><img class= 'stimulus' src='images/baseline/road.jpg'></img></p>","null","","1549731203242","","","","","","",""
"null","","html-keyboard-response","17","4036293","0.0-6.0-11.0","07","<p><img class= 'stimulus' src='images/baseline/Kocherbaumwald-01.jpg'></img></p>","null","","1549731203443","","","","","","",""
"null","","html-keyboard-response","18","4036494","0.0-6.0-12.0","07","<p><img class= 'stimulus' src='images/baseline/03056v.jpg'></img></p>","null","","1549731203641","12","","","","","",""
"null","","html-keyboard-response","19","4036695","0.0-6.0-13.0","07","<p><img class= 'stimulus' src='images/baseline/autumn-in-red-rocks-park.jpg'></img></p>","null","","1549731203842","","","","","","",""
"null","","html-keyboard-response","20","4036894","0.0-6.0-14.0","07","<p><img class= 'stimulus' src='images/baseline/house1.jpg'></img></p>","null","","1549731204042","14","","","","","",""
"null","","html-keyboard-response","21","4037094","0.0-6.0-15.0","07","<p><img class= 'stimulus' src='images/baseline/04193v.jpg'></img></p>","null","","1549731204242","","","","","","",""
"null","","html-keyboard-response","22","4037294","0.0-6.0-16.0","07","<p><img class= 'stimulus' src='images/baseline/05139v.jpg'></img></p>","null","","1549731204445","","","","","","",""
"null","","html-keyboard-response","23","4037511","0.0-6.0-17.0","07","<p><img class= 'stimulus' src='images/baseline/Waterfall 1.jpg'></img></p>","null","","1549731204643","","","","","","",""
"5818.89999999851","","html-button-response","24","4044344","0.0-6.0-18.0","07","<div class = ""response_question"">WAS THE IMAGE ROTATED...</div>","","4","","","6","2","bas","right","practice","true"
"4957.600000008941","","html-button-response","25","4049304","0.0-6.0-0.1","07","","","0","","","","","","","",""
"null","","html-keyboard-response","26","4049477","0.0-6.0-1.1","07","<p><img class= 'stimulus' src='images/baseline/hiking-trail.jpg'></img></p>","null","","1549731216626","","","","","","",""
"null","","html-keyboard-response","27","4049678","0.0-6.0-2.1","07","<p><img class= 'stimulus' src='images/baseline/agriculture-cereal-clouds-175389.jpg'></img></p>","null","","1549731216826","","","","","","",""
"null","","html-keyboard-response","28","4049877","0.0-6.0-3.1","07","<p><img class= 'stimulus' src='images/baseline/04222v.jpg'></img></p>","null","","1549731217026","","","","","","",""
"null","","html-keyboard-response","29","4050077","0.0-6.0-4.1","07","<p><img class= 'stimulus' src='images/baseline/__08_-_ITALY_-_Forli_under_snow_-_winter_landscape_of_city_(christmas).jpg'></img></p>","null","","1549731217226","4","","","","","",""
"null","","html-keyboard-response","30","4050278","0.0-6.0-5.1","07","<p><img class= 'stimulus' src='images/baseline/pexels-photo-1261728.jpeg'></img></p>","null","","1549731217427","","","","","","",""
"null","","html-keyboard-response","31","4050478","0.0-6.0-6.1","07","<p><img class= 'stimulus' src='images/baseline/04040v.jpg'></img></p>","null","","1549731217626","6","","","","","",""
"null","","html-keyboard-response","32","4050678","0.0-6.0-7.1","07","<p><img class= 'stimulus' src='images/baseline/building6.jpg'></img></p>","null","","1549731217825","","","","","","",""
"null","","html-keyboard-response","33","4050877","0.0-6.0-8.1","07","<p><img class= 'stimulus' src='images/baseline/04031v.jpg'></img></p>","null","","1549731218026","8","","","","","",""
"null","","html-keyboard-response","34","4051077","0.0-6.0-9.1","07","<p><img class= 'stimulus' src='images/baseline/03217v.jpg'></img></p>","null","","1549731218226","","","","","","",""
"null","","html-keyboard-response","35","4051277","0.0-6.0-10.1","07","<p><img class= 'stimulus' src='images/baseline/04086v.jpg'></img></p>","null","","1549731218425","","","","","","",""
"null","","html-keyboard-response","36","4051479","0.0-6.0-11.1","07","<p><img class= 'stimulus' src='images/baseline/03201v.jpg'></img></p>","null","","1549731218625","","","","","","",""
"null","","html-keyboard-response","37","4051678","0.0-6.0-12.1","07","<p><img class= 'stimulus' src='images/baseline/05186v.jpg'></img></p>","null","","1549731218825","12","","","","","",""
"null","","html-keyboard-response","38","4051878","0.0-6.0-13.1","07","<p><img class= 'stimulus' src='images/baseline/05252v.jpg'></img></p>","null","","1549731219025","","","","","","",""
"null","","html-keyboard-response","39","4052077","0.0-6.0-14.1","07","<p><img class= 'stimulus left-rotate' src='images/target/lookout_tower.jpg'></img></p>","null","","1549731219226","14","","","","","",""
"null","","html-keyboard-response","40","4052277","0.0-6.0-15.1","07","<p><img class= 'stimulus' src='images/baseline/04300v.jpg'></img></p>","null","","1549731219427","","","","","","",""
"null","","html-keyboard-response","41","4052477","0.0-6.0-16.1","07","<p><img class= 'stimulus' src='images/baseline/landscape6.jpg'></img></p>","null","","1549731219626","","","","","","",""
"null","","html-keyboard-response","42","4052694","0.0-6.0-17.1","07","<p><img class= 'stimulus' src='images/baseline/red-rocks-park.jpg'></img></p>","null","","1549731219826","","","","","","",""
"1780.0999999889173","","html-button-response","43","4055480","0.0-6.0-18.1","07","<div class = ""response_question"">WAS THE IMAGE ROTATED...</div>","","0","","","6","8","bas","left","practice","true"
"2566.3999999961816","","html-button-response","44","4058047","0.0-6.0-0.2","07","","","0","","","","","","","",""
"null","","html-keyboard-response","45","4058227","0.0-6.0-1.2","07","<p><img class= 'stimulus' src='images/baseline/04063v.jpg'></img></p>","null","","1549731225376","","","","","","",""
"null","","html-keyboard-response","46","4058427","0.0-6.0-2.2","07","<p><img class= 'stimulus' src='images/baseline/Lake 4.jpg'></img></p>","null","","1549731225575","","","","","","",""
"null","","html-keyboard-response","47","4058627","0.0-6.0-3.2","07","<p><img class= 'stimulus' src='images/baseline/Linden,_paysage.jpg'></img></p>","null","","1549731225776","","","","","","",""
"null","","html-keyboard-response","48","4058827","0.0-6.0-4.2","07","<p><img class= 'stimulus' src='images/baseline/sun-through-winter-tree-branches1.jpg'></img></p>","null","","1549731225975","4","","","","","",""
"null","","html-keyboard-response","49","4059027","0.0-6.0-5.2","07","<p><img class= 'stimulus' src='images/baseline/landscape2.jpg'></img></p>","null","","1549731226176","","","","","","",""
"null","","html-keyboard-response","50","4059227","0.0-6.0-6.2","07","<p><img class= 'stimulus' src='images/baseline/Lake 15.jpg'></img></p>","null","","1549731226376","6","","","","","",""
"null","","html-keyboard-response","51","4059428","0.0-6.0-7.2","07","<p><img class= 'stimulus' src='images/baseline/Bahia_Onelli_Parque_Nacional_Los_Glaciares_Patagonia_Argentina_Luca_Galuzzi_2005.jpg'></img></p>","null","","1549731226576","","","","","","",""
"null","","html-keyboard-response","52","4059627","0.0-6.0-8.2","07","<p><img class= 'stimulus' src='images/baseline/landscape8.jpg'></img></p>","null","","1549731226776","8","","","","","",""
"null","","html-keyboard-response","53","4059829","0.0-6.0-9.2","07","<p><img class= 'stimulus' src='images/baseline/04064v.jpg'></img></p>","null","","1549731226976","","","","","","",""
"null","","html-keyboard-response","54","4060029","0.0-6.0-10.2","07","<p><img class= 'stimulus' src='images/baseline/city-silhouette-at-sunset-871291580819Esw.jpg'></img></p>","null","","1549731227176","","","","","","",""
"null","","html-keyboard-response","55","4060228","0.0-6.0-11.2","07","<p><img class= 'stimulus' src='images/baseline/05247v.jpg'></img></p>","null","","1549731227377","","","","","","",""
"null","","html-keyboard-response","56","4060428","0.0-6.0-12.2","07","<p><img class= 'stimulus' src='images/target/tree-197536_640.jpg'></img></p>","null","","1549731227576","12","","","","","",""
"null","","html-keyboard-response","57","4060627","0.0-6.0-13.2","07","<p><img class= 'stimulus' src='images/baseline/Path 1.jpg'></img></p>","null","","1549731227777","","","","","","",""
"null","","html-keyboard-response","58","4060828","0.0-6.0-14.2","07","<p><img class= 'stimulus' src='images/baseline/pexels-photo-414491.jpeg'></img></p>","null","","1549731227977","14","","","","","",""
"null","","html-keyboard-response","59","4061028","0.0-6.0-15.2","07","<p><img class= 'stimulus' src='images/baseline/agriculture-bright-clouds-440731.jpg'></img></p>","null","","1549731228179","","","","","","",""
"null","","html-keyboard-response","60","4061228","0.0-6.0-16.2","07","<p><img class= 'stimulus' src='images/baseline/02982v.jpg'></img></p>","null","","1549731228376","","","","","","",""
"null","","html-keyboard-response","61","4061445","0.0-6.0-17.2","07","<p><img class= 'stimulus' src='images/baseline/Lake 3.jpg'></img></p>","null","","1549731228576","","","","","","",""
"1565.4000000068918","","html-button-response","62","4064016","0.0-6.0-18.2","07","<div class = ""response_question"">WAS THE IMAGE ROTATED...</div>","","3","","","4","8","bas","right","practice","true"
"2102.4999999934807","","html-button-response","63","4066119","0.0-6.0-0.3","07","","","0","","","","","","","",""
"null","","html-keyboard-response","64","4066295","0.0-6.0-1.3","07","<p><img class= 'stimulus' src='images/baseline/Skyscraper 2.jpg'></img></p>","null","","1549731233444","","","","","","",""
"null","","html-keyboard-response","65","4066494","0.0-6.0-2.3","07","<p><img class= 'stimulus' src='images/baseline/05264v.jpg'></img></p>","null","","1549731233643","","","","","","",""
"null","","html-keyboard-response","66","4066695","0.0-6.0-3.3","07","<p><img class= 'stimulus' src='images/baseline/landscape17.jpg'></img></p>","null","","1549731233844","","","","","","",""
"null","","html-keyboard-response","67","4066895","0.0-6.0-4.3","07","<p><img class= 'stimulus' src='images/baseline/architecture-1314416_1920.jpg'></img></p>","null","","1549731234045","4","","","","","",""
"null","","html-keyboard-response","68","4067096","0.0-6.0-5.3","07","<p><img class= 'stimulus' src='images/baseline/05240v.jpg'></img></p>","null","","1549731234244","","","","","","",""
"null","","html-keyboard-response","69","4067296","0.0-6.0-6.3","07","<p><img class= 'stimulus' src='images/baseline/Aletschgletscher-Eggishorn.jpg'></img></p>","null","","1549731234445","6","","","","","",""
"null","","html-keyboard-response","70","4067496","0.0-6.0-7.3","07","<p><img class= 'stimulus' src='images/baseline/farmhouse11.jpg'></img></p>","null","","1549731234644","","","","","","",""
"null","","html-keyboard-response","71","4067696","0.0-6.0-8.3","07","<p><img class= 'stimulus left-rotate' src='images/target/tree-in-desert-landscape.jpg'></img></p>","null","","1549731234844","8","","","","","",""
"null","","html-keyboard-response","72","4067898","0.0-6.0-9.3","07","<p><img class= 'stimulus' src='images/baseline/03148v.jpg'></img></p>","null","","1549731235044","","","","","","",""
"null","","html-keyboard-response","73","4068096","0.0-6.0-10.3","07","<p><img class= 'stimulus' src='images/baseline/03204v.jpg'></img></p>","null","","1549731235245","","","","","","",""
"null","","html-keyboard-response","74","4068298","0.0-6.0-11.3","07","<p><img class= 'stimulus' src='images/baseline/05203v.jpg'></img></p>","null","","1549731235445","","","","","","",""
"null","","html-keyboard-response","75","4068497","0.0-6.0-12.3","07","<p><img class= 'stimulus' src='images/baseline/building8.jpg'></img></p>","null","","1549731235646","12","","","","","",""
"null","","html-keyboard-response","76","4068697","0.0-6.0-13.3","07","<p><img class= 'stimulus' src='images/baseline/hills 3.jpg'></img></p>","null","","1549731235846","","","","","","",""
"null","","html-keyboard-response","77","4068897","0.0-6.0-14.3","07","<p><img class= 'stimulus' src='images/baseline/pexels-photo-280222.jpeg'></img></p>","null","","1549731236046","14","","","","","",""
"null","","html-keyboard-response","78","4069097","0.0-6.0-15.3","07","<p><img class= 'stimulus' src='images/baseline/town-square-in-wroclaw-1539098440MZy.jpg'></img></p>","null","","1549731236246","","","","","","",""
"null","","html-keyboard-response","79","4069297","0.0-6.0-16.3","07","<p><img class= 'stimulus' src='images/baseline/sunset-over-the-lake.jpg'></img></p>","null","","1549731236445","","","","","","",""
"null","","html-keyboard-response","80","4069513","0.0-6.0-17.3","07","<p><img class= 'stimulus' src='images/baseline/Desert_View_Indian_Wells.jpg'></img></p>","null","","1549731236646","","","","","","",""
"5216.800000009593","","html-button-response","81","4075736","0.0-6.0-18.3","07","<div class = ""response_question"">WAS THE IMAGE ROTATED...</div>","","2","","","6","2","bas","left","practice","false"
"3094.100000001956","","html-button-response","82","4078831","0.0-6.0-0.4","07","","","0","","","","","","","",""
"null","","html-keyboard-response","83","4078962","0.0-6.0-1.4","07","<p><img class= 'stimulus' src='images/baseline/Sunset 3.jpg'></img></p>","null","","1549731246162","","","","","","",""
"null","","html-keyboard-response","84","4079113","0.0-6.0-2.4","07","<p><img class= 'stimulus' src='images/baseline/03220v.jpg'></img></p>","null","","1549731246311","","","","","","",""
"null","","html-keyboard-response","85","4079262","0.0-6.0-3.4","07","<p><img class= 'stimulus' src='images/baseline/03075v.jpg'></img></p>","null","","1549731246461","","","","","","",""
"null","","html-keyboard-response","86","4079412","0.0-6.0-4.4","07","<p><img class= 'stimulus' src='images/baseline/geese-flying-over-lake-at-dusk.jpg'></img></p>","null","","1549731246611","4","","","","","",""
"null","","html-keyboard-response","87","4079563","0.0-6.0-5.4","07","<p><img class= 'stimulus' src='images/baseline/pexels-photo-541101.jpeg'></img></p>","null","","1549731246760","","","","","","",""
"null","","html-keyboard-response","88","4079712","0.0-6.0-6.4","07","<p><img class= 'stimulus' src='images/target/fishhouse.jpg'></img></p>","null","","1549731246911","6","","","","","",""
"null","","html-keyboard-response","89","4079862","0.0-6.0-7.4","07","<p><img class= 'stimulus' src='images/baseline/cyrillic.jpg'></img></p>","null","","1549731247060","","","","","","",""
"null","","html-keyboard-response","90","4080011","0.0-6.0-8.4","07","<p><img class= 'stimulus' src='images/baseline/Skijump 1.jpg'></img></p>","null","","1549731247212","8","","","","","",""
"null","","html-keyboard-response","91","4080164","0.0-6.0-9.4","07","<p><img class= 'stimulus' src='images/baseline/05189v.jpg'></img></p>","null","","1549731247361","","","","","","",""
"null","","html-keyboard-response","92","4080313","0.0-6.0-10.4","07","<p><img class= 'stimulus' src='images/baseline/house2.jpg'></img></p>","null","","1549731247511","","","","","","",""
"null","","html-keyboard-response","93","4080463","0.0-6.0-11.4","07","<p><img class= 'stimulus' src='images/baseline/05280v.jpg'></img></p>","null","","1549731247662","","","","","","",""
"null","","html-keyboard-response","94","4080612","0.0-6.0-12.4","07","<p><img class= 'stimulus' src='images/baseline/Sailing 3.jpg'></img></p>","null","","1549731247812","12","","","","","",""
"null","","html-keyboard-response","95","4080762","0.0-6.0-13.4","07","<p><img class= 'stimulus' src='images/baseline/02945v.jpg'></img></p>","null","","1549731247961","","","","","","",""
"null","","html-keyboard-response","96","4080912","0.0-6.0-14.4","07","<p><img class= 'stimulus' src='images/baseline/landscape12.jpg'></img></p>","null","","1549731248110","14","","","","","",""
"null","","html-keyboard-response","97","4081061","0.0-6.0-15.4","07","<p><img class= 'stimulus' src='images/baseline/05292v.jpg'></img></p>","null","","1549731248260","","","","","","",""
"null","","html-keyboard-response","98","4081211","0.0-6.0-16.4","07","<p><img class= 'stimulus' src='images/baseline/lake 2.jpg'></img></p>","null","","1549731248411","","","","","","",""
"null","","html-keyboard-response","99","4081378","0.0-6.0-17.4","07","<p><img class= 'stimulus' src='images/baseline/dirt-road-or-trail-through-park.jpg'></img></p>","null","","1549731248561","","","","","","",""
"1272.5000000065193","","html-button-response","100","4083656","0.0-6.0-18.4","07","<div class = ""response_question"">WAS THE IMAGE ROTATED...</div>","","3","","","4","2","bas","right","practice","true"
"1598.1999999932013","","html-button-response","101","4085255","0.0-6.0-0.5","07","","","0","","","","","","","",""
"null","","html-keyboard-response","102","4085377","0.0-6.0-1.5","07","<p><img class= 'stimulus' src='images/baseline/pexels-photo-808465.jpeg'></img></p>","null","","1549731252577","","","","","","",""
"null","","html-keyboard-response","103","4085528","0.0-6.0-2.5","07","<p><img class= 'stimulus' src='images/baseline/building9.jpg'></img></p>","null","","1549731252727","","","","","","",""
"null","","html-keyboard-response","104","4085678","0.0-6.0-3.5","07","<p><img class= 'stimulus' src='images/baseline/Street 4.jpg'></img></p>","null","","1549731252876","","","","","","",""
"null","","html-keyboard-response","105","4085828","0.0-6.0-4.5","07","<p><img class= 'stimulus' src='images/baseline/house7.jpg'></img></p>","null","","1549731253026","4","","","","","",""
"null","","html-keyboard-response","106","4085979","0.0-6.0-5.5","07","<p><img class= 'stimulus' src='images/baseline/05279v.jpg'></img></p>","null","","1549731253176","","","","","","",""
"null","","html-keyboard-response","107","4086127","0.0-6.0-6.5","07","<p><img class= 'stimulus left-rotate' src='images/target/tree_1.jpg'></img></p>","null","","1549731253327","6","","","","","",""
"null","","html-keyboard-response","108","4086278","0.0-6.0-7.5","07","<p><img class= 'stimulus' src='images/baseline/road 1(1).jpg'></img></p>","null","","1549731253476","","","","","","",""
"null","","html-keyboard-response","109","4086427","0.0-6.0-8.5","07","<p><img class= 'stimulus' src='images/baseline/02988v.jpg'></img></p>","null","","1549731253626","8","","","","","",""
"null","","html-keyboard-response","110","4086578","0.0-6.0-9.5","07","<p><img class= 'stimulus' src='images/baseline/Sunset 5.jpg'></img></p>","null","","1549731253778","","","","","","",""
"null","","html-keyboard-response","111","4086728","0.0-6.0-10.5","07","<p><img class= 'stimulus' src='images/baseline/Cold 7.jpg'></img></p>","null","","1549731253927","","","","","","",""
"null","","html-keyboard-response","112","4086877","0.0-6.0-11.5","07","<p><img class= 'stimulus' src='images/baseline/pexels-photo-568236.jpeg'></img></p>","null","","1549731254077","","","","","","",""
"null","","html-keyboard-response","113","4087027","0.0-6.0-12.5","07","<p><img class= 'stimulus' src='images/baseline/house11.jpg'></img></p>","null","","1549731254226","12","","","","","",""
"null","","html-keyboard-response","114","4087178","0.0-6.0-13.5","07","<p><img class= 'stimulus' src='images/baseline/02971v.jpg'></img></p>","null","","1549731254377","","","","","","",""
"null","","html-keyboard-response","115","4087328","0.0-6.0-14.5","07","<p><img class= 'stimulus' src='images/baseline/Grass 6.jpg'></img></p>","null","","1549731254525","14","","","","","",""
"null","","html-keyboard-response","116","4087478","0.0-6.0-15.5","07","<p><img class= 'stimulus' src='images/baseline/building16.jpg'></img></p>","null","","1549731254675","","","","","","",""
"null","","html-keyboard-response","117","4087628","0.0-6.0-16.5","07","<p><img class= 'stimulus' src='images/baseline/pexels-photo-1054289.jpeg'></img></p>","null","","1549731254826","","","","","","",""
"null","","html-keyboard-response","118","4087794","0.0-6.0-17.5","07","<p><img class= 'stimulus' src='images/baseline/landscape35.jpg'></img></p>","null","","1549731254975","","","","","","",""
"1261.1000000033528","","html-button-response","119","4090072","0.0-6.0-18.5","07","<div class = ""response_question"">WAS THE IMAGE ROTATED...</div>","","0","","","4","2","bas","left","practice","true"
"2846.4999999995343","","html-button-response","120","4092920","0.0-6.0-0.6","07","","","0","","","","","","","",""
"null","","html-keyboard-response","121","4093044","0.0-6.0-1.6","07","<p><img class= 'stimulus' src='images/baseline/lake3.jpg'></img></p>","null","","1549731260243","","","","","","",""
"null","","html-keyboard-response","122","4093194","0.0-6.0-2.6","07","<p><img class= 'stimulus' src='images/baseline/landscape23.jpg'></img></p>","null","","1549731260392","","","","","","",""
"null","","html-keyboard-response","123","4093344","0.0-6.0-3.6","07","<p><img class= 'stimulus' src='images/baseline/03066v.jpg'></img></p>","null","","1549731260542","","","","","","",""
"null","","html-keyboard-response","124","4093494","0.0-6.0-4.6","07","<p><img class= 'stimulus' src='images/baseline/snowy tree.jpg'></img></p>","null","","1549731260692","4","","","","","",""
"null","","html-keyboard-response","125","4093644","0.0-6.0-5.6","07","<p><img class= 'stimulus' src='images/baseline/03212v.jpg'></img></p>","null","","1549731260842","","","","","","",""
"null","","html-keyboard-response","126","4093793","0.0-6.0-6.6","07","<p><img class= 'stimulus' src='images/baseline/04229v.jpg'></img></p>","null","","1549731260994","6","","","","","",""
"null","","html-keyboard-response","127","4093946","0.0-6.0-7.6","07","<p><img class= 'stimulus' src='images/baseline/agriculture-countryside-crop-259280.jpg'></img></p>","null","","1549731261142","","","","","","",""
"null","","html-keyboard-response","128","4094096","0.0-6.0-8.6","07","<p><img class= 'stimulus' src='images/baseline/architecture-956332_1280.jpg'></img></p>","null","","1549731261295","8","","","","","",""
"null","","html-keyboard-response","129","4094246","0.0-6.0-9.6","07","<p><img class= 'stimulus' src='images/baseline/building12.jpg'></img></p>","null","","1549731261445","","","","","","",""
"null","","html-keyboard-response","130","4094396","0.0-6.0-10.6","07","<p><img class= 'stimulus' src='images/baseline/04117v.jpg'></img></p>","null","","1549731261594","","","","","","",""
"null","","html-keyboard-response","131","4094547","0.0-6.0-11.6","07","<p><img class= 'stimulus' src='images/baseline/house3.jpg'></img></p>","null","","1549731261745","","","","","","",""
"null","","html-keyboard-response","132","4094696","0.0-6.0-12.6","07","<p><img class= 'stimulus' src='images/baseline/landscape14.jpg'></img></p>","null","","1549731261895","12","","","","","",""
"null","","html-keyboard-response","133","4094847","0.0-6.0-13.6","07","<p><img class= 'stimulus' src='images/baseline/red rocks from afar.jpg'></img></p>","null","","1549731262045","","","","","","",""
"null","","html-keyboard-response","134","4094996","0.0-6.0-14.6","07","<p><img class= 'stimulus' src='images/target/dubai-1113262_640.jpg'></img></p>","null","","1549731262195","14","","","","","",""
"null","","html-keyboard-response","135","4095146","0.0-6.0-15.6","07","<p><img class= 'stimulus' src='images/baseline/02962v.jpg'></img></p>","null","","1549731262345","","","","","","",""
"null","","html-keyboard-response","136","4095297","0.0-6.0-16.6","07","<p><img class= 'stimulus' src='images/baseline/landscape40.jpg'></img></p>","null","","1549731262495","","","","","","",""
"null","","html-keyboard-response","137","4095463","0.0-6.0-17.6","07","<p><img class= 'stimulus' src='images/baseline/05179v.jpg'></img></p>","null","","1549731262645","","","","","","",""
"1196.5000000051223","","html-button-response","138","4097667","0.0-6.0-18.6","07","<div class = ""response_question"">WAS THE IMAGE ROTATED...</div>","","3","","","6","8","bas","right","practice","true"
"1566.3000000058673","","html-button-response","139","4099234","0.0-6.0-0.7","07","","","0","","","","","","","",""
"null","","html-keyboard-response","140","4099363","0.0-6.0-1.7","07","<p><img class= 'stimulus' src='images/baseline/pexels-photo-1287089.jpeg'></img></p>","null","","1549731266562","","","","","","",""
"null","","html-keyboard-response","141","4099514","0.0-6.0-2.7","07","<p><img class= 'stimulus' src='images/baseline/house8.jpg'></img></p>","null","","1549731266711","","","","","","",""
"null","","html-keyboard-response","142","4099663","0.0-6.0-3.7","07","<p><img class= 'stimulus' src='images/baseline/Sidewalk 4.jpg'></img></p>","null","","1549731266862","","","","","","",""
"null","","html-keyboard-response","143","4099813","0.0-6.0-4.7","07","<p><img class= 'stimulus' src='images/baseline/hills 1.jpg'></img></p>","null","","1549731267013","4","","","","","",""
"null","","html-keyboard-response","144","4099963","0.0-6.0-5.7","07","<p><img class= 'stimulus' src='images/baseline/pexels-photo-221125.jpeg'></img></p>","null","","1549731267163","","","","","","",""
"null","","html-keyboard-response","145","4100113","0.0-6.0-6.7","07","<p><img class= 'stimulus' src='images/baseline/sunny-landscape-with-dry-brush-and-mountain-background.jpg'></img></p>","null","","1549731267311","6","","","","","",""
"null","","html-keyboard-response","146","4100264","0.0-6.0-7.7","07","<p><img class= 'stimulus' src='images/baseline/Sunset 6.jpg'></img></p>","null","","1549731267462","","","","","","",""
"null","","html-keyboard-response","147","4100414","0.0-6.0-8.7","07","<p><img class= 'stimulus' src='images/baseline/cranes 1.jpg'></img></p>","null","","1549731267611","8","","","","","",""
"null","","html-keyboard-response","148","4100564","0.0-6.0-9.7","07","<p><img class= 'stimulus' src='images/baseline/church-silhouette-8712964986014Kb.jpg'></img></p>","null","","1549731267762","","","","","","",""
"null","","html-keyboard-response","149","4100713","0.0-6.0-10.7","07","<p><img class= 'stimulus' src='images/baseline/scenic-mountain-landscape.jpg'></img></p>","null","","1549731267911","","","","","","",""
"null","","html-keyboard-response","150","4100863","0.0-6.0-11.7","07","<p><img class= 'stimulus' src='images/baseline/farmhouse1.jpg'></img></p>","null","","1549731268062","","","","","","",""
"null","","html-keyboard-response","151","4101013","0.0-6.0-12.7","07","<p><img class= 'stimulus left-rotate' src='images/target/pexels-photo-1102846.jpeg'></img></p>","null","","1549731268213","12","","","","","",""
"null","","html-keyboard-response","152","4101163","0.0-6.0-13.7","07","<p><img class= 'stimulus' src='images/baseline/04021v.jpg'></img></p>","null","","1549731268362","","","","","","",""
"null","","html-keyboard-response","153","4101314","0.0-6.0-14.7","07","<p><img class= 'stimulus' src='images/baseline/vintage-art-deco-storefront.jpg'></img></p>","null","","1549731268511","14","","","","","",""
"null","","html-keyboard-response","154","4101464","0.0-6.0-15.7","07","<p><img class= 'stimulus' src='images/baseline/04158v.jpg'></img></p>","null","","1549731268662","","","","","","",""
"null","","html-keyboard-response","155","4101613","0.0-6.0-16.7","07","<p><img class= 'stimulus' src='images/baseline/landscape33.jpg'></img></p>","null","","1549731268811","","","","","","",""
"null","","html-keyboard-response","156","4101779","0.0-6.0-17.7","07","<p><img class= 'stimulus' src='images/baseline/trees 23.jpg'></img></p>","null","","1549731268961","","","","","","",""
"1258.3000000012107","","html-button-response","157","4104042","0.0-6.0-18.7","07","<div class = ""response_question"">WAS THE IMAGE ROTATED...</div>","","0","","","4","8","bas","left","practice","true"
"1614.3000000012107","","html-button-response","158","4105659","0.0-6.0-0.8","07","","","0","","","","","","","",""
"null","","html-keyboard-response","159","4105731","0.0-6.0-1.8","07","<p><img class= 'stimulus' src='images/baseline/Freudenberg_sg_Switzerland.jpg'></img></p>","null","","1549731272978","","","","","","",""
"null","","html-keyboard-response","160","4105830","0.0-6.0-2.8","07","<p><img class= 'stimulus' src='images/baseline/Skyscraper 1.jpg'></img></p>","null","","1549731273079","","","","","","",""
"null","","html-keyboard-response","161","4105930","0.0-6.0-3.8","07","<p><img class= 'stimulus' src='images/baseline/architecture_modern_architecture_852928.jpg'></img></p>","null","","1549731273178","","","","","","",""
"null","","html-keyboard-response","162","4106031","0.0-6.0-4.8","07","<p><img class= 'stimulus' src='images/baseline/landscape11.jpg'></img></p>","null","","1549731273278","4","","","","","",""
"null","","html-keyboard-response","163","4106129","0.0-6.0-5.8","07","<p><img class= 'stimulus' src='images/baseline/pexels-photo-351264.jpeg'></img></p>","null","","1549731273378","","","","","","",""
"null","","html-keyboard-response","164","4106230","0.0-6.0-6.8","07","<p><img class= 'stimulus' src='images/baseline/farmhouse8.jpg'></img></p>","null","","1549731273478","6","","","","","",""
"null","","html-keyboard-response","165","4106330","0.0-6.0-7.8","07","<p><img class= 'stimulus' src='images/baseline/farmhouse7.jpg'></img></p>","null","","1549731273578","","","","","","",""
"null","","html-keyboard-response","166","4106430","0.0-6.0-8.8","07","<p><img class= 'stimulus' src='images/baseline/04085v.jpg'></img></p>","null","","1549731273678","8","","","","","",""
"null","","html-keyboard-response","167","4106530","0.0-6.0-9.8","07","<p><img class= 'stimulus' src='images/baseline/landscape7.jpg'></img></p>","null","","1549731273778","","","","","","",""
"null","","html-keyboard-response","168","4106630","0.0-6.0-10.8","07","<p><img class= 'stimulus' src='images/baseline/02947v.jpg'></img></p>","null","","1549731273879","","","","","","",""
"null","","html-keyboard-response","169","4106729","0.0-6.0-11.8","07","<p><img class= 'stimulus' src='images/baseline/farmhouse4.jpg'></img></p>","null","","1549731273978","","","","","","",""
"null","","html-keyboard-response","170","4106831","0.0-6.0-12.8","07","<p><img class= 'stimulus' src='images/target/church-2306128_640.jpg'></img></p>","null","","1549731274078","12","","","","","",""
"null","","html-keyboard-response","171","4106930","0.0-6.0-13.8","07","<p><img class= 'stimulus' src='images/baseline/03114v.jpg'></img></p>","null","","1549731274179","","","","","","",""
"null","","html-keyboard-response","172","4107031","0.0-6.0-14.8","07","<p><img class= 'stimulus' src='images/baseline/Lake 8.jpg'></img></p>","null","","1549731274279","14","","","","","",""
"null","","html-keyboard-response","173","4107131","0.0-6.0-15.8","07","<p><img class= 'stimulus' src='images/baseline/pexels-photo-1048039.jpeg'></img></p>","null","","1549731274378","","","","","","",""
"null","","html-keyboard-response","174","4107230","0.0-6.0-16.8","07","<p><img class= 'stimulus' src='images/baseline/Sky 1.jpg'></img></p>","null","","1549731274478","","","","","","",""
"null","","html-keyboard-response","175","4107347","0.0-6.0-17.8","07","<p><img class= 'stimulus' src='images/baseline/Street 5.jpg'></img></p>","null","","1549731274578","","","","","","",""
"985.4999999953434","","html-button-response","176","4109339","0.0-6.0-18.8","07","<div class = ""response_question"">WAS THE IMAGE ROTATED...</div>","","3","","","4","8","bas","right","practice","true"
"1470.199999996461","","html-button-response","177","4110810","0.0-6.0-0.9","07","","","0","","","","","","","",""
"null","","html-keyboard-response","178","4110897","0.0-6.0-1.9","07","<p><img class= 'stimulus' src='images/baseline/Beach 2.jpg'></img></p>","null","","1549731278144","","","","","","",""
"null","","html-keyboard-response","179","4110997","0.0-6.0-2.9","07","<p><img class= 'stimulus' src='images/baseline/05161v.jpg'></img></p>","null","","1549731278245","","","","","","",""
"null","","html-keyboard-response","180","4111096","0.0-6.0-3.9","07","<p><img class= 'stimulus' src='images/baseline/Road 1.jpg'></img></p>","null","","1549731278344","","","","","","",""
"null","","html-keyboard-response","181","4111198","0.0-6.0-4.9","07","<p><img class= 'stimulus' src='images/baseline/landscape36.jpg'></img></p>","null","","1549731278445","4","","","","","",""
"null","","html-keyboard-response","182","4111297","0.0-6.0-5.9","07","<p><img class= 'stimulus' src='images/baseline/landscape4.jpg'></img></p>","null","","1549731278546","","","","","","",""
"null","","html-keyboard-response","183","4111398","0.0-6.0-6.9","07","<p><img class= 'stimulus' src='images/baseline/Happy pose 3.jpg'></img></p>","null","","1549731278647","6","","","","","",""
"null","","html-keyboard-response","184","4111497","0.0-6.0-7.9","07","<p><img class= 'stimulus' src='images/baseline/landscape37.jpg'></img></p>","null","","1549731278745","","","","","","",""
"null","","html-keyboard-response","185","4111597","0.0-6.0-8.9","07","<p><img class= 'stimulus' src='images/baseline/chicago-skyline-at-night-1476869511p8U.jpg'></img></p>","null","","1549731278845","8","","","","","",""
"null","","html-keyboard-response","186","4111697","0.0-6.0-9.9","07","<p><img class= 'stimulus' src='images/baseline/field 3.jpg'></img></p>","null","","1549731278945","","","","","","",""
"null","","html-keyboard-response","187","4111796","0.0-6.0-10.9","07","<p><img class= 'stimulus' src='images/baseline/bird-flying-at-sunset.jpg'></img></p>","null","","1549731279046","","","","","","",""
"null","","html-keyboard-response","188","4111896","0.0-6.0-11.9","07","<p><img class= 'stimulus' src='images/baseline/Bridge 1.jpg'></img></p>","null","","1549731279145","","","","","","",""
"null","","html-keyboard-response","189","4111997","0.0-6.0-12.9","07","<p><img class= 'stimulus left-rotate' src='images/target/pexels-photo-210683.jpeg'></img></p>","null","","1549731279244","12","","","","","",""
"null","","html-keyboard-response","190","4112097","0.0-6.0-13.9","07","<p><img class= 'stimulus' src='images/baseline/seoul-410266_1920.jpg'></img></p>","null","","1549731279345","","","","","","",""
"null","","html-keyboard-response","191","4112196","0.0-6.0-14.9","07","<p><img class= 'stimulus' src='images/baseline/04062v.jpg'></img></p>","null","","1549731279445","14","","","","","",""
"null","","html-keyboard-response","192","4112298","0.0-6.0-15.9","07","<p><img class= 'stimulus' src='images/baseline/landscape3.jpg'></img></p>","null","","1549731279544","","","","","","",""
"null","","html-keyboard-response","193","4112397","0.0-6.0-16.9","07","<p><img class= 'stimulus' src='images/baseline/Street 2.jpg'></img></p>","null","","1549731279645","","","","","","",""
"null","","html-keyboard-response","194","4112513","0.0-6.0-17.9","07","<p><img class= 'stimulus' src='images/baseline/valley 2.jpg'></img></p>","null","","1549731279745","","","","","","",""
"884.7999999998137","","html-button-response","195","4114403","0.0-6.0-18.9","07","<div class = ""response_question"">WAS THE IMAGE ROTATED...</div>","","1","","","4","8","bas","left","practice","true"
"1534.299999999348","","html-button-response","196","4115938","0.0-6.0-0.10","07","","","0","","","","","","","",""
"null","","html-keyboard-response","197","4116014","0.0-6.0-1.10","07","<p><img class= 'stimulus' src='images/baseline/Lake 7.jpg'></img></p>","null","","1549731283262","","","","","","",""
"null","","html-keyboard-response","198","4116113","0.0-6.0-2.10","07","<p><img class= 'stimulus' src='images/baseline/kokkari-1523011968Xfr.jpg'></img></p>","null","","1549731283362","","","","","","",""
"null","","html-keyboard-response","199","4116214","0.0-6.0-3.10","07","<p><img class= 'stimulus' src='images/baseline/Nature 1.jpg'></img></p>","null","","1549731283463","","","","","","",""
"null","","html-keyboard-response","200","4116314","0.0-6.0-4.10","07","<p><img class= 'stimulus' src='images/baseline/autumn-landscape-with-lake-fall-trees-mountains.jpg'></img></p>","null","","1549731283562","4","","","","","",""
"null","","html-keyboard-response","201","4116414","0.0-6.0-5.10","07","<p><img class= 'stimulus' src='images/baseline/04179v.jpg'></img></p>","null","","1549731283661","","","","","","",""
"null","","html-keyboard-response","202","4116513","0.0-6.0-6.10","07","<p><img class= 'stimulus' src='images/target/tree spring.jpeg'></img></p>","null","","1549731283763","6","","","","","",""
"null","","html-keyboard-response","203","4116614","0.0-6.0-7.10","07","<p><img class= 'stimulus' src='images/baseline/pexels-photo-750108.jpeg'></img></p>","null","","1549731283863","","","","","","",""
"null","","html-keyboard-response","204","4116713","0.0-6.0-8.10","07","<p><img class= 'stimulus' src='images/baseline/04130v.jpg'></img></p>","null","","1549731283962","8","","","","","",""
"null","","html-keyboard-response","205","4116813","0.0-6.0-9.10","07","<p><img class= 'stimulus' src='images/baseline/building_at_national_conservation.jpg'></img></p>","null","","1549731284062","","","","","","",""
"null","","html-keyboard-response","206","4116914","0.0-6.0-10.10","07","<p><img class= 'stimulus' src='images/baseline/Lake 13.jpg'></img></p>","null","","1549731284162","","","","","","",""
"null","","html-keyboard-response","207","4117014","0.0-6.0-11.10","07","<p><img class= 'stimulus' src='images/baseline/pexels-photo-894312.jpeg'></img></p>","null","","1549731284261","","","","","","",""
"null","","html-keyboard-response","208","4117113","0.0-6.0-12.10","07","<p><img class= 'stimulus' src='images/baseline/Niinsaare_jarv.jpg'></img></p>","null","","1549731284361","12","","","","","",""
"null","","html-keyboard-response","209","4117214","0.0-6.0-13.10","07","<p><img class= 'stimulus' src='images/baseline/landscape38.jpg'></img></p>","null","","1549731284463","","","","","","",""
"null","","html-keyboard-response","210","4117313","0.0-6.0-14.10","07","<p><img class= 'stimulus' src='images/baseline/03162v.jpg'></img></p>","null","","1549731284561","14","","","","","",""
"null","","html-keyboard-response","211","4117414","0.0-6.0-15.10","07","<p><img class= 'stimulus' src='images/baseline/05131v.jpg'></img></p>","null","","1549731284662","","","","","","",""
"null","","html-keyboard-response","212","4117514","0.0-6.0-16.10","07","<p><img class= 'stimulus' src='images/baseline/Dock 1.jpg'></img></p>","null","","1549731284762","","","","","","",""
"null","","html-keyboard-response","213","4117630","0.0-6.0-17.10","07","<p><img class= 'stimulus' src='images/baseline/landscape29.jpg'></img></p>","null","","1549731284862","","","","","","",""
"763.5999999912456","","html-button-response","214","4119411","0.0-6.0-18.10","07","<div class = ""response_question"">WAS THE IMAGE ROTATED...</div>","","4","","","4","2","bas","right","practice","true"
"1230.199999990873","","html-button-response","215","4120642","0.0-6.0-0.11","07","","","0","","","","","","","",""
"null","","html-keyboard-response","216","4120731","0.0-6.0-1.11","07","<p><img class= 'stimulus' src='images/baseline/empire-state-building.jpg'></img></p>","null","","1549731287979","","","","","","",""
"null","","html-keyboard-response","217","4120831","0.0-6.0-2.11","07","<p><img class= 'stimulus' src='images/baseline/farmhouse3.jpg'></img></p>","null","","1549731288078","","","","","","",""
"null","","html-keyboard-response","218","4120931","0.0-6.0-3.11","07","<p><img class= 'stimulus' src='images/baseline/05145v.jpg'></img></p>","null","","1549731288179","","","","","","",""
"null","","html-keyboard-response","219","4121029","0.0-6.0-4.11","07","<p><img class= 'stimulus' src='images/baseline/04284v.jpg'></img></p>","null","","1549731288279","4","","","","","",""
"null","","html-keyboard-response","220","4121130","0.0-6.0-5.11","07","<p><img class= 'stimulus' src='images/baseline/04014v.jpg'></img></p>","null","","1549731288378","","","","","","",""
"null","","html-keyboard-response","221","4121230","0.0-6.0-6.11","07","<p><img class= 'stimulus' src='images/baseline/building3.jpg'></img></p>","null","","1549731288479","6","","","","","",""
"null","","html-keyboard-response","222","4121330","0.0-6.0-7.11","07","<p><img class= 'stimulus' src='images/baseline/05303v.jpg'></img></p>","null","","1549731288579","","","","","","",""
"null","","html-keyboard-response","223","4121430","0.0-6.0-8.11","07","<p><img class= 'stimulus' src='images/target/landscape1.jpg'></img></p>","null","","1549731288679","8","","","","","",""
"null","","html-keyboard-response","224","4121530","0.0-6.0-9.11","07","<p><img class= 'stimulus' src='images/baseline/building2.jpg'></img></p>","null","","1549731288779","","","","","","",""
"null","","html-keyboard-response","225","4121630","0.0-6.0-10.11","07","<p><img class= 'stimulus' src='images/baseline/Peyto_Lake-Banff_NP-Canada.jpg'></img></p>","null","","1549731288879","","","","","","",""
"null","","html-keyboard-response","226","4121731","0.0-6.0-11.11","07","<p><img class= 'stimulus' src='images/baseline/horse_statue.jpg'></img></p>","null","","1549731288978","","","","","","",""
"null","","html-keyboard-response","227","4121830","0.0-6.0-12.11","07","<p><img class= 'stimulus' src='images/baseline/tennis-court-net-buried-in-snow.jpg'></img></p>","null","","1549731289079","12","","","","","",""
"null","","html-keyboard-response","228","4121930","0.0-6.0-13.11","07","<p><img class= 'stimulus' src='images/baseline/03041v.jpg'></img></p>","null","","1549731289178","","","","","","",""
"null","","html-keyboard-response","229","4122031","0.0-6.0-14.11","07","<p><img class= 'stimulus' src='images/baseline/03063v.jpg'></img></p>","null","","1549731289278","14","","","","","",""
"null","","html-keyboard-response","230","4122130","0.0-6.0-15.11","07","<p><img class= 'stimulus' src='images/baseline/landscape39.jpg'></img></p>","null","","1549731289378","","","","","","",""
"null","","html-keyboard-response","231","4122231","0.0-6.0-16.11","07","<p><img class= 'stimulus' src='images/baseline/landscape34.jpg'></img></p>","null","","1549731289479","","","","","","",""
"null","","html-keyboard-response","232","4122347","0.0-6.0-17.11","07","<p><img class= 'stimulus' src='images/baseline/valley 1.jpg'></img></p>","null","","1549731289580","","","","","","",""
"1169.9999999981374","","html-button-response","233","4124523","0.0-6.0-18.11","07","<div class = ""response_question"">WAS THE IMAGE ROTATED...</div>","","4","","","6","2","bas","right","practice","true"
"2278.3000000054017","","html-button-response","234","4126802","0.0-6.0-0.12","07","","","0","","","","","","","",""
"null","","html-keyboard-response","235","4126881","0.0-6.0-1.12","07","<p><img class= 'stimulus' src='images/baseline/pexels-photo-534164.jpeg'></img></p>","null","","1549731294129","","","","","","",""
"null","","html-keyboard-response","236","4126980","0.0-6.0-2.12","07","<p><img class= 'stimulus' src='images/baseline/landscape22.jpg'></img></p>","null","","1549731294229","","","","","","",""
"null","","html-keyboard-response","237","4127080","0.0-6.0-3.12","07","<p><img class= 'stimulus' src='images/baseline/05158v.jpg'></img></p>","null","","1549731294330","","","","","","",""
"null","","html-keyboard-response","238","4127181","0.0-6.0-4.12","07","<p><img class= 'stimulus' src='images/baseline/Lake 16.jpg'></img></p>","null","","1549731294430","4","","","","","",""
"null","","html-keyboard-response","239","4127280","0.0-6.0-5.12","07","<p><img class= 'stimulus' src='images/baseline/meadow-with-mountain-in-background.jpg'></img></p>","null","","1549731294530","","","","","","",""
"null","","html-keyboard-response","240","4127380","0.0-6.0-6.12","07","<p><img class= 'stimulus' src='images/baseline/farmhouse6.jpg'></img></p>","null","","1549731294629","6","","","","","",""
"null","","html-keyboard-response","241","4127480","0.0-6.0-7.12","07","<p><img class= 'stimulus' src='images/baseline/04060v.jpg'></img></p>","null","","1549731294729","","","","","","",""
"null","","html-keyboard-response","242","4127580","0.0-6.0-8.12","07","<p><img class= 'stimulus' src='images/baseline/lone-old-cottonwood-tree.jpg'></img></p>","null","","1549731294828","8","","","","","",""
"null","","html-keyboard-response","243","4127680","0.0-6.0-9.12","07","<p><img class= 'stimulus' src='images/baseline/04162v.jpg'></img></p>","null","","1549731294929","","","","","","",""
"null","","html-keyboard-response","244","4127781","0.0-6.0-10.12","07","<p><img class= 'stimulus' src='images/baseline/04098v.jpg'></img></p>","null","","1549731295029","","","","","","",""
"null","","html-keyboard-response","245","4127880","0.0-6.0-11.12","07","<p><img class= 'stimulus' src='images/baseline/05255v.jpg'></img></p>","null","","1549731295129","","","","","","",""
"null","","html-keyboard-response","246","4127980","0.0-6.0-12.12","07","<p><img class= 'stimulus' src='images/baseline/pexels-photo-259280.jpeg'></img></p>","null","","1549731295229","12","","","","","",""
"null","","html-keyboard-response","247","4128080","0.0-6.0-13.12","07","<p><img class= 'stimulus' src='images/baseline/pexels-photo-1837621.jpeg'></img></p>","null","","1549731295329","","","","","","",""
"null","","html-keyboard-response","248","4128181","0.0-6.0-14.12","07","<p><img class= 'stimulus' src='images/target/chicago-673558_640.jpg'></img></p>","null","","1549731295429","14","","","","","",""
"null","","html-keyboard-response","249","4128281","0.0-6.0-15.12","07","<p><img class= 'stimulus' src='images/baseline/flooded-bridge.jpg'></img></p>","null","","1549731295529","","","","","","",""
"null","","html-keyboard-response","250","4128379","0.0-6.0-16.12","07","<p><img class= 'stimulus' src='images/baseline/landscape1.jpg'></img></p>","null","","1549731295628","","","","","","",""
"null","","html-keyboard-response","251","4128497","0.0-6.0-17.12","07","<p><img class= 'stimulus' src='images/baseline/Paysage_enneige_02.jpg'></img></p>","null","","1549731295729","","","","","","",""
"1205.0000000018626","","html-button-response","252","4130707","0.0-6.0-18.12","07","<div class = ""response_question"">WAS THE IMAGE ROTATED...</div>","","3","","","6","8","bas","right","practice","true"
"1350.399999995716","","html-button-response","253","4132058","0.0-6.0-0.13","07","","","0","","","","","","","",""
"null","","html-keyboard-response","254","4132130","0.0-6.0-1.13","07","<p><img class= 'stimulus' src='images/baseline/lookout_tower.jpg'></img></p>","null","","1549731299379","","","","","","",""
"null","","html-keyboard-response","255","4132230","0.0-6.0-2.13","07","<p><img class= 'stimulus' src='images/baseline/Lake 14.jpg'></img></p>","null","","1549731299479","","","","","","",""
"null","","html-keyboard-response","256","4132331","0.0-6.0-3.13","07","<p><img class= 'stimulus' src='images/baseline/99_-_Machu_Picchu_-_Juin_2009.edit3.jpg'></img></p>","null","","1549731299580","","","","","","",""
"null","","html-keyboard-response","257","4132430","0.0-6.0-4.13","07","<p><img class= 'stimulus' src='images/baseline/Lake 5.jpg'></img></p>","null","","1549731299679","4","","","","","",""
"null","","html-keyboard-response","258","4132530","0.0-6.0-5.13","07","<p><img class= 'stimulus' src='images/baseline/02977v.jpg'></img></p>","null","","1549731299778","","","","","","",""
"null","","html-keyboard-response","259","4132630","0.0-6.0-6.13","07","<p><img class= 'stimulus left-rotate' src='images/target/torrotito-375925_640.jpg'></img></p>","null","","1549731299878","6","","","","","",""
"null","","html-keyboard-response","260","4132730","0.0-6.0-7.13","07","<p><img class= 'stimulus' src='images/baseline/03180v.jpg'></img></p>","null","","1549731299979","","","","","","",""
"null","","html-keyboard-response","261","4132830","0.0-6.0-8.13","07","<p><img class= 'stimulus' src='images/baseline/05242v.jpg'></img></p>","null","","1549731300078","8","","","","","",""
"null","","html-keyboard-response","262","4132931","0.0-6.0-9.13","07","<p><img class= 'stimulus' src='images/baseline/pexels-photo-1840893.jpeg'></img></p>","null","","1549731300179","","","","","","",""
"null","","html-keyboard-response","263","4133030","0.0-6.0-10.13","07","<p><img class= 'stimulus' src='images/baseline/03098v.jpg'></img></p>","null","","1549731300278","","","","","","",""
"null","","html-keyboard-response","264","4133131","0.0-6.0-11.13","07","<p><img class= 'stimulus' src='images/baseline/landscape19.jpg'></img></p>","null","","1549731300379","","","","","","",""
"null","","html-keyboard-response","265","4133230","0.0-6.0-12.13","07","<p><img class= 'stimulus' src='images/baseline/Paysage_karabagh_02.jpg'></img></p>","null","","1549731300480","12","","","","","",""
"null","","html-keyboard-response","266","4133331","0.0-6.0-13.13","07","<p><img class= 'stimulus' src='images/baseline/04010v.jpg'></img></p>","null","","1549731300579","","","","","","",""
"null","","html-keyboard-response","267","4133431","0.0-6.0-14.13","07","<p><img class= 'stimulus' src='images/baseline/pexels-photo-459203.jpeg'></img></p>","null","","1549731300679","14","","","","","",""
"null","","html-keyboard-response","268","4133530","0.0-6.0-15.13","07","<p><img class= 'stimulus' src='images/baseline/landscape13.jpg'></img></p>","null","","1549731300780","","","","","","",""
"null","","html-keyboard-response","269","4133630","0.0-6.0-16.13","07","<p><img class= 'stimulus' src='images/baseline/pexels-photo-427676.jpeg'></img></p>","null","","1549731300879","","","","","","",""
"null","","html-keyboard-response","270","4133748","0.0-6.0-17.13","07","<p><img class= 'stimulus' src='images/baseline/Beach 3.jpg'></img></p>","null","","1549731300979","","","","","","",""
"866.3000000086613","","html-button-response","271","4135618","0.0-6.0-18.13","07","<div class = ""response_question"">WAS THE IMAGE ROTATED...</div>","","2","","","4","2","bas","left","practice","false"
"1077.5999999898486","","html-button-response","272","4136698","0.0-6.0-0.14","07","","","0","","","","","","","",""
"null","","html-keyboard-response","273","4136780","0.0-6.0-1.14","07","<p><img class= 'stimulus' src='images/baseline/pexels-photo-210617.jpeg'></img></p>","null","","1549731304028","","","","","","",""
"null","","html-keyboard-response","274","4136880","0.0-6.0-2.14","07","<p><img class= 'stimulus' src='images/baseline/02960v.jpg'></img></p>","null","","1549731304128","","","","","","",""
"null","","html-keyboard-response","275","4136980","0.0-6.0-3.14","07","<p><img class= 'stimulus' src='images/baseline/field 1.jpg'></img></p>","null","","1549731304229","","","","","","",""
"null","","html-keyboard-response","276","4137080","0.0-6.0-4.14","07","<p><img class= 'stimulus' src='images/baseline/pexels-photo-440731.jpeg'></img></p>","null","","1549731304329","4","","","","","",""
"null","","html-keyboard-response","277","4137181","0.0-6.0-5.14","07","<p><img class= 'stimulus' src='images/baseline/05167v.jpg'></img></p>","null","","1549731304429","","","","","","",""
"null","","html-keyboard-response","278","4137281","0.0-6.0-6.14","07","<p><img class= 'stimulus' src='images/baseline/pexels-photo-59321.jpeg'></img></p>","null","","1549731304529","6","","","","","",""
"null","","html-keyboard-response","279","4137380","0.0-6.0-7.14","07","<p><img class= 'stimulus' src='images/baseline/Beach 8.jpg'></img></p>","null","","1549731304629","","","","","","",""
"null","","html-keyboard-response","280","4137480","0.0-6.0-8.14","07","<p><img class= 'stimulus' src='images/baseline/building5.jpg'></img></p>","null","","1549731304728","8","","","","","",""
"null","","html-keyboard-response","281","4137581","0.0-6.0-9.14","07","<p><img class= 'stimulus' src='images/baseline/03045v.jpg'></img></p>","null","","1549731304828","","","","","","",""
"null","","html-keyboard-response","282","4137680","0.0-6.0-10.14","07","<p><img class= 'stimulus' src='images/baseline/Dirt 2.jpg'></img></p>","null","","1549731304930","","","","","","",""
"null","","html-keyboard-response","283","4137780","0.0-6.0-11.14","07","<p><img class= 'stimulus' src='images/baseline/Lake 9.jpg'></img></p>","null","","1549731305028","","","","","","",""
"null","","html-keyboard-response","284","4137880","0.0-6.0-12.14","07","<p><img class= 'stimulus' src='images/baseline/foreclosed_home.jpg'></img></p>","null","","1549731305128","12","","","","","",""
"null","","html-keyboard-response","285","4137981","0.0-6.0-13.14","07","<p><img class= 'stimulus' src='images/baseline/grand-teton-mountains.jpg'></img></p>","null","","1549731305230","","","","","","",""
"null","","html-keyboard-response","286","4138081","0.0-6.0-14.14","07","<p><img class= 'stimulus left-rotate' src='images/target/shotstash_0036-1-1100x734.jpg'></img></p>","null","","1549731305329","14","","","","","",""
"null","","html-keyboard-response","287","4138180","0.0-6.0-15.14","07","<p><img class= 'stimulus' src='images/baseline/4k-wallpaper-agriculture-clouds-842711.jpg'></img></p>","null","","1549731305429","","","","","","",""
"null","","html-keyboard-response","288","4138280","0.0-6.0-16.14","07","<p><img class= 'stimulus' src='images/baseline/house10.jpg'></img></p>","null","","1549731305529","","","","","","",""
"null","","html-keyboard-response","289","4138397","0.0-6.0-17.14","07","<p><img class= 'stimulus' src='images/baseline/house6.jpg'></img></p>","null","","1549731305629","","","","","","",""
"1353.199999997858","","html-button-response","290","4140754","0.0-6.0-18.14","07","<div class = ""response_question"">WAS THE IMAGE ROTATED...</div>","","1","","","6","8","bas","left","practice","true"
"1622.3000000026077","","html-button-response","291","4142378","0.0-6.0-0.15","07","","","0","","","","","","","",""
"null","","html-keyboard-response","292","4142464","0.0-6.0-1.15","07","<p><img class= 'stimulus' src='images/baseline/hills 4.jpg'></img></p>","null","","1549731309713","","","","","","",""
"null","","html-keyboard-response","293","4142564","0.0-6.0-2.15","07","<p><img class= 'stimulus' src='images/baseline/lake 1.jpg'></img></p>","null","","1549731309811","","","","","","",""
"null","","html-keyboard-response","294","4142664","0.0-6.0-3.15","07","<p><img class= 'stimulus' src='images/baseline/Camping 10.jpg'></img></p>","null","","1549731309912","","","","","","",""
"null","","html-keyboard-response","295","4142764","0.0-6.0-4.15","07","<p><img class= 'stimulus' src='images/baseline/Nature 2.jpg'></img></p>","null","","1549731310012","4","","","","","",""
"null","","html-keyboard-response","296","4142863","0.0-6.0-5.15","07","<p><img class= 'stimulus' src='images/baseline/farmhouse9.jpg'></img></p>","null","","1549731310113","","","","","","",""
"null","","html-keyboard-response","297","4142963","0.0-6.0-6.15","07","<p><img class= 'stimulus' src='images/baseline/landscape31.jpg'></img></p>","null","","1549731310212","6","","","","","",""
"null","","html-keyboard-response","298","4143065","0.0-6.0-7.15","07","<p><img class= 'stimulus' src='images/baseline/landscape15.jpg'></img></p>","null","","1549731310312","","","","","","",""
"null","","html-keyboard-response","299","4143163","0.0-6.0-8.15","07","<p><img class= 'stimulus left-rotate' src='images/target/pexels-photo-1123982.jpeg'></img></p>","null","","1549731310413","8","","","","","",""
"null","","html-keyboard-response","300","4143263","0.0-6.0-9.15","07","<p><img class= 'stimulus' src='images/baseline/Street 1.jpg'></img></p>","null","","1549731310513","","","","","","",""
"null","","html-keyboard-response","301","4143364","0.0-6.0-10.15","07","<p><img class= 'stimulus' src='images/baseline/04196v.jpg'></img></p>","null","","1549731310613","","","","","","",""
"null","","html-keyboard-response","302","4143464","0.0-6.0-11.15","07","<p><img class= 'stimulus' src='images/baseline/field 2.jpg'></img></p>","null","","1549731310714","","","","","","",""
"null","","html-keyboard-response","303","4143563","0.0-6.0-12.15","07","<p><img class= 'stimulus' src='images/baseline/05198v.jpg'></img></p>","null","","1549731310814","12","","","","","",""
"null","","html-keyboard-response","304","4143663","0.0-6.0-13.15","07","<p><img class= 'stimulus' src='images/baseline/04201v.jpg'></img></p>","null","","1549731310911","","","","","","",""
"null","","html-keyboard-response","305","4143764","0.0-6.0-14.15","07","<p><img class= 'stimulus' src='images/baseline/house6.jpg'></img></p>","null","","1549731311012","14","","","","","",""
"null","","html-keyboard-response","306","4143864","0.0-6.0-15.15","07","<p><img class= 'stimulus' src='images/baseline/04284v.jpg'></img></p>","null","","1549731311112","","","","","","",""
"null","","html-keyboard-response","307","4143964","0.0-6.0-16.15","07","<p><img class= 'stimulus' src='images/baseline/pexels-photo-894312.jpeg'></img></p>","null","","1549731311213","","","","","","",""
"null","","html-keyboard-response","308","4144080","0.0-6.0-17.15","07","<p><img class= 'stimulus' src='images/baseline/Lake 15.jpg'></img></p>","null","","1549731311312","","","","","","",""
"1230.5999999949709","","html-button-response","309","4146314","0.0-6.0-18.15","07","<div class = ""response_question"">WAS THE IMAGE ROTATED...</div>","","1","","","6","2","bas","left","practice","true"
"41478.49999999767","","html-button-response","310","4187794","0.0-7.0","07","<p>You have now completed the practice phase. We will now begin the real trials.         This is a reminder that you will be searching for a rotated image among the series of upright images.</p>         <p>Remember, please do not blink or move your eyes while the images are on the screen.</p>         <p>At the end of the experiment, the experimenter will be able to show you how accurate you were.</p>","","0","","","","","","","",""
"5926.500000000931","","html-button-response","311","4193721","0.0-8.0-0.0-0.0","07","","","0","","","","","","","",""
"null","","html-keyboard-response","312","4193797","0.0-8.0-0.0-1.0","07","<p><img class= 'stimulus' src='images/baseline/landscape22.jpg'></img></p>","null","","1549731361045","","","","","","",""
"null","","html-keyboard-response","313","4193897","0.0-8.0-0.0-2.0","07","<p><img class= 'stimulus' src='images/baseline/landscape6.jpg'></img></p>","null","","1549731361144","","","","","","",""
"null","","html-keyboard-response","314","4193996","0.0-8.0-0.0-3.0","07","<p><img class= 'stimulus' src='images/baseline/04085v.jpg'></img></p>","null","","1549731361245","","","","","","",""
"null","","html-keyboard-response","315","4194097","0.0-8.0-0.0-4.0","07","<p><img class= 'stimulus' src='images/baseline/pexels-photo-534164.jpeg'></img></p>","null","","1549731361345","4","","","","","",""
"null","","html-keyboard-response","316","4194197","0.0-8.0-0.0-5.0","07","<p><img class= 'stimulus' src='images/baseline/Lake 14.jpg'></img></p>","null","","1549731361445","","","","","","",""
"null","","html-keyboard-response","317","4194297","0.0-8.0-0.0-6.0","07","<p><img class= 'stimulus' src='images/baseline/05186v.jpg'></img></p>","null","","1549731361546","6","","","","","",""
"null","","html-keyboard-response","318","4194396","0.0-8.0-0.0-7.0","07","<p><img class= 'stimulus' src='images/baseline/architecture_modern_architecture_852928.jpg'></img></p>","null","","1549731361645","","","","","","",""
"null","","html-keyboard-response","319","4194497","0.0-8.0-0.0-8.0","07","<p><img class= 'stimulus' src='images/baseline/02971v.jpg'></img></p>","null","","1549731361746","8","","","","","",""
"null","","html-keyboard-response","320","4194596","0.0-8.0-0.0-9.0","07","<p><img class= 'stimulus' src='images/baseline/05203v.jpg'></img></p>","null","","1549731361845","","","","","","",""
"null","","html-keyboard-response","321","4194697","0.0-8.0-0.0-10.0","07","<p><img class= 'stimulus' src='images/baseline/pexels-photo-259280.jpeg'></img></p>","null","","1549731361946","","","","","","",""
"null","","html-keyboard-response","322","4194797","0.0-8.0-0.0-11.0","07","<p><img class= 'stimulus' src='images/baseline/05255v.jpg'></img></p>","null","","1549731362045","","","","","","",""
"null","","html-keyboard-response","323","4194897","0.0-8.0-0.0-12.0","07","<p><img class= 'stimulus left-rotate' src='images/target/tree1.jpg'></img></p>","null","","1549731362145","12","","","","","",""
"null","","html-keyboard-response","324","4194996","0.0-8.0-0.0-13.0","07","<p><img class= 'stimulus' src='images/baseline/Nature 1.jpg'></img></p>","null","","1549731362244","","","","","","",""
"null","","html-keyboard-response","325","4195096","0.0-8.0-0.0-14.0","07","<p><img class= 'stimulus' src='images/baseline/farmhouse8.jpg'></img></p>","null","","1549731362345","14","","","","","",""
"null","","html-keyboard-response","326","4195197","0.0-8.0-0.0-15.0","07","<p><img class= 'stimulus' src='images/baseline/05198v.jpg'></img></p>","null","","1549731362446","","","","","","",""
"null","","html-keyboard-response","327","4195297","0.0-8.0-0.0-16.0","07","<p><img class= 'stimulus' src='images/baseline/Peyto_Lake-Banff_NP-Canada.jpg'></img></p>","null","","1549731362546","","","","","","",""
"null","","html-keyboard-response","328","4195413","0.0-8.0-0.0-17.0","07","<p><img class= 'stimulus' src='images/baseline/landscape16.jpg'></img></p>","null","","1549731362645","","","","","","",""
"949.999999997206","","html-button-response","329","4197369","0.0-8.0-0.0-18.0","07","<div class = ""response_question"">WAS THE IMAGE ROTATED...</div>","","1","","","4","8","bas","left","test","true"
"1293.2000000001863","","html-button-response","330","4198665","0.0-8.0-0.0-0.1","07","","","0","","","","","","","",""
"null","","html-keyboard-response","331","4198746","0.0-8.0-0.0-1.1","07","<p><img class= 'stimulus' src='images/baseline/02945v.jpg'></img></p>","null","","1549731365995","","","","","","",""
"null","","html-keyboard-response","332","4198847","0.0-8.0-0.0-2.1","07","<p><img class= 'stimulus' src='images/baseline/building2.jpg'></img></p>","null","","1549731366095","","","","","","",""
"null","","html-keyboard-response","333","4198947","0.0-8.0-0.0-3.1","07","<p><img class= 'stimulus' src='images/baseline/valley 2.jpg'></img></p>","null","","1549731366196","","","","","","",""
"null","","html-keyboard-response","334","4199047","0.0-8.0-0.0-4.1","07","<p><img class= 'stimulus' src='images/neutral/Elephant 1.jpg'></img></p>","null","","1549731366294","4","","","","","",""
"null","","html-keyboard-response","335","4199146","0.0-8.0-0.0-5.1","07","<p><img class= 'stimulus' src='images/baseline/kokkari-1523011968Xfr.jpg'></img></p>","null","","1549731366395","","","","","","",""
"null","","html-keyboard-response","336","4199247","0.0-8.0-0.0-6.1","07","<p><img class= 'stimulus' src='images/baseline/Street 3.jpg'></img></p>","null","","1549731366495","6","","","","","",""
"null","","html-keyboard-response","337","4199347","0.0-8.0-0.0-7.1","07","<p><img class= 'stimulus' src='images/baseline/cranes 1.jpg'></img></p>","null","","1549731366596","","","","","","",""
"null","","html-keyboard-response","338","4199448","0.0-8.0-0.0-8.1","07","<p><img class= 'stimulus' src='images/baseline/landscape3.jpg'></img></p>","null","","1549731366696","8","","","","","",""
"null","","html-keyboard-response","339","4199546","0.0-8.0-0.0-9.1","07","<p><img class= 'stimulus' src='images/baseline/town-square-in-wroclaw-1539098440MZy.jpg'></img></p>","null","","1549731366795","","","","","","",""
"null","","html-keyboard-response","340","4199647","0.0-8.0-0.0-10.1","07","<p><img class= 'stimulus' src='images/baseline/building3.jpg'></img></p>","null","","1549731366897","","","","","","",""
"null","","html-keyboard-response","341","4199746","0.0-8.0-0.0-11.1","07","<p><img class= 'stimulus' src='images/baseline/Sunset 4.jpg'></img></p>","null","","1549731366996","","","","","","",""
"null","","html-keyboard-response","342","4199846","0.0-8.0-0.0-12.1","07","<p><img class= 'stimulus left-rotate' src='images/target/landscape3.jpg'></img></p>","null","","1549731367095","12","","","","","",""
"null","","html-keyboard-response","343","4199947","0.0-8.0-0.0-13.1","07","<p><img class= 'stimulus' src='images/baseline/scenic-mountain-landscape.jpg'></img></p>","null","","1549731367195","","","","","","",""
"null","","html-keyboard-response","344","4200047","0.0-8.0-0.0-14.1","07","<p><img class= 'stimulus' src='images/baseline/pexels-photo-808465.jpeg'></img></p>","null","","1549731367294","14","","","","","",""
"null","","html-keyboard-response","345","4200147","0.0-8.0-0.0-15.1","07","<p><img class= 'stimulus' src='images/baseline/04060v.jpg'></img></p>","null","","1549731367396","","","","","","",""
"null","","html-keyboard-response","346","4200247","0.0-8.0-0.0-16.1","07","<p><img class= 'stimulus' src='images/baseline/road 1(1).jpg'></img></p>","null","","1549731367495","","","","","","",""
"null","","html-keyboard-response","347","4200364","0.0-8.0-0.0-17.1","07","<p><img class= 'stimulus' src='images/baseline/building4.jpg'></img></p>","null","","1549731367595","","","","","","",""
"945.0000000065193","","html-button-response","348","4202314","0.0-8.0-0.0-18.1","07","<div class = ""response_question"">WAS THE IMAGE ROTATED...</div>","","0","","","4","8","neu","left","test","true"
"1046.499999997206","","html-button-response","349","4203361","0.0-8.0-0.0-0.2","07","","","0","","","","","","","",""
"null","","html-keyboard-response","350","4203447","0.0-8.0-0.0-1.2","07","<p><img class= 'stimulus' src='images/baseline/pexels-photo-221125.jpeg'></img></p>","null","","1549731370696","","","","","","",""
"null","","html-keyboard-response","351","4203547","0.0-8.0-0.0-2.2","07","<p><img class= 'stimulus' src='images/baseline/Street 2.jpg'></img></p>","null","","1549731370795","","","","","","",""
"null","","html-keyboard-response","352","4203646","0.0-8.0-0.0-3.2","07","<p><img class= 'stimulus' src='images/baseline/building8.jpg'></img></p>","null","","1549731370895","","","","","","",""
"null","","html-keyboard-response","353","4203747","0.0-8.0-0.0-4.2","07","<p><img class= 'stimulus' src='images/baseline/farmhouse2.jpg'></img></p>","null","","1549731370994","4","","","","","",""
"null","","html-keyboard-response","354","4203847","0.0-8.0-0.0-5.2","07","<p><img class= 'stimulus' src='images/baseline/05279v.jpg'></img></p>","null","","1549731371095","","","","","","",""
"null","","html-keyboard-response","355","4203947","0.0-8.0-0.0-6.2","07","<p><img class= 'stimulus' src='images/target/adventure-desert-landscape-6778.jpg'></img></p>","null","","1549731371195","6","","","","","",""
"null","","html-keyboard-response","356","4204047","0.0-8.0-0.0-7.2","07","<p><img class= 'stimulus' src='images/baseline/meadow-with-mountain-in-background.jpg'></img></p>","null","","1549731371296","","","","","","",""
"null","","html-keyboard-response","357","4204148","0.0-8.0-0.0-8.2","07","<p><img class= 'stimulus' src='images/baseline/Cold 7.jpg'></img></p>","null","","1549731371395","8","","","","","",""
"null","","html-keyboard-response","358","4204246","0.0-8.0-0.0-9.2","07","<p><img class= 'stimulus' src='images/baseline/05131v.jpg'></img></p>","null","","1549731371495","","","","","","",""
"null","","html-keyboard-response","359","4204347","0.0-8.0-0.0-10.2","07","<p><img class= 'stimulus' src='images/baseline/agriculture-bright-clouds-440731.jpg'></img></p>","null","","1549731371596","","","","","","",""
"null","","html-keyboard-response","360","4204447","0.0-8.0-0.0-11.2","07","<p><img class= 'stimulus' src='images/baseline/house2.jpg'></img></p>","null","","1549731371695","","","","","","",""
"null","","html-keyboard-response","361","4204546","0.0-8.0-0.0-12.2","07","<p><img class= 'stimulus' src='images/baseline/02962v.jpg'></img></p>","null","","1549731371796","12","","","","","",""
"null","","html-keyboard-response","362","4204647","0.0-8.0-0.0-13.2","07","<p><img class= 'stimulus' src='images/baseline/04014v.jpg'></img></p>","null","","1549731371895","","","","","","",""
"null","","html-keyboard-response","363","4204746","0.0-8.0-0.0-14.2","07","<p><img class= 'stimulus' src='images/baseline/04162v.jpg'></img></p>","null","","1549731371994","14","","","","","",""
"null","","html-keyboard-response","364","4204847","0.0-8.0-0.0-15.2","07","<p><img class= 'stimulus' src='images/baseline/04222v.jpg'></img></p>","null","","1549731372096","","","","","","",""
"null","","html-keyboard-response","365","4204947","0.0-8.0-0.0-16.2","07","<p><img class= 'stimulus' src='images/baseline/bird-flying-at-sunset.jpg'></img></p>","null","","1549731372195","","","","","","",""
"null","","html-keyboard-response","366","4205064","0.0-8.0-0.0-17.2","07","<p><img class= 'stimulus' src='images/baseline/Lake 4.jpg'></img></p>","null","","1549731372295","","","","","","",""
"843.3999999985099","","html-button-response","367","4206914","0.0-8.0-0.0-18.2","07","<div class = ""response_question"">WAS THE IMAGE ROTATED...</div>","","3","","","4","2","bas","right","test","true"
"1766.399999992922","","html-button-response","368","4208682","0.0-8.0-0.0-0.3","07","","","0","","","","","","","",""
"null","","html-keyboard-response","369","4208764","0.0-8.0-0.0-1.3","07","<p><img class= 'stimulus' src='images/baseline/grand-teton-mountains.jpg'></img></p>","null","","1549731376011","","","","","","",""
"null","","html-keyboard-response","370","4208864","0.0-8.0-0.0-2.3","07","<p><img class= 'stimulus' src='images/baseline/05145v.jpg'></img></p>","null","","1549731376112","","","","","","",""
"null","","html-keyboard-response","371","4208963","0.0-8.0-0.0-3.3","07","<p><img class= 'stimulus' src='images/baseline/02960v.jpg'></img></p>","null","","1549731376212","","","","","","",""
"null","","html-keyboard-response","372","4209063","0.0-8.0-0.0-4.3","07","<p><img class= 'stimulus' src='images/baseline/landscape17.jpg'></img></p>","null","","1549731376312","4","","","","","",""
"null","","html-keyboard-response","373","4209164","0.0-8.0-0.0-5.3","07","<p><img class= 'stimulus' src='images/baseline/red-rocks-park.jpg'></img></p>","null","","1549731376412","","","","","","",""
"null","","html-keyboard-response","374","4209263","0.0-8.0-0.0-6.3","07","<p><img class= 'stimulus' src='images/neutral/thailand-girl.jpg'></img></p>","null","","1549731376512","6","","","","","",""
"null","","html-keyboard-response","375","4209364","0.0-8.0-0.0-7.3","07","<p><img class= 'stimulus' src='images/baseline/landscape7.jpg'></img></p>","null","","1549731376612","","","","","","",""
"null","","html-keyboard-response","376","4209463","0.0-8.0-0.0-8.3","07","<p><img class= 'stimulus' src='images/target/lone-tree.png'></img></p>","null","","1549731376711","8","","","","","",""
"null","","html-keyboard-response","377","4209564","0.0-8.0-0.0-9.3","07","<p><img class= 'stimulus' src='images/baseline/02977v.jpg'></img></p>","null","","1549731376812","","","","","","",""
"null","","html-keyboard-response","378","4209663","0.0-8.0-0.0-10.3","07","<p><img class= 'stimulus' src='images/baseline/04229v.jpg'></img></p>","null","","1549731376911","","","","","","",""
"null","","html-keyboard-response","379","4209764","0.0-8.0-0.0-11.3","07","<p><img class= 'stimulus' src='images/baseline/03220v.jpg'></img></p>","null","","1549731377011","","","","","","",""
"null","","html-keyboard-response","380","4209863","0.0-8.0-0.0-12.3","07","<p><img class= 'stimulus' src='images/baseline/landscape40.jpg'></img></p>","null","","1549731377112","12","","","","","",""
"null","","html-keyboard-response","381","4209964","0.0-8.0-0.0-13.3","07","<p><img class= 'stimulus' src='images/baseline/landscape23.jpg'></img></p>","null","","1549731377213","","","","","","",""
"null","","html-keyboard-response","382","4210064","0.0-8.0-0.0-14.3","07","<p><img class= 'stimulus' src='images/baseline/vintage-art-deco-storefront.jpg'></img></p>","null","","1549731377311","14","","","","","",""
"null","","html-keyboard-response","383","4210162","0.0-8.0-0.0-15.3","07","<p><img class= 'stimulus' src='images/baseline/05161v.jpg'></img></p>","null","","1549731377412","","","","","","",""
"null","","html-keyboard-response","384","4210264","0.0-8.0-0.0-16.3","07","<p><img class= 'stimulus' src='images/baseline/pexels-photo-1054289.jpeg'></img></p>","null","","1549731377512","","","","","","",""
"null","","html-keyboard-response","385","4210380","0.0-8.0-0.0-17.3","07","<p><img class= 'stimulus' src='images/baseline/pexels-photo-1261728.jpeg'></img></p>","null","","1549731377613","","","","","","",""
"3326.4999999953434","","html-button-response","386","4214714","0.0-8.0-0.0-18.3","07","<div class = ""response_question"">WAS THE IMAGE ROTATED...</div>","","1","","","6","2","neu","right","test","false"
"1222.300000009127","","html-button-response","387","4215938","0.0-8.0-0.0-0.4","07","","","0","","","","","","","",""
"null","","html-keyboard-response","388","4216013","0.0-8.0-0.0-1.4","07","<p><img class= 'stimulus' src='images/baseline/03212v.jpg'></img></p>","null","","1549731383263","","","","","","",""
"null","","html-keyboard-response","389","4216114","0.0-8.0-0.0-2.4","07","<p><img class= 'stimulus' src='images/baseline/02982v.jpg'></img></p>","null","","1549731383362","","","","","","",""
"null","","html-keyboard-response","390","4216214","0.0-8.0-0.0-3.4","07","<p><img class= 'stimulus' src='images/baseline/03075v.jpg'></img></p>","null","","1549731383462","","","","","","",""
"null","","html-keyboard-response","391","4216314","0.0-8.0-0.0-4.4","07","<p><img class= 'stimulus' src='images/negative/Shark 5.jpg'></img></p>","null","","1549731383562","4","","","","","",""
"null","","html-keyboard-response","392","4216414","0.0-8.0-0.0-5.4","07","<p><img class= 'stimulus' src='images/baseline/lake 1.jpg'></img></p>","null","","1549731383661","","","","","","",""
"null","","html-keyboard-response","393","4216513","0.0-8.0-0.0-6.4","07","<p><img class= 'stimulus' src='images/target/building19.jpg'></img></p>","null","","1549731383762","6","","","","","",""
"null","","html-keyboard-response","394","4216614","0.0-8.0-0.0-7.4","07","<p><img class= 'stimulus' src='images/baseline/Waterfall 1.jpg'></img></p>","null","","1549731383862","","","","","","",""
"null","","html-keyboard-response","395","4216713","0.0-8.0-0.0-8.4","07","<p><img class= 'stimulus' src='images/baseline/farmhouse7.jpg'></img></p>","null","","1549731383962","8","","","","","",""
"null","","html-keyboard-response","396","4216814","0.0-8.0-0.0-9.4","07","<p><img class= 'stimulus' src='images/baseline/landscape38.jpg'></img></p>","null","","1549731384062","","","","","","",""
"null","","html-keyboard-response","397","4216913","0.0-8.0-0.0-10.4","07","<p><img class= 'stimulus' src='images/baseline/horse_statue.jpg'></img></p>","null","","1549731384162","","","","","","",""
"null","","html-keyboard-response","398","4217013","0.0-8.0-0.0-11.4","07","<p><img class= 'stimulus' src='images/baseline/agriculture-cereal-clouds-175389.jpg'></img></p>","null","","1549731384263","","","","","","",""
"null","","html-keyboard-response","399","4217114","0.0-8.0-0.0-12.4","07","<p><img class= 'stimulus' src='images/baseline/lake 2.jpg'></img></p>","null","","1549731384362","12","","","","","",""
"null","","html-keyboard-response","400","4217214","0.0-8.0-0.0-13.4","07","<p><img class= 'stimulus' src='images/baseline/Beach 3.jpg'></img></p>","null","","1549731384462","","","","","","",""
"null","","html-keyboard-response","401","4217314","0.0-8.0-0.0-14.4","07","<p><img class= 'stimulus' src='images/baseline/landscape29.jpg'></img></p>","null","","1549731384563","14","","","","","",""
"null","","html-keyboard-response","402","4217413","0.0-8.0-0.0-15.4","07","<p><img class= 'stimulus' src='images/baseline/pexels-photo-568236.jpeg'></img></p>","null","","1549731384662","","","","","","",""
"null","","html-keyboard-response","403","4217514","0.0-8.0-0.0-16.4","07","<p><img class= 'stimulus' src='images/baseline/04062v.jpg'></img></p>","null","","1549731384763","","","","","","",""
"null","","html-keyboard-response","404","4217630","0.0-8.0-0.0-17.4","07","<p><img class= 'stimulus' src='images/baseline/landscape33.jpg'></img></p>","null","","1549731384863","","","","","","",""
"786.2000000020489","","html-button-response","405","4219426","0.0-8.0-0.0-18.4","07","<div class = ""response_question"">WAS THE IMAGE ROTATED...</div>","","5","","","4","2","neg","right","test","false"
"1118.2000000113621","","html-button-response","406","4220545","0.0-8.0-0.0-0.5","07","","","0","","","","","","","",""
"null","","html-keyboard-response","407","4220631","0.0-8.0-0.0-1.5","07","<p><img class= 'stimulus' src='images/baseline/pexels-photo-440731.jpeg'></img></p>","null","","1549731387879","","","","","","",""
"null","","html-keyboard-response","408","4220730","0.0-8.0-0.0-2.5","07","<p><img class= 'stimulus' src='images/baseline/trees 23.jpg'></img></p>","null","","1549731387979","","","","","","",""
"null","","html-keyboard-response","409","4220830","0.0-8.0-0.0-3.5","07","<p><img class= 'stimulus' src='images/baseline/hiking-trail.jpg'></img></p>","null","","1549731388079","","","","","","",""
"null","","html-keyboard-response","410","4220931","0.0-8.0-0.0-4.5","07","<p><img class= 'stimulus' src='images/baseline/Skyscraper 2.jpg'></img></p>","null","","1549731388178","4","","","","","",""
"null","","html-keyboard-response","411","4221030","0.0-8.0-0.0-5.5","07","<p><img class= 'stimulus' src='images/baseline/Happy pose 3.jpg'></img></p>","null","","1549731388279","","","","","","",""
"null","","html-keyboard-response","412","4221130","0.0-8.0-0.0-6.5","07","<p><img class= 'stimulus' src='images/target/pexels-photo-1534411.jpeg'></img></p>","null","","1549731388378","6","","","","","",""
"null","","html-keyboard-response","413","4221230","0.0-8.0-0.0-7.5","07","<p><img class= 'stimulus' src='images/baseline/05303v.jpg'></img></p>","null","","1549731388478","","","","","","",""
"null","","html-keyboard-response","414","4221331","0.0-8.0-0.0-8.5","07","<p><img class= 'stimulus' src='images/baseline/04031v.jpg'></img></p>","null","","1549731388579","8","","","","","",""
"null","","html-keyboard-response","415","4221430","0.0-8.0-0.0-9.5","07","<p><img class= 'stimulus' src='images/baseline/house1.jpg'></img></p>","null","","1549731388678","","","","","","",""
"null","","html-keyboard-response","416","4221530","0.0-8.0-0.0-10.5","07","<p><img class= 'stimulus' src='images/baseline/landscape35.jpg'></img></p>","null","","1549731388779","","","","","","",""
"null","","html-keyboard-response","417","4221630","0.0-8.0-0.0-11.5","07","<p><img class= 'stimulus' src='images/baseline/pexels-photo-1837621.jpeg'></img></p>","null","","1549731388879","","","","","","",""
"null","","html-keyboard-response","418","4221730","0.0-8.0-0.0-12.5","07","<p><img class= 'stimulus' src='images/baseline/sunny-landscape-with-dry-brush-and-mountain-background.jpg'></img></p>","null","","1549731388978","12","","","","","",""
"null","","html-keyboard-response","419","4221831","0.0-8.0-0.0-13.5","07","<p><img class= 'stimulus' src='images/baseline/Skyscraper 1.jpg'></img></p>","null","","1549731389079","","","","","","",""
"null","","html-keyboard-response","420","4221930","0.0-8.0-0.0-14.5","07","<p><img class= 'stimulus' src='images/baseline/Dirt 2.jpg'></img></p>","null","","1549731389179","14","","","","","",""
"null","","html-keyboard-response","421","4222031","0.0-8.0-0.0-15.5","07","<p><img class= 'stimulus' src='images/baseline/farmhouse1.jpg'></img></p>","null","","1549731389278","","","","","","",""
"null","","html-keyboard-response","422","4222130","0.0-8.0-0.0-16.5","07","<p><img class= 'stimulus' src='images/baseline/Nature 2.jpg'></img></p>","null","","1549731389379","","","","","","",""
"null","","html-keyboard-response","423","4222247","0.0-8.0-0.0-17.5","07","<p><img class= 'stimulus' src='images/baseline/field 1.jpg'></img></p>","null","","1549731389480","","","","","","",""
"1630.200000014156","","html-button-response","424","4224881","0.0-8.0-0.0-18.5","07","<div class = ""response_question"">WAS THE IMAGE ROTATED...</div>","","3","","","4","2","bas","right","test","true"
"1134.0999999949709","","html-button-response","425","4226019","0.0-8.0-0.0-0.6","07","","","0","","","","","","","",""
"null","","html-keyboard-response","426","4226097","0.0-8.0-0.0-1.6","07","<p><img class= 'stimulus' src='images/baseline/building_at_national_conservation.jpg'></img></p>","null","","1549731393347","","","","","","",""
"null","","html-keyboard-response","427","4226197","0.0-8.0-0.0-2.6","07","<p><img class= 'stimulus' src='images/baseline/foreclosed_home.jpg'></img></p>","null","","1549731393446","","","","","","",""
"null","","html-keyboard-response","428","4226296","0.0-8.0-0.0-3.6","07","<p><img class= 'stimulus' src='images/baseline/landscape12.jpg'></img></p>","null","","1549731393547","","","","","","",""
"null","","html-keyboard-response","429","4226397","0.0-8.0-0.0-4.6","07","<p><img class= 'stimulus' src='images/negative/Bloody knife 2.jpg'></img></p>","null","","1549731393645","4","","","","","",""
"null","","html-keyboard-response","430","4226497","0.0-8.0-0.0-5.6","07","<p><img class= 'stimulus' src='images/baseline/Street 1.jpg'></img></p>","null","","1549731393746","","","","","","",""
"null","","html-keyboard-response","431","4226597","0.0-8.0-0.0-6.6","07","<p><img class= 'stimulus' src='images/baseline/lake3.jpg'></img></p>","null","","1549731393846","6","","","","","",""
"null","","html-keyboard-response","432","4226697","0.0-8.0-0.0-7.6","07","<p><img class= 'stimulus' src='images/baseline/Kocherbaumwald-01.jpg'></img></p>","null","","1549731393945","","","","","","",""
"null","","html-keyboard-response","433","4226798","0.0-8.0-0.0-8.6","07","<p><img class= 'stimulus' src='images/baseline/Aletschgletscher-Eggishorn.jpg'></img></p>","null","","1549731394045","8","","","","","",""
"null","","html-keyboard-response","434","4226898","0.0-8.0-0.0-9.6","07","<p><img class= 'stimulus' src='images/baseline/pexels-photo-459203.jpeg'></img></p>","null","","1549731394146","","","","","","",""
"null","","html-keyboard-response","435","4226997","0.0-8.0-0.0-10.6","07","<p><img class= 'stimulus' src='images/baseline/Niinsaare_jarv.jpg'></img></p>","null","","1549731394245","","","","","","",""
"null","","html-keyboard-response","436","4227097","0.0-8.0-0.0-11.6","07","<p><img class= 'stimulus' src='images/baseline/04098v.jpg'></img></p>","null","","1549731394347","","","","","","",""
"null","","html-keyboard-response","437","4227196","0.0-8.0-0.0-12.6","07","<p><img class= 'stimulus' src='images/target/tree_2.jpg'></img></p>","null","","1549731394445","12","","","","","",""
"null","","html-keyboard-response","438","4227297","0.0-8.0-0.0-13.6","07","<p><img class= 'stimulus' src='images/baseline/Sunset 6.jpg'></img></p>","null","","1549731394546","","","","","","",""
"null","","html-keyboard-response","439","4227397","0.0-8.0-0.0-14.6","07","<p><img class= 'stimulus' src='images/baseline/Lake 3.jpg'></img></p>","null","","1549731394646","14","","","","","",""
"null","","html-keyboard-response","440","4227497","0.0-8.0-0.0-15.6","07","<p><img class= 'stimulus' src='images/baseline/house8.jpg'></img></p>","null","","1549731394745","","","","","","",""
"null","","html-keyboard-response","441","4227597","0.0-8.0-0.0-16.6","07","<p><img class= 'stimulus' src='images/baseline/05264v.jpg'></img></p>","null","","1549731394845","","","","","","",""
"null","","html-keyboard-response","442","4227713","0.0-8.0-0.0-17.6","07","<p><img class= 'stimulus' src='images/baseline/house7.jpg'></img></p>","null","","1549731394945","","","","","","",""
"1013.4000000106171","","html-button-response","443","4229737","0.0-8.0-0.0-18.6","07","<div class = ""response_question"">WAS THE IMAGE ROTATED...</div>","","3","","","4","8","neg","right","test","true"
"909.8999999985099","","html-button-response","444","4230650","0.0-8.0-0.0-0.7","07","","","0","","","","","","","",""
"null","","html-keyboard-response","445","4230730","0.0-8.0-0.0-1.7","07","<p><img class= 'stimulus' src='images/baseline/04158v.jpg'></img></p>","null","","1549731397978","","","","","","",""
"null","","html-keyboard-response","446","4230831","0.0-8.0-0.0-2.7","07","<p><img class= 'stimulus' src='images/baseline/03204v.jpg'></img></p>","null","","1549731398079","","","","","","",""
"null","","html-keyboard-response","447","4230931","0.0-8.0-0.0-3.7","07","<p><img class= 'stimulus' src='images/baseline/04117v.jpg'></img></p>","null","","1549731398179","","","","","","",""
"null","","html-keyboard-response","448","4231030","0.0-8.0-0.0-4.7","07","<p><img class= 'stimulus' src='images/neutral/Picnic 4.jpg'></img></p>","null","","1549731398280","4","","","","","",""
"null","","html-keyboard-response","449","4231131","0.0-8.0-0.0-5.7","07","<p><img class= 'stimulus' src='images/baseline/04130v.jpg'></img></p>","null","","1549731398380","","","","","","",""
"null","","html-keyboard-response","450","4231232","0.0-8.0-0.0-6.7","07","<p><img class= 'stimulus' src='images/baseline/Bahia_Onelli_Parque_Nacional_Los_Glaciares_Patagonia_Argentina_Luca_Galuzzi_2005.jpg'></img></p>","null","","1549731398479","6","","","","","",""
"null","","html-keyboard-response","451","4231330","0.0-8.0-0.0-7.7","07","<p><img class= 'stimulus' src='images/baseline/pexels-photo-280222.jpeg'></img></p>","null","","1549731398580","","","","","","",""
"null","","html-keyboard-response","452","4231432","0.0-8.0-0.0-8.7","07","<p><img class= 'stimulus' src='images/baseline/building5.jpg'></img></p>","null","","1549731398680","8","","","","","",""
"null","","html-keyboard-response","453","4231531","0.0-8.0-0.0-9.7","07","<p><img class= 'stimulus' src='images/baseline/Street 5.jpg'></img></p>","null","","1549731398778","","","","","","",""
"null","","html-keyboard-response","454","4231631","0.0-8.0-0.0-10.7","07","<p><img class= 'stimulus' src='images/baseline/Beach 2.jpg'></img></p>","null","","1549731398880","","","","","","",""
"null","","html-keyboard-response","455","4231731","0.0-8.0-0.0-11.7","07","<p><img class= 'stimulus' src='images/baseline/04193v.jpg'></img></p>","null","","1549731398979","","","","","","",""
"null","","html-keyboard-response","456","4231831","0.0-8.0-0.0-12.7","07","<p><img class= 'stimulus left-rotate' src='images/target/palm-trees-1209125_640.jpg'></img></p>","null","","1549731399079","12","","","","","",""
"null","","html-keyboard-response","457","4231931","0.0-8.0-0.0-13.7","07","<p><img class= 'stimulus' src='images/baseline/road.jpg'></img></p>","null","","1549731399179","","","","","","",""
"null","","html-keyboard-response","458","4232031","0.0-8.0-0.0-14.7","07","<p><img class= 'stimulus' src='images/baseline/Sky 1.jpg'></img></p>","null","","1549731399280","14","","","","","",""
"null","","html-keyboard-response","459","4232130","0.0-8.0-0.0-15.7","07","<p><img class= 'stimulus' src='images/baseline/04063v.jpg'></img></p>","null","","1549731399380","","","","","","",""
"null","","html-keyboard-response","460","4232231","0.0-8.0-0.0-16.7","07","<p><img class= 'stimulus' src='images/baseline/landscape1.jpg'></img></p>","null","","1549731399480","","","","","","",""
"null","","html-keyboard-response","461","4232348","0.0-8.0-0.0-17.7","07","<p><img class= 'stimulus' src='images/baseline/autumn-in-red-rocks-park.jpg'></img></p>","null","","1549731399579","","","","","","",""
"977.1000000042841","","html-button-response","462","4234330","0.0-8.0-0.0-18.7","07","<div class = ""response_question"">WAS THE IMAGE ROTATED...</div>","","0","","","4","8","neu","left","test","true"
"910.300000003539","","html-button-response","463","4235242","0.0-8.0-0.0-0.8","07","","","0","","","","","","","",""
"null","","html-keyboard-response","464","4235314","0.0-8.0-0.0-1.8","07","<p><img class= 'stimulus' src='images/baseline/05139v.jpg'></img></p>","null","","1549731402563","","","","","","",""
"null","","html-keyboard-response","465","4235414","0.0-8.0-0.0-2.8","07","<p><img class= 'stimulus' src='images/baseline/03066v.jpg'></img></p>","null","","1549731402662","","","","","","",""
"null","","html-keyboard-response","466","4235515","0.0-8.0-0.0-3.8","07","<p><img class= 'stimulus' src='images/baseline/hills 3.jpg'></img></p>","null","","1549731402762","","","","","","",""
"null","","html-keyboard-response","467","4235614","0.0-8.0-0.0-4.8","07","<p><img class= 'stimulus' src='images/baseline/99_-_Machu_Picchu_-_Juin_2009.edit3.jpg'></img></p>","null","","1549731402862","4","","","","","",""
"null","","html-keyboard-response","468","4235714","0.0-8.0-0.0-5.8","07","<p><img class= 'stimulus' src='images/baseline/Road 1.jpg'></img></p>","null","","1549731402963","","","","","","",""
"null","","html-keyboard-response","469","4235814","0.0-8.0-0.0-6.8","07","<p><img class= 'stimulus' src='images/baseline/building9.jpg'></img></p>","null","","1549731403062","6","","","","","",""
"null","","html-keyboard-response","470","4235915","0.0-8.0-0.0-7.8","07","<p><img class= 'stimulus' src='images/baseline/landscape2.jpg'></img></p>","null","","1549731403163","","","","","","",""
"null","","html-keyboard-response","471","4236015","0.0-8.0-0.0-8.8","07","<p><img class= 'stimulus' src='images/baseline/seoul-410266_1920.jpg'></img></p>","null","","1549731403263","8","","","","","",""
"null","","html-keyboard-response","472","4236114","0.0-8.0-0.0-9.8","07","<p><img class= 'stimulus' src='images/baseline/Grass 6.jpg'></img></p>","null","","1549731403364","","","","","","",""
"null","","html-keyboard-response","473","4236214","0.0-8.0-0.0-10.8","07","<p><img class= 'stimulus' src='images/baseline/Desert_View_Indian_Wells.jpg'></img></p>","null","","1549731403463","","","","","","",""
"null","","html-keyboard-response","474","4236314","0.0-8.0-0.0-11.8","07","<p><img class= 'stimulus' src='images/baseline/hills 4.jpg'></img></p>","null","","1549731403564","","","","","","",""
"null","","html-keyboard-response","475","4236414","0.0-8.0-0.0-12.8","07","<p><img class= 'stimulus left-rotate' src='images/target/landscape20.jpg'></img></p>","null","","1549731403663","12","","","","","",""
"null","","html-keyboard-response","476","4236514","0.0-8.0-0.0-13.8","07","<p><img class= 'stimulus' src='images/baseline/Lake 7.jpg'></img></p>","null","","1549731403762","","","","","","",""
"null","","html-keyboard-response","477","4236614","0.0-8.0-0.0-14.8","07","<p><img class= 'stimulus' src='images/baseline/04179v.jpg'></img></p>","null","","1549731403862","14","","","","","",""
"null","","html-keyboard-response","478","4236715","0.0-8.0-0.0-15.8","07","<p><img class= 'stimulus' src='images/baseline/landscape31.jpg'></img></p>","null","","1549731403963","","","","","","",""
"null","","html-keyboard-response","479","4236814","0.0-8.0-0.0-16.8","07","<p><img class= 'stimulus' src='images/baseline/Sunset 3.jpg'></img></p>","null","","1549731404063","","","","","","",""
"null","","html-keyboard-response","480","4236931","0.0-8.0-0.0-17.8","07","<p><img class= 'stimulus' src='images/baseline/pexels-photo-1840893.jpeg'></img></p>","null","","1549731404162","","","","","","",""
"3393.1999999918044","","html-button-response","481","4241330","0.0-8.0-0.0-18.8","07","<div class = ""response_question"">WAS THE IMAGE ROTATED...</div>","","5","","","4","8","bas","left","test","false"
"1053.5999999986961","","html-button-response","482","4242387","0.0-8.0-0.0-0.9","07","","","0","","","","","","","",""
"null","","html-keyboard-response","483","4242465","0.0-8.0-0.0-1.9","07","<p><img class= 'stimulus' src='images/baseline/field 2.jpg'></img></p>","null","","1549731409713","","","","","","",""
"null","","html-keyboard-response","484","4242564","0.0-8.0-0.0-2.9","07","<p><img class= 'stimulus' src='images/baseline/05167v.jpg'></img></p>","null","","1549731409813","","","","","","",""
"null","","html-keyboard-response","485","4242664","0.0-8.0-0.0-3.9","07","<p><img class= 'stimulus' src='images/baseline/Linden,_paysage.jpg'></img></p>","null","","1549731409913","","","","","","",""
"null","","html-keyboard-response","486","4242765","0.0-8.0-0.0-4.9","07","<p><img class= 'stimulus' src='images/neutral/person working.jpg'></img></p>","null","","1549731410013","4","","","","","",""
"null","","html-keyboard-response","487","4242865","0.0-8.0-0.0-5.9","07","<p><img class= 'stimulus' src='images/baseline/house11.jpg'></img></p>","null","","1549731410114","","","","","","",""
"null","","html-keyboard-response","488","4242965","0.0-8.0-0.0-6.9","07","<p><img class= 'stimulus' src='images/baseline/Skijump 1.jpg'></img></p>","null","","1549731410212","6","","","","","",""
"null","","html-keyboard-response","489","4243066","0.0-8.0-0.0-7.9","07","<p><img class= 'stimulus' src='images/baseline/05280v.jpg'></img></p>","null","","1549731410313","","","","","","",""
"null","","html-keyboard-response","490","4243165","0.0-8.0-0.0-8.9","07","<p><img class= 'stimulus' src='images/baseline/landscape37.jpg'></img></p>","null","","1549731410413","8","","","","","",""
"null","","html-keyboard-response","491","4243264","0.0-8.0-0.0-9.9","07","<p><img class= 'stimulus' src='images/baseline/04064v.jpg'></img></p>","null","","1549731410513","","","","","","",""
"null","","html-keyboard-response","492","4243365","0.0-8.0-0.0-10.9","07","<p><img class= 'stimulus' src='images/baseline/04201v.jpg'></img></p>","null","","1549731410613","","","","","","",""
"null","","html-keyboard-response","493","4243465","0.0-8.0-0.0-11.9","07","<p><img class= 'stimulus' src='images/baseline/Freudenberg_sg_Switzerland.jpg'></img></p>","null","","1549731410713","","","","","","",""
"null","","html-keyboard-response","494","4243564","0.0-8.0-0.0-12.9","07","<p><img class= 'stimulus' src='images/target/Wild-West-South-West-Usa-Landscape-America-1663497.jpg'></img></p>","null","","1549731410813","12","","","","","",""
"null","","html-keyboard-response","495","4243664","0.0-8.0-0.0-13.9","07","<p><img class= 'stimulus' src='images/baseline/agriculture-countryside-crop-259280.jpg'></img></p>","null","","1549731410913","","","","","","",""
"null","","html-keyboard-response","496","4243764","0.0-8.0-0.0-14.9","07","<p><img class= 'stimulus' src='images/baseline/farmhouse4.jpg'></img></p>","null","","1549731411012","14","","","","","",""
"null","","html-keyboard-response","497","4243865","0.0-8.0-0.0-15.9","07","<p><img class= 'stimulus' src='images/baseline/dirt-road-or-trail-through-park.jpg'></img></p>","null","","1549731411113","","","","","","",""
"null","","html-keyboard-response","498","4243964","0.0-8.0-0.0-16.9","07","<p><img class= 'stimulus' src='images/baseline/Dock 1.jpg'></img></p>","null","","1549731411213","","","","","","",""
"null","","html-keyboard-response","499","4244082","0.0-8.0-0.0-17.9","07","<p><img class= 'stimulus' src='images/baseline/4k-wallpaper-agriculture-clouds-842711.jpg'></img></p>","null","","1549731411312","","","","","","",""
"835.0999999968335","","html-button-response","500","4245922","0.0-8.0-0.0-18.9","07","<div class = ""response_question"">WAS THE IMAGE ROTATED...</div>","","3","","","4","8","neu","right","test","true"
"1038.0999999903142","","html-button-response","501","4246962","0.0-8.0-0.0-0.10","07","","","0","","","","","","","",""
"null","","html-keyboard-response","502","4247047","0.0-8.0-0.0-1.10","07","<p><img class= 'stimulus' src='images/baseline/landscape19.jpg'></img></p>","null","","1549731414297","","","","","","",""
"null","","html-keyboard-response","503","4247148","0.0-8.0-0.0-2.10","07","<p><img class= 'stimulus' src='images/baseline/Lake 16.jpg'></img></p>","null","","1549731414397","","","","","","",""
"null","","html-keyboard-response","504","4247248","0.0-8.0-0.0-3.10","07","<p><img class= 'stimulus' src='images/baseline/landscape8.jpg'></img></p>","null","","1549731414497","","","","","","",""
"null","","html-keyboard-response","505","4247347","0.0-8.0-0.0-4.10","07","<p><img class= 'stimulus' src='images/baseline/Beach 8.jpg'></img></p>","null","","1549731414596","4","","","","","",""
"null","","html-keyboard-response","506","4247447","0.0-8.0-0.0-5.10","07","<p><img class= 'stimulus' src='images/baseline/farmhouse11.jpg'></img></p>","null","","1549731414696","","","","","","",""
"null","","html-keyboard-response","507","4247548","0.0-8.0-0.0-6.10","07","<p><img class= 'stimulus' src='images/neutral/Pig 1.jpg'></img></p>","null","","1549731414796","6","","","","","",""
