"rt","responses","trial_type","trial_index","time_elapsed","internal_node_id","participant_id","stimulus","key_press","button_pressed","stim_onset","sequence_position","distractor_position","target_lag","distractor_type","target_orientation","phase","correct"
"8084.999999991851","{""Q0"":""41""}","survey-text","0","8090","0.0-0.0","41","","","","","","","","","","",""
"1989469.5999999822","","html-keyboard-response","1","1997570","0.0-1.0","41","Welcome to the experiment.","67","","","","","","","","",""
"25663.49999999511","","html-button-response","2","2023240","0.0-2.0","41","<p>Several images will be presented sequentially.        Each image will only be on the screen for about 100 milliseconds.</p>        <p> One of the images may be rotated 90 degrees right or left.        Watch for this image and remember if it is rotated right or left.</p>               <p>Images of people and animals will appear, and sometimes they will be unpleasant.        These will never be the rotated target image.</p>","","0","","","","","","","",""
"2317.6999999850523","","html-button-response","3","2025559","0.0-3.0","41","<p><img class=""stimulus left-rotate"" src=""images/target/9525-a-lonely-single-tree-in-a-field-pv.jpg""></img></p><p>This is an example of an image rotated to the left.</p>","","0","","","","","","","",""
"1710.9000000054948","","html-button-response","4","2027271","0.0-4.0","41","<p><img class=""stimulus"" src=""images/target/fishhouse.jpg""></img></p><p>This is an example of an image rotated to the right.</p>","","0","","","","","","","",""
"10847.199999989243","","html-button-response","5","2038119","0.0-5.0","41","<p>We will now begin a short practice session.</p>         <p>A + symbol will appear in the middle of the screen. Please fix your gaze on the center of the +, and then click the mouse button to begin the image sequence.</p>         <p>Please avoid blinking or eye movements while the images are on the screen.</p>        <p>The image sequence will start relatively slow. After a few sequences, it will speed up.</p>","","0","","","","","","","",""
"43486.699999979464","","html-button-response","6","2081600","0.0-6.0-0.0","41","","","0","","","","","","","",""
"null","","html-keyboard-response","7","2081783","0.0-6.0-1.0","41","<p><img class= 'stimulus' src='images/baseline/lake 1.jpg'></img></p>","null","","1551223502333","","","","","","",""
"null","","html-keyboard-response","8","2081984","0.0-6.0-2.0","41","<p><img class= 'stimulus' src='images/baseline/Sailing 3.jpg'></img></p>","null","","1551223502532","","","","","","",""
"null","","html-keyboard-response","9","2082183","0.0-6.0-3.0","41","<p><img class= 'stimulus' src='images/baseline/landscape11.jpg'></img></p>","null","","1551223502732","","","","","","",""
"null","","html-keyboard-response","10","2082384","0.0-6.0-4.0","41","<p><img class= 'stimulus' src='images/baseline/landscape3.jpg'></img></p>","null","","1551223502933","4","","","","","",""
"null","","html-keyboard-response","11","2082583","0.0-6.0-5.0","41","<p><img class= 'stimulus' src='images/baseline/pexels-photo-351264.jpeg'></img></p>","null","","1551223503132","","","","","","",""
"null","","html-keyboard-response","12","2082783","0.0-6.0-6.0","41","<p><img class= 'stimulus' src='images/target/cactus1.jpg'></img></p>","null","","1551223503332","6","","","","","",""
"null","","html-keyboard-response","13","2082983","0.0-6.0-7.0","41","<p><img class= 'stimulus' src='images/baseline/03075v.jpg'></img></p>","null","","1551223503531","","","","","","",""
"null","","html-keyboard-response","14","2083184","0.0-6.0-8.0","41","<p><img class= 'stimulus' src='images/baseline/02988v.jpg'></img></p>","null","","1551223503731","8","","","","","",""
"null","","html-keyboard-response","15","2083384","0.0-6.0-9.0","41","<p><img class= 'stimulus' src='images/baseline/scenic-mountain-landscape.jpg'></img></p>","null","","1551223503932","","","","","","",""
"null","","html-keyboard-response","16","2083583","0.0-6.0-10.0","41","<p><img class= 'stimulus' src='images/baseline/farmhouse1.jpg'></img></p>","null","","1551223504132","","","","","","",""
"null","","html-keyboard-response","17","2083783","0.0-6.0-11.0","41","<p><img class= 'stimulus' src='images/baseline/landscape38.jpg'></img></p>","null","","1551223504332","","","","","","",""
"null","","html-keyboard-response","18","2083983","0.0-6.0-12.0","41","<p><img class= 'stimulus' src='images/baseline/house3.jpg'></img></p>","null","","1551223504532","12","","","","","",""
"null","","html-keyboard-response","19","2084183","0.0-6.0-13.0","41","<p><img class= 'stimulus' src='images/baseline/seoul-410266_1920.jpg'></img></p>","null","","1551223504732","","","","","","",""
"null","","html-keyboard-response","20","2084383","0.0-6.0-14.0","41","<p><img class= 'stimulus' src='images/baseline/05145v.jpg'></img></p>","null","","1551223504933","14","","","","","",""
"null","","html-keyboard-response","21","2084584","0.0-6.0-15.0","41","<p><img class= 'stimulus' src='images/baseline/04064v.jpg'></img></p>","null","","1551223505132","","","","","","",""
"null","","html-keyboard-response","22","2084783","0.0-6.0-16.0","41","<p><img class= 'stimulus' src='images/baseline/04229v.jpg'></img></p>","null","","1551223505332","","","","","","",""
"null","","html-keyboard-response","23","2085000","0.0-6.0-17.0","41","<p><img class= 'stimulus' src='images/baseline/Street 2.jpg'></img></p>","null","","1551223505533","","","","","","",""
"26850.00000000582","","html-button-response","24","2112856","0.0-6.0-18.0","41","<div class = ""response_question"">WAS THE IMAGE ROTATED...</div>","","1","","","4","2","bas","right","practice","false"
"3485.7999999946915","","html-button-response","25","2116344","0.0-6.0-0.1","41","","","0","","","","","","","",""
"null","","html-keyboard-response","26","2116517","0.0-6.0-1.1","41","<p><img class= 'stimulus' src='images/baseline/landscape29.jpg'></img></p>","null","","1551223537066","","","","","","",""
"null","","html-keyboard-response","27","2116718","0.0-6.0-2.1","41","<p><img class= 'stimulus' src='images/baseline/sunset-over-the-lake.jpg'></img></p>","null","","1551223537266","","","","","","",""
"null","","html-keyboard-response","28","2116918","0.0-6.0-3.1","41","<p><img class= 'stimulus' src='images/baseline/Street 3.jpg'></img></p>","null","","1551223537467","","","","","","",""
"null","","html-keyboard-response","29","2117119","0.0-6.0-4.1","41","<p><img class= 'stimulus' src='images/baseline/04196v.jpg'></img></p>","null","","1551223537666","4","","","","","",""
"null","","html-keyboard-response","30","2117318","0.0-6.0-5.1","41","<p><img class= 'stimulus' src='images/baseline/landscape22.jpg'></img></p>","null","","1551223537866","","","","","","",""
"null","","html-keyboard-response","31","2117518","0.0-6.0-6.1","41","<p><img class= 'stimulus' src='images/baseline/house7.jpg'></img></p>","null","","1551223538066","6","","","","","",""
"null","","html-keyboard-response","32","2117718","0.0-6.0-7.1","41","<p><img class= 'stimulus' src='images/baseline/Lake 14.jpg'></img></p>","null","","1551223538268","","","","","","",""
"null","","html-keyboard-response","33","2117917","0.0-6.0-8.1","41","<p><img class= 'stimulus' src='images/baseline/05252v.jpg'></img></p>","null","","1551223538467","8","","","","","",""
"null","","html-keyboard-response","34","2118118","0.0-6.0-9.1","41","<p><img class= 'stimulus' src='images/baseline/05303v.jpg'></img></p>","null","","1551223538667","","","","","","",""
"null","","html-keyboard-response","35","2118318","0.0-6.0-10.1","41","<p><img class= 'stimulus' src='images/baseline/Paysage_enneige_02.jpg'></img></p>","null","","1551223538866","","","","","","",""
"null","","html-keyboard-response","36","2118518","0.0-6.0-11.1","41","<p><img class= 'stimulus' src='images/baseline/trees 23.jpg'></img></p>","null","","1551223539067","","","","","","",""
"null","","html-keyboard-response","37","2118719","0.0-6.0-12.1","41","<p><img class= 'stimulus' src='images/target/building4.jpg'></img></p>","null","","1551223539267","12","","","","","",""
"null","","html-keyboard-response","38","2118919","0.0-6.0-13.1","41","<p><img class= 'stimulus' src='images/baseline/04098v.jpg'></img></p>","null","","1551223539469","","","","","","",""
"null","","html-keyboard-response","39","2119118","0.0-6.0-14.1","41","<p><img class= 'stimulus' src='images/baseline/landscape7.jpg'></img></p>","null","","1551223539667","14","","","","","",""
"null","","html-keyboard-response","40","2119319","0.0-6.0-15.1","41","<p><img class= 'stimulus' src='images/baseline/04086v.jpg'></img></p>","null","","1551223539867","","","","","","",""
"null","","html-keyboard-response","41","2119518","0.0-6.0-16.1","41","<p><img class= 'stimulus' src='images/baseline/pexels-photo-59321.jpeg'></img></p>","null","","1551223540067","","","","","","",""
"null","","html-keyboard-response","42","2119735","0.0-6.0-17.1","41","<p><img class= 'stimulus' src='images/baseline/04162v.jpg'></img></p>","null","","1551223540268","","","","","","",""
"9603.399999992456","","html-button-response","43","2130345","0.0-6.0-18.1","41","<div class = ""response_question"">WAS THE IMAGE ROTATED...</div>","","0","","","4","8","bas","right","practice","false"
"20110.60000001453","","html-button-response","44","2150450","0.0-6.0-0.2","41","","","0","","","","","","","",""
"null","","html-keyboard-response","45","2150628","0.0-6.0-1.2","41","<p><img class= 'stimulus' src='images/baseline/Desert_View_Indian_Wells.jpg'></img></p>","null","","1551223571178","","","","","","",""
"null","","html-keyboard-response","46","2150828","0.0-6.0-2.2","41","<p><img class= 'stimulus' src='images/baseline/city-silhouette-at-sunset-871291580819Esw.jpg'></img></p>","null","","1551223571377","","","","","","",""
"null","","html-keyboard-response","47","2151030","0.0-6.0-3.2","41","<p><img class= 'stimulus' src='images/baseline/04158v.jpg'></img></p>","null","","1551223571577","","","","","","",""
"null","","html-keyboard-response","48","2151230","0.0-6.0-4.2","41","<p><img class= 'stimulus' src='images/baseline/Sky 1.jpg'></img></p>","null","","1551223571777","4","","","","","",""
"null","","html-keyboard-response","49","2151431","0.0-6.0-5.2","41","<p><img class= 'stimulus' src='images/baseline/landscape13.jpg'></img></p>","null","","1551223571978","","","","","","",""
"null","","html-keyboard-response","50","2151630","0.0-6.0-6.2","41","<p><img class= 'stimulus left-rotate' src='images/target/lone-tree-1934897_640.jpg'></img></p>","null","","1551223572178","6","","","","","",""
"null","","html-keyboard-response","51","2151829","0.0-6.0-7.2","41","<p><img class= 'stimulus' src='images/baseline/vintage-art-deco-storefront.jpg'></img></p>","null","","1551223572378","","","","","","",""
"null","","html-keyboard-response","52","2152030","0.0-6.0-8.2","41","<p><img class= 'stimulus' src='images/baseline/Nature 2.jpg'></img></p>","null","","1551223572579","8","","","","","",""
"null","","html-keyboard-response","53","2152230","0.0-6.0-9.2","41","<p><img class= 'stimulus' src='images/baseline/house2.jpg'></img></p>","null","","1551223572780","","","","","","",""
"null","","html-keyboard-response","54","2152430","0.0-6.0-10.2","41","<p><img class= 'stimulus' src='images/baseline/05131v.jpg'></img></p>","null","","1551223572978","","","","","","",""
"null","","html-keyboard-response","55","2152629","0.0-6.0-11.2","41","<p><img class= 'stimulus' src='images/baseline/99_-_Machu_Picchu_-_Juin_2009.edit3.jpg'></img></p>","null","","1551223573178","","","","","","",""
"null","","html-keyboard-response","56","2152829","0.0-6.0-12.2","41","<p><img class= 'stimulus' src='images/baseline/04284v.jpg'></img></p>","null","","1551223573378","12","","","","","",""
"null","","html-keyboard-response","57","2153030","0.0-6.0-13.2","41","<p><img class= 'stimulus' src='images/baseline/05158v.jpg'></img></p>","null","","1551223573578","","","","","","",""
"null","","html-keyboard-response","58","2153229","0.0-6.0-14.2","41","<p><img class= 'stimulus' src='images/baseline/pexels-photo-808465.jpeg'></img></p>","null","","1551223573779","14","","","","","",""
"null","","html-keyboard-response","59","2153429","0.0-6.0-15.2","41","<p><img class= 'stimulus' src='images/baseline/river 1.jpg'></img></p>","null","","1551223573978","","","","","","",""
"null","","html-keyboard-response","60","2153629","0.0-6.0-16.2","41","<p><img class= 'stimulus' src='images/baseline/4k-wallpaper-agriculture-clouds-842711.jpg'></img></p>","null","","1551223574177","","","","","","",""
"null","","html-keyboard-response","61","2153846","0.0-6.0-17.2","41","<p><img class= 'stimulus' src='images/baseline/hills 3.jpg'></img></p>","null","","1551223574378","","","","","","",""
"6175.300000002608","","html-button-response","62","2161034","0.0-6.0-18.2","41","<div class = ""response_question"">WAS THE IMAGE ROTATED...</div>","","0","","","4","2","bas","left","practice","true"
"2078.800000017509","","html-button-response","63","2163113","0.0-6.0-0.3","41","","","0","","","","","","","",""
"null","","html-keyboard-response","64","2163295","0.0-6.0-1.3","41","<p><img class= 'stimulus' src='images/baseline/Lake 7.jpg'></img></p>","null","","1551223583845","","","","","","",""
"null","","html-keyboard-response","65","2163496","0.0-6.0-2.3","41","<p><img class= 'stimulus' src='images/baseline/farmhouse8.jpg'></img></p>","null","","1551223584044","","","","","","",""
"null","","html-keyboard-response","66","2163696","0.0-6.0-3.3","41","<p><img class= 'stimulus' src='images/baseline/agriculture-countryside-crop-259280.jpg'></img></p>","null","","1551223584244","","","","","","",""
"null","","html-keyboard-response","67","2163895","0.0-6.0-4.3","41","<p><img class= 'stimulus' src='images/baseline/grand-teton-mountains.jpg'></img></p>","null","","1551223584444","4","","","","","",""
"null","","html-keyboard-response","68","2164096","0.0-6.0-5.3","41","<p><img class= 'stimulus' src='images/baseline/horse_statue.jpg'></img></p>","null","","1551223584644","","","","","","",""
"null","","html-keyboard-response","69","2164296","0.0-6.0-6.3","41","<p><img class= 'stimulus' src='images/baseline/red-rocks-park.jpg'></img></p>","null","","1551223584844","6","","","","","",""
"null","","html-keyboard-response","70","2164496","0.0-6.0-7.3","41","<p><img class= 'stimulus' src='images/baseline/03201v.jpg'></img></p>","null","","1551223585044","","","","","","",""
"null","","html-keyboard-response","71","2164696","0.0-6.0-8.3","41","<p><img class= 'stimulus' src='images/baseline/pexels-photo-894312.jpeg'></img></p>","null","","1551223585245","8","","","","","",""
"null","","html-keyboard-response","72","2164896","0.0-6.0-9.3","41","<p><img class= 'stimulus' src='images/baseline/farmhouse3.jpg'></img></p>","null","","1551223585444","","","","","","",""
"null","","html-keyboard-response","73","2165097","0.0-6.0-10.3","41","<p><img class= 'stimulus' src='images/baseline/house8.jpg'></img></p>","null","","1551223585644","","","","","","",""
"null","","html-keyboard-response","74","2165298","0.0-6.0-11.3","41","<p><img class= 'stimulus' src='images/baseline/house11.jpg'></img></p>","null","","1551223585846","","","","","","",""
"null","","html-keyboard-response","75","2165498","0.0-6.0-12.3","41","<p><img class= 'stimulus' src='images/baseline/farmhouse4.jpg'></img></p>","null","","1551223586046","12","","","","","",""
"null","","html-keyboard-response","76","2165697","0.0-6.0-13.3","41","<p><img class= 'stimulus' src='images/baseline/Street 5.jpg'></img></p>","null","","1551223586246","","","","","","",""
"null","","html-keyboard-response","77","2165897","0.0-6.0-14.3","41","<p><img class= 'stimulus left-rotate' src='images/target/pexels-photo-1534411.jpeg'></img></p>","null","","1551223586445","14","","","","","",""
"null","","html-keyboard-response","78","2166097","0.0-6.0-15.3","41","<p><img class= 'stimulus' src='images/baseline/church-silhouette-8712964986014Kb.jpg'></img></p>","null","","1551223586645","","","","","","",""
"null","","html-keyboard-response","79","2166297","0.0-6.0-16.3","41","<p><img class= 'stimulus' src='images/baseline/05139v.jpg'></img></p>","null","","1551223586846","","","","","","",""
"null","","html-keyboard-response","80","2166513","0.0-6.0-17.3","41","<p><img class= 'stimulus' src='images/baseline/02960v.jpg'></img></p>","null","","1551223587045","","","","","","",""
"3202.600000018254","","html-button-response","81","2170721","0.0-6.0-18.3","41","<div class = ""response_question"">WAS THE IMAGE ROTATED...</div>","","0","","","6","8","bas","left","practice","true"
"1446.4999999911524","","html-button-response","82","2172169","0.0-6.0-0.4","41","","","0","","","","","","","",""
"null","","html-keyboard-response","83","2172299","0.0-6.0-1.4","41","<p><img class= 'stimulus' src='images/baseline/house10.jpg'></img></p>","null","","1551223592895","","","","","","",""
"null","","html-keyboard-response","84","2172446","0.0-6.0-2.4","41","<p><img class= 'stimulus' src='images/baseline/building6.jpg'></img></p>","null","","1551223593046","","","","","","",""
"null","","html-keyboard-response","85","2172597","0.0-6.0-3.4","41","<p><img class= 'stimulus' src='images/baseline/05179v.jpg'></img></p>","null","","1551223593195","","","","","","",""
"null","","html-keyboard-response","86","2172746","0.0-6.0-4.4","41","<p><img class= 'stimulus' src='images/baseline/town-square-in-wroclaw-1539098440MZy.jpg'></img></p>","null","","1551223593344","4","","","","","",""
"null","","html-keyboard-response","87","2172897","0.0-6.0-5.4","41","<p><img class= 'stimulus' src='images/baseline/building3.jpg'></img></p>","null","","1551223593494","","","","","","",""
"null","","html-keyboard-response","88","2173045","0.0-6.0-6.4","41","<p><img class= 'stimulus' src='images/baseline/Lake 15.jpg'></img></p>","null","","1551223593645","6","","","","","",""
"null","","html-keyboard-response","89","2173196","0.0-6.0-7.4","41","<p><img class= 'stimulus' src='images/baseline/building9.jpg'></img></p>","null","","1551223593794","","","","","","",""
"null","","html-keyboard-response","90","2173346","0.0-6.0-8.4","41","<p><img class= 'stimulus' src='images/baseline/03066v.jpg'></img></p>","null","","1551223593943","8","","","","","",""
"null","","html-keyboard-response","91","2173497","0.0-6.0-9.4","41","<p><img class= 'stimulus' src='images/baseline/03212v.jpg'></img></p>","null","","1551223594094","","","","","","",""
"null","","html-keyboard-response","92","2173646","0.0-6.0-10.4","41","<p><img class= 'stimulus' src='images/baseline/Lake 4.jpg'></img></p>","null","","1551223594245","","","","","","",""
"null","","html-keyboard-response","93","2173796","0.0-6.0-11.4","41","<p><img class= 'stimulus' src='images/baseline/pexels-photo-1837621.jpeg'></img></p>","null","","1551223594396","","","","","","",""
"null","","html-keyboard-response","94","2173946","0.0-6.0-12.4","41","<p><img class= 'stimulus left-rotate' src='images/target/transamerica-pyramid-530061_640.jpg'></img></p>","null","","1551223594545","12","","","","","",""
"null","","html-keyboard-response","95","2174096","0.0-6.0-13.4","41","<p><img class= 'stimulus' src='images/baseline/Sidewalk 4.jpg'></img></p>","null","","1551223594694","","","","","","",""
"null","","html-keyboard-response","96","2174246","0.0-6.0-14.4","41","<p><img class= 'stimulus' src='images/baseline/05167v.jpg'></img></p>","null","","1551223594844","14","","","","","",""
"null","","html-keyboard-response","97","2174395","0.0-6.0-15.4","41","<p><img class= 'stimulus' src='images/baseline/hills 1.jpg'></img></p>","null","","1551223594995","","","","","","",""
"null","","html-keyboard-response","98","2174547","0.0-6.0-16.4","41","<p><img class= 'stimulus' src='images/baseline/road 1(1).jpg'></img></p>","null","","1551223595145","","","","","","",""
"null","","html-keyboard-response","99","2174713","0.0-6.0-17.4","41","<p><img class= 'stimulus' src='images/baseline/landscape39.jpg'></img></p>","null","","1551223595294","","","","","","",""
"1932.2000000099652","","html-button-response","100","2177649","0.0-6.0-18.4","41","<div class = ""response_question"">WAS THE IMAGE ROTATED...</div>","","1","","","4","8","bas","left","practice","true"
"1574.4000000124797","","html-button-response","101","2179225","0.0-6.0-0.5","41","","","0","","","","","","","",""
"null","","html-keyboard-response","102","2179361","0.0-6.0-1.5","41","<p><img class= 'stimulus' src='images/baseline/pexels-photo-1054289.jpeg'></img></p>","null","","1551223599961","","","","","","",""
"null","","html-keyboard-response","103","2179511","0.0-6.0-2.5","41","<p><img class= 'stimulus' src='images/baseline/Bahia_Onelli_Parque_Nacional_Los_Glaciares_Patagonia_Argentina_Luca_Galuzzi_2005.jpg'></img></p>","null","","1551223600111","","","","","","",""
"null","","html-keyboard-response","104","2179662","0.0-6.0-3.5","41","<p><img class= 'stimulus' src='images/baseline/sun-through-winter-tree-branches1.jpg'></img></p>","null","","1551223600260","","","","","","",""
"null","","html-keyboard-response","105","2179812","0.0-6.0-4.5","41","<p><img class= 'stimulus' src='images/baseline/landscape2.jpg'></img></p>","null","","1551223600410","4","","","","","",""
"null","","html-keyboard-response","106","2179962","0.0-6.0-5.5","41","<p><img class= 'stimulus' src='images/baseline/geese-flying-over-lake-at-dusk.jpg'></img></p>","null","","1551223600561","","","","","","",""
"null","","html-keyboard-response","107","2180111","0.0-6.0-6.5","41","<p><img class= 'stimulus' src='images/baseline/Kocherbaumwald-01.jpg'></img></p>","null","","1551223600710","6","","","","","",""
"null","","html-keyboard-response","108","2180261","0.0-6.0-7.5","41","<p><img class= 'stimulus' src='images/baseline/05255v.jpg'></img></p>","null","","1551223600861","","","","","","",""
"null","","html-keyboard-response","109","2180412","0.0-6.0-8.5","41","<p><img class= 'stimulus' src='images/target/landscape3.jpg'></img></p>","null","","1551223601010","8","","","","","",""
"null","","html-keyboard-response","110","2180562","0.0-6.0-9.5","41","<p><img class= 'stimulus' src='images/baseline/dirt-road-or-trail-through-park.jpg'></img></p>","null","","1551223601159","","","","","","",""
"null","","html-keyboard-response","111","2180712","0.0-6.0-10.5","41","<p><img class= 'stimulus' src='images/baseline/Beach 3.jpg'></img></p>","null","","1551223601310","","","","","","",""
"null","","html-keyboard-response","112","2180861","0.0-6.0-11.5","41","<p><img class= 'stimulus' src='images/baseline/pexels-photo-1261728.jpeg'></img></p>","null","","1551223601460","","","","","","",""
"null","","html-keyboard-response","113","2181012","0.0-6.0-12.5","41","<p><img class= 'stimulus' src='images/baseline/Lake 5.jpg'></img></p>","null","","1551223601611","12","","","","","",""
"null","","html-keyboard-response","114","2181161","0.0-6.0-13.5","41","<p><img class= 'stimulus' src='images/baseline/landscape4.jpg'></img></p>","null","","1551223601760","","","","","","",""
"null","","html-keyboard-response","115","2181311","0.0-6.0-14.5","41","<p><img class= 'stimulus' src='images/baseline/building4.jpg'></img></p>","null","","1551223601910","14","","","","","",""
"null","","html-keyboard-response","116","2181462","0.0-6.0-15.5","41","<p><img class= 'stimulus' src='images/baseline/05203v.jpg'></img></p>","null","","1551223602061","","","","","","",""
"null","","html-keyboard-response","117","2181611","0.0-6.0-16.5","41","<p><img class= 'stimulus' src='images/baseline/lake3.jpg'></img></p>","null","","1551223602210","","","","","","",""
"null","","html-keyboard-response","118","2181778","0.0-6.0-17.5","41","<p><img class= 'stimulus' src='images/baseline/Dock 1.jpg'></img></p>","null","","1551223602360","","","","","","",""
"1290.2999999932945","","html-button-response","119","2184074","0.0-6.0-18.5","41","<div class = ""response_question"">WAS THE IMAGE ROTATED...</div>","","3","","","6","2","bas","right","practice","true"
"1534.4000000040978","","html-button-response","120","2185609","0.0-6.0-0.6","41","","","0","","","","","","","",""
"null","","html-keyboard-response","121","2185744","0.0-6.0-1.6","41","<p><img class= 'stimulus' src='images/baseline/05242v.jpg'></img></p>","null","","1551223606342","","","","","","",""
"null","","html-keyboard-response","122","2185894","0.0-6.0-2.6","41","<p><img class= 'stimulus' src='images/baseline/landscape19.jpg'></img></p>","null","","1551223606492","","","","","","",""
"null","","html-keyboard-response","123","2186045","0.0-6.0-3.6","41","<p><img class= 'stimulus' src='images/baseline/farmhouse11.jpg'></img></p>","null","","1551223606643","","","","","","",""
"null","","html-keyboard-response","124","2186195","0.0-6.0-4.6","41","<p><img class= 'stimulus' src='images/baseline/05292v.jpg'></img></p>","null","","1551223606793","4","","","","","",""
"null","","html-keyboard-response","125","2186344","0.0-6.0-5.6","41","<p><img class= 'stimulus' src='images/baseline/field 4.jpg'></img></p>","null","","1551223606944","","","","","","",""
"null","","html-keyboard-response","126","2186494","0.0-6.0-6.6","41","<p><img class= 'stimulus' src='images/baseline/Linden,_paysage.jpg'></img></p>","null","","1551223607094","6","","","","","",""
"null","","html-keyboard-response","127","2186644","0.0-6.0-7.6","41","<p><img class= 'stimulus' src='images/baseline/05264v.jpg'></img></p>","null","","1551223607243","","","","","","",""
"null","","html-keyboard-response","128","2186795","0.0-6.0-8.6","41","<p><img class= 'stimulus left-rotate' src='images/target/tree.jpeg'></img></p>","null","","1551223607393","8","","","","","",""
"null","","html-keyboard-response","129","2186944","0.0-6.0-9.6","41","<p><img class= 'stimulus' src='images/baseline/04130v.jpg'></img></p>","null","","1551223607544","","","","","","",""
"null","","html-keyboard-response","130","2187095","0.0-6.0-10.6","41","<p><img class= 'stimulus' src='images/baseline/farmhouse2.jpg'></img></p>","null","","1551223607694","","","","","","",""
"null","","html-keyboard-response","131","2187245","0.0-6.0-11.6","41","<p><img class= 'stimulus' src='images/baseline/pexels-photo-750108.jpeg'></img></p>","null","","1551223607843","","","","","","",""
"null","","html-keyboard-response","132","2187395","0.0-6.0-12.6","41","<p><img class= 'stimulus' src='images/baseline/red rocks from afar.jpg'></img></p>","null","","1551223607994","12","","","","","",""
"null","","html-keyboard-response","133","2187544","0.0-6.0-13.6","41","<p><img class= 'stimulus' src='images/baseline/03220v.jpg'></img></p>","null","","1551223608145","","","","","","",""
"null","","html-keyboard-response","134","2187694","0.0-6.0-14.6","41","<p><img class= 'stimulus' src='images/baseline/house1.jpg'></img></p>","null","","1551223608293","14","","","","","",""
"null","","html-keyboard-response","135","2187845","0.0-6.0-15.6","41","<p><img class= 'stimulus' src='images/baseline/tennis-court-net-buried-in-snow.jpg'></img></p>","null","","1551223608443","","","","","","",""
"null","","html-keyboard-response","136","2187995","0.0-6.0-16.6","41","<p><img class= 'stimulus' src='images/baseline/landscape33.jpg'></img></p>","null","","1551223608594","","","","","","",""
"null","","html-keyboard-response","137","2188162","0.0-6.0-17.6","41","<p><img class= 'stimulus' src='images/baseline/04062v.jpg'></img></p>","null","","1551223608742","","","","","","",""
"3068.200000008568","","html-button-response","138","2192234","0.0-6.0-18.6","41","<div class = ""response_question"">WAS THE IMAGE ROTATED...</div>","","2","","","6","2","bas","left","practice","false"
"1054.3999999933876","","html-button-response","139","2193289","0.0-6.0-0.7","41","","","0","","","","","","","",""
"null","","html-keyboard-response","140","2193412","0.0-6.0-1.7","41","<p><img class= 'stimulus' src='images/baseline/pexels-photo-221125.jpeg'></img></p>","null","","1551223614009","","","","","","",""
"null","","html-keyboard-response","141","2193561","0.0-6.0-2.7","41","<p><img class= 'stimulus' src='images/baseline/hiking-trail.jpg'></img></p>","null","","1551223614160","","","","","","",""
"null","","html-keyboard-response","142","2193712","0.0-6.0-3.7","41","<p><img class= 'stimulus' src='images/baseline/agriculture-cereal-clouds-175389.jpg'></img></p>","null","","1551223614309","","","","","","",""
"null","","html-keyboard-response","143","2193861","0.0-6.0-4.7","41","<p><img class= 'stimulus' src='images/baseline/04031v.jpg'></img></p>","null","","1551223614460","4","","","","","",""
"null","","html-keyboard-response","144","2194011","0.0-6.0-5.7","41","<p><img class= 'stimulus' src='images/baseline/03098v.jpg'></img></p>","null","","1551223614610","","","","","","",""
"null","","html-keyboard-response","145","2194162","0.0-6.0-6.7","41","<p><img class= 'stimulus' src='images/baseline/agriculture-bright-clouds-440731.jpg'></img></p>","null","","1551223614761","6","","","","","",""
"null","","html-keyboard-response","146","2194312","0.0-6.0-7.7","41","<p><img class= 'stimulus' src='images/baseline/Aletschgletscher-Eggishorn.jpg'></img></p>","null","","1551223614910","","","","","","",""
"null","","html-keyboard-response","147","2194462","0.0-6.0-8.7","41","<p><img class= 'stimulus' src='images/baseline/03217v.jpg'></img></p>","null","","1551223615060","8","","","","","",""
"null","","html-keyboard-response","148","2194611","0.0-6.0-9.7","41","<p><img class= 'stimulus' src='images/baseline/field 3.jpg'></img></p>","null","","1551223615210","","","","","","",""
"null","","html-keyboard-response","149","2194761","0.0-6.0-10.7","41","<p><img class= 'stimulus' src='images/baseline/Peyto_Lake-Banff_NP-Canada.jpg'></img></p>","null","","1551223615361","","","","","","",""
"null","","html-keyboard-response","150","2194912","0.0-6.0-11.7","41","<p><img class= 'stimulus' src='images/baseline/Skyscraper 1.jpg'></img></p>","null","","1551223615510","","","","","","",""
"null","","html-keyboard-response","151","2195061","0.0-6.0-12.7","41","<p><img class= 'stimulus' src='images/baseline/landscape23.jpg'></img></p>","null","","1551223615661","12","","","","","",""
"null","","html-keyboard-response","152","2195211","0.0-6.0-13.7","41","<p><img class= 'stimulus' src='images/baseline/Sunset 4.jpg'></img></p>","null","","1551223615809","","","","","","",""
"null","","html-keyboard-response","153","2195362","0.0-6.0-14.7","41","<p><img class= 'stimulus' src='images/target/9525-a-lonely-single-tree-in-a-field-pv.jpg'></img></p>","null","","1551223615960","14","","","","","",""
"null","","html-keyboard-response","154","2195511","0.0-6.0-15.7","41","<p><img class= 'stimulus' src='images/baseline/pexels-photo-259280.jpeg'></img></p>","null","","1551223616111","","","","","","",""
"null","","html-keyboard-response","155","2195662","0.0-6.0-16.7","41","<p><img class= 'stimulus' src='images/baseline/valley 1.jpg'></img></p>","null","","1551223616260","","","","","","",""
"null","","html-keyboard-response","156","2195828","0.0-6.0-17.7","41","<p><img class= 'stimulus' src='images/baseline/cranes 1.jpg'></img></p>","null","","1551223616410","","","","","","",""
"2688.0000000242144","","html-button-response","157","2199522","0.0-6.0-18.7","41","<div class = ""response_question"">WAS THE IMAGE ROTATED...</div>","","3","","","6","8","bas","right","practice","true"
"1070.2999999923632","","html-button-response","158","2200594","0.0-6.0-0.8","41","","","0","","","","","","","",""
"null","","html-keyboard-response","159","2200677","0.0-6.0-1.8","41","<p><img class= 'stimulus' src='images/baseline/02977v.jpg'></img></p>","null","","1551223621328","","","","","","",""
"null","","html-keyboard-response","160","2200778","0.0-6.0-2.8","41","<p><img class= 'stimulus' src='images/baseline/building2.jpg'></img></p>","null","","1551223621427","","","","","","",""
"null","","html-keyboard-response","161","2200877","0.0-6.0-3.8","41","<p><img class= 'stimulus' src='images/baseline/Street 1.jpg'></img></p>","null","","1551223621528","","","","","","",""
"null","","html-keyboard-response","162","2200978","0.0-6.0-4.8","41","<p><img class= 'stimulus' src='images/baseline/sunny-landscape-with-dry-brush-and-mountain-background.jpg'></img></p>","null","","1551223621627","4","","","","","",""
"null","","html-keyboard-response","163","2201078","0.0-6.0-5.8","41","<p><img class= 'stimulus' src='images/baseline/pexels-photo-280222.jpeg'></img></p>","null","","1551223621726","","","","","","",""
"null","","html-keyboard-response","164","2201178","0.0-6.0-6.8","41","<p><img class= 'stimulus' src='images/baseline/pexels-photo-210617.jpeg'></img></p>","null","","1551223621826","6","","","","","",""
"null","","html-keyboard-response","165","2201278","0.0-6.0-7.8","41","<p><img class= 'stimulus' src='images/baseline/Lake 9.jpg'></img></p>","null","","1551223621926","","","","","","",""
"null","","html-keyboard-response","166","2201378","0.0-6.0-8.8","41","<p><img class= 'stimulus' src='images/baseline/pexels-photo-1048039.jpeg'></img></p>","null","","1551223622027","8","","","","","",""
"null","","html-keyboard-response","167","2201478","0.0-6.0-9.8","41","<p><img class= 'stimulus' src='images/baseline/architecture-1314416_1920.jpg'></img></p>","null","","1551223622127","","","","","","",""
"null","","html-keyboard-response","168","2201579","0.0-6.0-10.8","41","<p><img class= 'stimulus' src='images/baseline/landscape17.jpg'></img></p>","null","","1551223622227","","","","","","",""
"null","","html-keyboard-response","169","2201679","0.0-6.0-11.8","41","<p><img class= 'stimulus' src='images/baseline/landscape16.jpg'></img></p>","null","","1551223622327","","","","","","",""
"null","","html-keyboard-response","170","2201778","0.0-6.0-12.8","41","<p><img class= 'stimulus' src='images/baseline/04117v.jpg'></img></p>","null","","1551223622427","12","","","","","",""
"null","","html-keyboard-response","171","2201878","0.0-6.0-13.8","41","<p><img class= 'stimulus' src='images/baseline/02945v.jpg'></img></p>","null","","1551223622527","","","","","","",""
"null","","html-keyboard-response","172","2201977","0.0-6.0-14.8","41","<p><img class= 'stimulus left-rotate' src='images/target/buildin.png'></img></p>","null","","1551223622627","14","","","","","",""
"null","","html-keyboard-response","173","2202077","0.0-6.0-15.8","41","<p><img class= 'stimulus' src='images/baseline/Grass 6.jpg'></img></p>","null","","1551223622726","","","","","","",""
"null","","html-keyboard-response","174","2202178","0.0-6.0-16.8","41","<p><img class= 'stimulus' src='images/baseline/Path 1.jpg'></img></p>","null","","1551223622827","","","","","","",""
"null","","html-keyboard-response","175","2202295","0.0-6.0-17.8","41","<p><img class= 'stimulus' src='images/baseline/farmhouse6.jpg'></img></p>","null","","1551223622927","","","","","","",""
"1549.5999999986961","","html-button-response","176","2204849","0.0-6.0-18.8","41","<div class = ""response_question"">WAS THE IMAGE ROTATED...</div>","","5","","","6","8","bas","left","practice","false"
"1430.2000000025146","","html-button-response","177","2206282","0.0-6.0-0.9","41","","","0","","","","","","","",""
"null","","html-keyboard-response","178","2206363","0.0-6.0-1.9","41","<p><img class= 'stimulus' src='images/baseline/Paysage_karabagh_02.jpg'></img></p>","null","","1551223627010","","","","","","",""
"null","","html-keyboard-response","179","2206462","0.0-6.0-2.9","41","<p><img class= 'stimulus' src='images/baseline/Street 4.jpg'></img></p>","null","","1551223627110","","","","","","",""
"null","","html-keyboard-response","180","2206562","0.0-6.0-3.9","41","<p><img class= 'stimulus' src='images/baseline/Dirt 2.jpg'></img></p>","null","","1551223627210","","","","","","",""
"null","","html-keyboard-response","181","2206661","0.0-6.0-4.9","41","<p><img class= 'stimulus' src='images/baseline/flooded-bridge.jpg'></img></p>","null","","1551223627310","4","","","","","",""
"null","","html-keyboard-response","182","2206761","0.0-6.0-5.9","41","<p><img class= 'stimulus' src='images/baseline/04040v.jpg'></img></p>","null","","1551223627411","","","","","","",""
"null","","html-keyboard-response","183","2206862","0.0-6.0-6.9","41","<p><img class= 'stimulus' src='images/target/specphotops-563427-unsplash.jpg'></img></p>","null","","1551223627511","6","","","","","",""
"null","","html-keyboard-response","184","2206961","0.0-6.0-7.9","41","<p><img class= 'stimulus' src='images/baseline/03148v.jpg'></img></p>","null","","1551223627610","","","","","","",""
"null","","html-keyboard-response","185","2207061","0.0-6.0-8.9","41","<p><img class= 'stimulus' src='images/baseline/autumn-landscape-with-lake-fall-trees-mountains.jpg'></img></p>","null","","1551223627710","8","","","","","",""
"null","","html-keyboard-response","186","2207161","0.0-6.0-9.9","41","<p><img class= 'stimulus' src='images/baseline/Bridge 1.jpg'></img></p>","null","","1551223627811","","","","","","",""
"null","","html-keyboard-response","187","2207262","0.0-6.0-10.9","41","<p><img class= 'stimulus' src='images/baseline/field 2.jpg'></img></p>","null","","1551223627911","","","","","","",""
"null","","html-keyboard-response","188","2207362","0.0-6.0-11.9","41","<p><img class= 'stimulus' src='images/baseline/lookout_tower.jpg'></img></p>","null","","1551223628010","","","","","","",""
"null","","html-keyboard-response","189","2207461","0.0-6.0-12.9","41","<p><img class= 'stimulus' src='images/baseline/pexels-photo-414491.jpeg'></img></p>","null","","1551223628110","12","","","","","",""
"null","","html-keyboard-response","190","2207561","0.0-6.0-13.9","41","<p><img class= 'stimulus' src='images/baseline/02971v.jpg'></img></p>","null","","1551223628211","","","","","","",""
"null","","html-keyboard-response","191","2207662","0.0-6.0-14.9","41","<p><img class= 'stimulus' src='images/baseline/landscape31.jpg'></img></p>","null","","1551223628310","14","","","","","",""
"null","","html-keyboard-response","192","2207762","0.0-6.0-15.9","41","<p><img class= 'stimulus' src='images/baseline/04222v.jpg'></img></p>","null","","1551223628410","","","","","","",""
"null","","html-keyboard-response","193","2207861","0.0-6.0-16.9","41","<p><img class= 'stimulus' src='images/baseline/landscape37.jpg'></img></p>","null","","1551223628510","","","","","","",""
"null","","html-keyboard-response","194","2207978","0.0-6.0-17.9","41","<p><img class= 'stimulus' src='images/baseline/cyrillic.jpg'></img></p>","null","","1551223628610","","","","","","",""
"3120.2999999807216","","html-button-response","195","2212118","0.0-6.0-18.9","41","<div class = ""response_question"">WAS THE IMAGE ROTATED...</div>","","4","","","4","2","bas","right","practice","true"
"1254.3000000002794","","html-button-response","196","2213374","0.0-6.0-0.10","41","","","0","","","","","","","",""
"null","","html-keyboard-response","197","2213457","0.0-6.0-1.10","41","<p><img class= 'stimulus' src='images/baseline/valley 2.jpg'></img></p>","null","","1551223634106","","","","","","",""
"null","","html-keyboard-response","198","2213556","0.0-6.0-2.10","41","<p><img class= 'stimulus' src='images/baseline/Lake 16.jpg'></img></p>","null","","1551223634205","","","","","","",""
"null","","html-keyboard-response","199","2213657","0.0-6.0-3.10","41","<p><img class= 'stimulus' src='images/baseline/05240v.jpg'></img></p>","null","","1551223634306","","","","","","",""
"null","","html-keyboard-response","200","2213757","0.0-6.0-4.10","41","<p><img class= 'stimulus' src='images/baseline/building12.jpg'></img></p>","null","","1551223634405","4","","","","","",""
"null","","html-keyboard-response","201","2213857","0.0-6.0-5.10","41","<p><img class= 'stimulus' src='images/baseline/Sunset 3.jpg'></img></p>","null","","1551223634506","","","","","","",""
"null","","html-keyboard-response","202","2213958","0.0-6.0-6.10","41","<p><img class= 'stimulus' src='images/baseline/04063v.jpg'></img></p>","null","","1551223634606","6","","","","","",""
"null","","html-keyboard-response","203","2214058","0.0-6.0-7.10","41","<p><img class= 'stimulus' src='images/baseline/architecture-956332_1280.jpg'></img></p>","null","","1551223634705","","","","","","",""
"null","","html-keyboard-response","204","2214157","0.0-6.0-8.10","41","<p><img class= 'stimulus' src='images/baseline/Lake 13.jpg'></img></p>","null","","1551223634805","8","","","","","",""
"null","","html-keyboard-response","205","2214257","0.0-6.0-9.10","41","<p><img class= 'stimulus' src='images/baseline/05247v.jpg'></img></p>","null","","1551223634906","","","","","","",""
"null","","html-keyboard-response","206","2214357","0.0-6.0-10.10","41","<p><img class= 'stimulus' src='images/baseline/building5.jpg'></img></p>","null","","1551223635006","","","","","","",""
"null","","html-keyboard-response","207","2214457","0.0-6.0-11.10","41","<p><img class= 'stimulus' src='images/baseline/building16.jpg'></img></p>","null","","1551223635106","","","","","","",""
"null","","html-keyboard-response","208","2214557","0.0-6.0-12.10","41","<p><img class= 'stimulus left-rotate' src='images/target/building5.jpg'></img></p>","null","","1551223635205","12","","","","","",""
"null","","html-keyboard-response","209","2214657","0.0-6.0-13.10","41","<p><img class= 'stimulus' src='images/baseline/04021v.jpg'></img></p>","null","","1551223635305","","","","","","",""
"null","","html-keyboard-response","210","2214757","0.0-6.0-14.10","41","<p><img class= 'stimulus' src='images/baseline/pexels-photo-568236.jpeg'></img></p>","null","","1551223635406","14","","","","","",""
"null","","html-keyboard-response","211","2214857","0.0-6.0-15.10","41","<p><img class= 'stimulus' src='images/baseline/Nature 1.jpg'></img></p>","null","","1551223635506","","","","","","",""
"null","","html-keyboard-response","212","2214957","0.0-6.0-16.10","41","<p><img class= 'stimulus' src='images/baseline/02962v.jpg'></img></p>","null","","1551223635606","","","","","","",""
"null","","html-keyboard-response","213","2215074","0.0-6.0-17.10","41","<p><img class= 'stimulus' src='images/baseline/chicago-skyline-at-night-1476869511p8U.jpg'></img></p>","null","","1551223635707","","","","","","",""
"1287.899999995716","","html-button-response","214","2217365","0.0-6.0-18.10","41","<div class = ""response_question"">WAS THE IMAGE ROTATED...</div>","","1","","","4","8","bas","left","practice","true"
"1694.400000007823","","html-button-response","215","2219062","0.0-6.0-0.11","41","","","0","","","","","","","",""
"null","","html-keyboard-response","216","2219141","0.0-6.0-1.11","41","<p><img class= 'stimulus' src='images/baseline/kokkari-1523011968Xfr.jpg'></img></p>","null","","1551223639790","","","","","","",""
"null","","html-keyboard-response","217","2219240","0.0-6.0-2.11","41","<p><img class= 'stimulus' src='images/baseline/landscape36.jpg'></img></p>","null","","1551223639890","","","","","","",""
"null","","html-keyboard-response","218","2219340","0.0-6.0-3.11","41","<p><img class= 'stimulus' src='images/baseline/landscape15.jpg'></img></p>","null","","1551223639989","","","","","","",""
"null","","html-keyboard-response","219","2219441","0.0-6.0-4.11","41","<p><img class= 'stimulus' src='images/baseline/pexels-photo-534164.jpeg'></img></p>","null","","1551223640089","4","","","","","",""
"null","","html-keyboard-response","220","2219541","0.0-6.0-5.11","41","<p><img class= 'stimulus' src='images/baseline/house6.jpg'></img></p>","null","","1551223640190","","","","","","",""
"null","","html-keyboard-response","221","2219640","0.0-6.0-6.11","41","<p><img class= 'stimulus' src='images/baseline/lone-old-cottonwood-tree.jpg'></img></p>","null","","1551223640291","6","","","","","",""
"null","","html-keyboard-response","222","2219740","0.0-6.0-7.11","41","<p><img class= 'stimulus' src='images/baseline/farmhouse9.jpg'></img></p>","null","","1551223640388","","","","","","",""
"null","","html-keyboard-response","223","2219840","0.0-6.0-8.11","41","<p><img class= 'stimulus' src='images/target/mitre peak.jpg'></img></p>","null","","1551223640488","8","","","","","",""
"null","","html-keyboard-response","224","2219940","0.0-6.0-9.11","41","<p><img class= 'stimulus' src='images/baseline/landscape35.jpg'></img></p>","null","","1551223640590","","","","","","",""
"null","","html-keyboard-response","225","2220040","0.0-6.0-10.11","41","<p><img class= 'stimulus' src='images/baseline/03056v.jpg'></img></p>","null","","1551223640689","","","","","","",""
"null","","html-keyboard-response","226","2220141","0.0-6.0-11.11","41","<p><img class= 'stimulus' src='images/baseline/05186v.jpg'></img></p>","null","","1551223640789","","","","","","",""
"null","","html-keyboard-response","227","2220240","0.0-6.0-12.11","41","<p><img class= 'stimulus' src='images/baseline/03041v.jpg'></img></p>","null","","1551223640889","12","","","","","",""
"null","","html-keyboard-response","228","2220341","0.0-6.0-13.11","41","<p><img class= 'stimulus' src='images/baseline/Happy pose 3.jpg'></img></p>","null","","1551223640989","","","","","","",""
"null","","html-keyboard-response","229","2220440","0.0-6.0-14.11","41","<p><img class= 'stimulus' src='images/baseline/pexels-photo-541101.jpeg'></img></p>","null","","1551223641089","14","","","","","",""
"null","","html-keyboard-response","230","2220541","0.0-6.0-15.11","41","<p><img class= 'stimulus' src='images/baseline/hills 4.jpg'></img></p>","null","","1551223641190","","","","","","",""
"null","","html-keyboard-response","231","2220641","0.0-6.0-16.11","41","<p><img class= 'stimulus' src='images/baseline/Beach 2.jpg'></img></p>","null","","1551223641289","","","","","","",""
"null","","html-keyboard-response","232","2220757","0.0-6.0-17.11","41","<p><img class= 'stimulus' src='images/baseline/Camping 10.jpg'></img></p>","null","","1551223641390","","","","","","",""
"1948.3999999938533","","html-button-response","233","2223710","0.0-6.0-18.11","41","<div class = ""response_question"">WAS THE IMAGE ROTATED...</div>","","2","","","6","2","bas","right","practice","false"
"1102.500000008382","","html-button-response","234","2224813","0.0-6.0-0.12","41","","","0","","","","","","","",""
"null","","html-keyboard-response","235","2224891","0.0-6.0-1.12","41","<p><img class= 'stimulus' src='images/baseline/landscape34.jpg'></img></p>","null","","1551223645539","","","","","","",""
"null","","html-keyboard-response","236","2224991","0.0-6.0-2.12","41","<p><img class= 'stimulus' src='images/baseline/02982v.jpg'></img></p>","null","","1551223645639","","","","","","",""
"null","","html-keyboard-response","237","2225090","0.0-6.0-3.12","41","<p><img class= 'stimulus' src='images/baseline/Freudenberg_sg_Switzerland.jpg'></img></p>","null","","1551223645739","","","","","","",""
"null","","html-keyboard-response","238","2225191","0.0-6.0-4.12","41","<p><img class= 'stimulus' src='images/baseline/05198v.jpg'></img></p>","null","","1551223645839","4","","","","","",""
"null","","html-keyboard-response","239","2225291","0.0-6.0-5.12","41","<p><img class= 'stimulus' src='images/baseline/03162v.jpg'></img></p>","null","","1551223645939","","","","","","",""
"null","","html-keyboard-response","240","2225390","0.0-6.0-6.12","41","<p><img class= 'stimulus' src='images/baseline/landscape1.jpg'></img></p>","null","","1551223646039","6","","","","","",""
"null","","html-keyboard-response","241","2225490","0.0-6.0-7.12","41","<p><img class= 'stimulus' src='images/baseline/Sunset 5.jpg'></img></p>","null","","1551223646139","","","","","","",""
"null","","html-keyboard-response","242","2225590","0.0-6.0-8.12","41","<p><img class= 'stimulus' src='images/baseline/building8.jpg'></img></p>","null","","1551223646238","8","","","","","",""
"null","","html-keyboard-response","243","2225690","0.0-6.0-9.12","41","<p><img class= 'stimulus' src='images/baseline/farmhouse7.jpg'></img></p>","null","","1551223646338","","","","","","",""
"null","","html-keyboard-response","244","2225790","0.0-6.0-10.12","41","<p><img class= 'stimulus' src='images/baseline/__08_-_ITALY_-_Forli_under_snow_-_winter_landscape_of_city_(christmas).jpg'></img></p>","null","","1551223646440","","","","","","",""
"null","","html-keyboard-response","245","2225891","0.0-6.0-11.12","41","<p><img class= 'stimulus' src='images/baseline/autumn-in-red-rocks-park.jpg'></img></p>","null","","1551223646540","","","","","","",""
"null","","html-keyboard-response","246","2225991","0.0-6.0-12.12","41","<p><img class= 'stimulus' src='images/baseline/pexels-photo-1287089.jpeg'></img></p>","null","","1551223646640","12","","","","","",""
"null","","html-keyboard-response","247","2226090","0.0-6.0-13.12","41","<p><img class= 'stimulus' src='images/baseline/04300v.jpg'></img></p>","null","","1551223646739","","","","","","",""
"null","","html-keyboard-response","248","2226190","0.0-6.0-14.12","41","<p><img class= 'stimulus' src='images/target/tree1.jpg'></img></p>","null","","1551223646839","14","","","","","",""
"null","","html-keyboard-response","249","2226290","0.0-6.0-15.12","41","<p><img class= 'stimulus' src='images/baseline/04060v.jpg'></img></p>","null","","1551223646939","","","","","","",""
"null","","html-keyboard-response","250","2226390","0.0-6.0-16.12","41","<p><img class= 'stimulus' src='images/baseline/03045v.jpg'></img></p>","null","","1551223647039","","","","","","",""
"null","","html-keyboard-response","251","2226507","0.0-6.0-17.12","41","<p><img class= 'stimulus' src='images/baseline/pexels-photo-1840893.jpeg'></img></p>","null","","1551223647139","","","","","","",""
"2096.1999999997206","","html-button-response","252","2229622","0.0-6.0-18.12","41","<div class = ""response_question"">WAS THE IMAGE ROTATED...</div>","","4","","","6","8","bas","right","practice","true"
"1318.3000000137836","","html-button-response","253","2230942","0.0-6.0-0.13","41","","","0","","","","","","","",""
"null","","html-keyboard-response","254","2231023","0.0-6.0-1.13","41","<p><img class= 'stimulus' src='images/baseline/landscape6.jpg'></img></p>","null","","1551223651672","","","","","","",""
"null","","html-keyboard-response","255","2231124","0.0-6.0-2.13","41","<p><img class= 'stimulus' src='images/baseline/04201v.jpg'></img></p>","null","","1551223651773","","","","","","",""
"null","","html-keyboard-response","256","2231224","0.0-6.0-3.13","41","<p><img class= 'stimulus' src='images/baseline/building_at_national_conservation.jpg'></img></p>","null","","1551223651872","","","","","","",""
"null","","html-keyboard-response","257","2231325","0.0-6.0-4.13","41","<p><img class= 'stimulus' src='images/baseline/Beach 8.jpg'></img></p>","null","","1551223651973","4","","","","","",""
"null","","html-keyboard-response","258","2231424","0.0-6.0-5.13","41","<p><img class= 'stimulus' src='images/baseline/04010v.jpg'></img></p>","null","","1551223652073","","","","","","",""
"null","","html-keyboard-response","259","2231525","0.0-6.0-6.13","41","<p><img class= 'stimulus' src='images/baseline/Sunset 6.jpg'></img></p>","null","","1551223652173","6","","","","","",""
"null","","html-keyboard-response","260","2231624","0.0-6.0-7.13","41","<p><img class= 'stimulus' src='images/baseline/05189v.jpg'></img></p>","null","","1551223652272","","","","","","",""
"null","","html-keyboard-response","261","2231724","0.0-6.0-8.13","41","<p><img class= 'stimulus left-rotate' src='images/target/church-2306128_640.jpg'></img></p>","null","","1551223652372","8","","","","","",""
"null","","html-keyboard-response","262","2231824","0.0-6.0-9.13","41","<p><img class= 'stimulus' src='images/baseline/landscape8.jpg'></img></p>","null","","1551223652473","","","","","","",""
"null","","html-keyboard-response","263","2231923","0.0-6.0-10.13","41","<p><img class= 'stimulus' src='images/baseline/05280v.jpg'></img></p>","null","","1551223652573","","","","","","",""
"null","","html-keyboard-response","264","2232023","0.0-6.0-11.13","41","<p><img class= 'stimulus' src='images/baseline/Road 1.jpg'></img></p>","null","","1551223652672","","","","","","",""
"null","","html-keyboard-response","265","2232124","0.0-6.0-12.13","41","<p><img class= 'stimulus' src='images/baseline/Lake 3.jpg'></img></p>","null","","1551223652772","12","","","","","",""
"null","","html-keyboard-response","266","2232223","0.0-6.0-13.13","41","<p><img class= 'stimulus' src='images/baseline/04179v.jpg'></img></p>","null","","1551223652872","","","","","","",""
"null","","html-keyboard-response","267","2232324","0.0-6.0-14.13","41","<p><img class= 'stimulus' src='images/baseline/03112v.jpg'></img></p>","null","","1551223652972","14","","","","","",""
"null","","html-keyboard-response","268","2232425","0.0-6.0-15.13","41","<p><img class= 'stimulus' src='images/baseline/Niinsaare_jarv.jpg'></img></p>","null","","1551223653073","","","","","","",""
"null","","html-keyboard-response","269","2232524","0.0-6.0-16.13","41","<p><img class= 'stimulus' src='images/baseline/03180v.jpg'></img></p>","null","","1551223653172","","","","","","",""
"null","","html-keyboard-response","270","2232642","0.0-6.0-17.13","41","<p><img class= 'stimulus' src='images/baseline/Cold 7.jpg'></img></p>","null","","1551223653273","","","","","","",""
"1894.9000000138767","","html-button-response","271","2235542","0.0-6.0-18.13","41","<div class = ""response_question"">WAS THE IMAGE ROTATED...</div>","","1","","","6","2","bas","left","practice","true"
"2230.699999985285","","html-button-response","272","2237774","0.0-6.0-0.14","41","","","0","","","","","","","",""
"null","","html-keyboard-response","273","2237858","0.0-6.0-1.14","41","<p><img class= 'stimulus' src='images/baseline/architecture_modern_architecture_852928.jpg'></img></p>","null","","1551223658506","","","","","","",""
"null","","html-keyboard-response","274","2237957","0.0-6.0-2.14","41","<p><img class= 'stimulus' src='images/baseline/03114v.jpg'></img></p>","null","","1551223658607","","","","","","",""
"null","","html-keyboard-response","275","2238057","0.0-6.0-3.14","41","<p><img class= 'stimulus' src='images/baseline/foreclosed_home.jpg'></img></p>","null","","1551223658706","","","","","","",""
"null","","html-keyboard-response","276","2238157","0.0-6.0-4.14","41","<p><img class= 'stimulus' src='images/baseline/Waterfall 1.jpg'></img></p>","null","","1551223658806","4","","","","","",""
"null","","html-keyboard-response","277","2238257","0.0-6.0-5.14","41","<p><img class= 'stimulus' src='images/baseline/03204v.jpg'></img></p>","null","","1551223658906","","","","","","",""
"null","","html-keyboard-response","278","2238357","0.0-6.0-6.14","41","<p><img class= 'stimulus left-rotate' src='images/target/adventure-desert-landscape-6778.jpg'></img></p>","null","","1551223659006","6","","","","","",""
"null","","html-keyboard-response","279","2238458","0.0-6.0-7.14","41","<p><img class= 'stimulus' src='images/baseline/03063v.jpg'></img></p>","null","","1551223659106","","","","","","",""
"null","","html-keyboard-response","280","2238558","0.0-6.0-8.14","41","<p><img class= 'stimulus' src='images/baseline/pexels-photo-440731.jpeg'></img></p>","null","","1551223659206","8","","","","","",""
"null","","html-keyboard-response","281","2238658","0.0-6.0-9.14","41","<p><img class= 'stimulus' src='images/baseline/lake 2.jpg'></img></p>","null","","1551223659306","","","","","","",""
"null","","html-keyboard-response","282","2238757","0.0-6.0-10.14","41","<p><img class= 'stimulus' src='images/baseline/Lake 8.jpg'></img></p>","null","","1551223659406","","","","","","",""
"null","","html-keyboard-response","283","2238857","0.0-6.0-11.14","41","<p><img class= 'stimulus' src='images/baseline/Skijump 1.jpg'></img></p>","null","","1551223659506","","","","","","",""
"null","","html-keyboard-response","284","2238957","0.0-6.0-12.14","41","<p><img class= 'stimulus' src='images/baseline/Skyscraper 2.jpg'></img></p>","null","","1551223659605","12","","","","","",""
"null","","html-keyboard-response","285","2239057","0.0-6.0-13.14","41","<p><img class= 'stimulus' src='images/baseline/bird-flying-at-sunset.jpg'></img></p>","null","","1551223659706","","","","","","",""
"null","","html-keyboard-response","286","2239157","0.0-6.0-14.14","41","<p><img class= 'stimulus' src='images/baseline/field 1.jpg'></img></p>","null","","1551223659806","14","","","","","",""
"null","","html-keyboard-response","287","2239257","0.0-6.0-15.14","41","<p><img class= 'stimulus' src='images/baseline/snowy tree.jpg'></img></p>","null","","1551223659906","","","","","","",""
"null","","html-keyboard-response","288","2239357","0.0-6.0-16.14","41","<p><img class= 'stimulus' src='images/baseline/05279v.jpg'></img></p>","null","","1551223660005","","","","","","",""
"null","","html-keyboard-response","289","2239474","0.0-6.0-17.14","41","<p><img class= 'stimulus' src='images/baseline/04014v.jpg'></img></p>","null","","1551223660106","","","","","","",""
"1556.4000000013039","","html-button-response","290","2242038","0.0-6.0-18.14","41","<div class = ""response_question"">WAS THE IMAGE ROTATED...</div>","","1","","","4","2","bas","left","practice","true"
"1262.099999992177","","html-button-response","291","2243301","0.0-6.0-0.15","41","","","0","","","","","","","",""
"null","","html-keyboard-response","292","2243374","0.0-6.0-1.15","41","<p><img class= 'stimulus' src='images/baseline/empire-state-building.jpg'></img></p>","null","","1551223664023","","","","","","",""
"null","","html-keyboard-response","293","2243474","0.0-6.0-2.15","41","<p><img class= 'stimulus' src='images/baseline/04193v.jpg'></img></p>","null","","1551223664123","","","","","","",""
"null","","html-keyboard-response","294","2243574","0.0-6.0-3.15","41","<p><img class= 'stimulus' src='images/baseline/04085v.jpg'></img></p>","null","","1551223664222","","","","","","",""
"null","","html-keyboard-response","295","2243674","0.0-6.0-4.15","41","<p><img class= 'stimulus' src='images/baseline/meadow-with-mountain-in-background.jpg'></img></p>","null","","1551223664323","4","","","","","",""
"null","","html-keyboard-response","296","2243774","0.0-6.0-5.15","41","<p><img class= 'stimulus' src='images/baseline/pexels-photo-427676.jpeg'></img></p>","null","","1551223664422","","","","","","",""
"null","","html-keyboard-response","297","2243874","0.0-6.0-6.15","41","<p><img class= 'stimulus' src='images/baseline/road.jpg'></img></p>","null","","1551223664523","6","","","","","",""
"null","","html-keyboard-response","298","2243975","0.0-6.0-7.15","41","<p><img class= 'stimulus' src='images/baseline/landscape40.jpg'></img></p>","null","","1551223664622","","","","","","",""
"null","","html-keyboard-response","299","2244074","0.0-6.0-8.15","41","<p><img class= 'stimulus' src='images/baseline/landscape12.jpg'></img></p>","null","","1551223664722","8","","","","","",""
"null","","html-keyboard-response","300","2244174","0.0-6.0-9.15","41","<p><img class= 'stimulus' src='images/baseline/05161v.jpg'></img></p>","null","","1551223664823","","","","","","",""
"null","","html-keyboard-response","301","2244274","0.0-6.0-10.15","41","<p><img class= 'stimulus' src='images/baseline/pexels-photo-459203.jpeg'></img></p>","null","","1551223664922","","","","","","",""
"null","","html-keyboard-response","302","2244374","0.0-6.0-11.15","41","<p><img class= 'stimulus' src='images/baseline/landscape14.jpg'></img></p>","null","","1551223665023","","","","","","",""
"null","","html-keyboard-response","303","2244474","0.0-6.0-12.15","41","<p><img class= 'stimulus' src='images/target/Wild-West-South-West-Usa-Landscape-America-1663497.jpg'></img></p>","null","","1551223665123","12","","","","","",""
"null","","html-keyboard-response","304","2244574","0.0-6.0-13.15","41","<p><img class= 'stimulus' src='images/baseline/02947v.jpg'></img></p>","null","","1551223665223","","","","","","",""
"null","","html-keyboard-response","305","2244674","0.0-6.0-14.15","41","<p><img class= 'stimulus' src='images/baseline/building6.jpg'></img></p>","null","","1551223665322","14","","","","","",""
"null","","html-keyboard-response","306","2244774","0.0-6.0-15.15","41","<p><img class= 'stimulus' src='images/baseline/autumn-in-red-rocks-park.jpg'></img></p>","null","","1551223665422","","","","","","",""
"null","","html-keyboard-response","307","2244874","0.0-6.0-16.15","41","<p><img class= 'stimulus' src='images/baseline/scenic-mountain-landscape.jpg'></img></p>","null","","1551223665522","","","","","","",""
"null","","html-keyboard-response","308","2244990","0.0-6.0-17.15","41","<p><img class= 'stimulus' src='images/baseline/tennis-court-net-buried-in-snow.jpg'></img></p>","null","","1551223665622","","","","","","",""
"1102.599999983795","","html-button-response","309","2247110","0.0-6.0-18.15","41","<div class = ""response_question"">WAS THE IMAGE ROTATED...</div>","","4","","","4","8","bas","right","practice","true"
"7054.100000008009","","html-button-response","310","2254165","0.0-7.0","41","<p>You have now completed the practice phase. We will now begin the real trials.         This is a reminder that you will be searching for a rotated image among the series of upright images.</p>         <p>Remember, please do not blink or move your eyes while the images are on the screen.</p>         <p>At the end of the experiment, the experimenter will be able to show you how accurate you were.</p>","","0","","","","","","","",""
"1806.699999986682","","html-button-response","311","2255974","0.0-8.0-0.0-0.0","41","","","0","","","","","","","",""
"null","","html-keyboard-response","312","2256058","0.0-8.0-0.0-1.0","41","<p><img class= 'stimulus' src='images/baseline/seoul-410266_1920.jpg'></img></p>","null","","1551223676706","","","","","","",""
"null","","html-keyboard-response","313","2256158","0.0-8.0-0.0-2.0","41","<p><img class= 'stimulus' src='images/baseline/03112v.jpg'></img></p>","null","","1551223676808","","","","","","",""
"null","","html-keyboard-response","314","2256258","0.0-8.0-0.0-3.0","41","<p><img class= 'stimulus' src='images/baseline/Lake 14.jpg'></img></p>","null","","1551223676906","","","","","","",""
"null","","html-keyboard-response","315","2256358","0.0-8.0-0.0-4.0","41","<p><img class= 'stimulus' src='images/neutral/Dancing 3.jpg'></img></p>","null","","1551223677006","4","","","","","",""
"null","","html-keyboard-response","316","2256458","0.0-8.0-0.0-5.0","41","<p><img class= 'stimulus' src='images/baseline/building5.jpg'></img></p>","null","","1551223677106","","","","","","",""
"null","","html-keyboard-response","317","2256557","0.0-8.0-0.0-6.0","41","<p><img class= 'stimulus left-rotate' src='images/target/tree-740901_1280.jpg'></img></p>","null","","1551223677206","6","","","","","",""
"null","","html-keyboard-response","318","2256657","0.0-8.0-0.0-7.0","41","<p><img class= 'stimulus' src='images/baseline/grand-teton-mountains.jpg'></img></p>","null","","1551223677305","","","","","","",""
"null","","html-keyboard-response","319","2256758","0.0-8.0-0.0-8.0","41","<p><img class= 'stimulus' src='images/baseline/landscape6.jpg'></img></p>","null","","1551223677406","8","","","","","",""
"null","","html-keyboard-response","320","2256859","0.0-8.0-0.0-9.0","41","<p><img class= 'stimulus' src='images/baseline/Linden,_paysage.jpg'></img></p>","null","","1551223677507","","","","","","",""
"null","","html-keyboard-response","321","2256958","0.0-8.0-0.0-10.0","41","<p><img class= 'stimulus' src='images/baseline/building3.jpg'></img></p>","null","","1551223677606","","","","","","",""
"null","","html-keyboard-response","322","2257058","0.0-8.0-0.0-11.0","41","<p><img class= 'stimulus' src='images/baseline/02947v.jpg'></img></p>","null","","1551223677706","","","","","","",""
"null","","html-keyboard-response","323","2257157","0.0-8.0-0.0-12.0","41","<p><img class= 'stimulus' src='images/baseline/Sky 1.jpg'></img></p>","null","","1551223677806","12","","","","","",""
"null","","html-keyboard-response","324","2257258","0.0-8.0-0.0-13.0","41","<p><img class= 'stimulus' src='images/baseline/road.jpg'></img></p>","null","","1551223677906","","","","","","",""
"null","","html-keyboard-response","325","2257357","0.0-8.0-0.0-14.0","41","<p><img class= 'stimulus' src='images/baseline/05264v.jpg'></img></p>","null","","1551223678006","14","","","","","",""
"null","","html-keyboard-response","326","2257457","0.0-8.0-0.0-15.0","41","<p><img class= 'stimulus' src='images/baseline/lake 2.jpg'></img></p>","null","","1551223678106","","","","","","",""
"null","","html-keyboard-response","327","2257558","0.0-8.0-0.0-16.0","41","<p><img class= 'stimulus' src='images/baseline/river 1.jpg'></img></p>","null","","1551223678206","","","","","","",""
"null","","html-keyboard-response","328","2257674","0.0-8.0-0.0-17.0","41","<p><img class= 'stimulus' src='images/baseline/Freudenberg_sg_Switzerland.jpg'></img></p>","null","","1551223678307","","","","","","",""
"1134.8999999752268","","html-button-response","329","2259813","0.0-8.0-0.0-18.0","41","<div class = ""response_question"">WAS THE IMAGE ROTATED...</div>","","1","","","4","2","neu","left","test","true"
"990.3000000044703","","html-button-response","330","2260806","0.0-8.0-0.0-0.1","41","","","0","","","","","","","",""
"null","","html-keyboard-response","331","2260891","0.0-8.0-0.0-1.1","41","<p><img class= 'stimulus' src='images/baseline/empire-state-building.jpg'></img></p>","null","","1551223681540","","","","","","",""
"null","","html-keyboard-response","332","2260991","0.0-8.0-0.0-2.1","41","<p><img class= 'stimulus' src='images/baseline/landscape13.jpg'></img></p>","null","","1551223681639","","","","","","",""
"null","","html-keyboard-response","333","2261091","0.0-8.0-0.0-3.1","41","<p><img class= 'stimulus' src='images/baseline/Paysage_karabagh_02.jpg'></img></p>","null","","1551223681739","","","","","","",""
"null","","html-keyboard-response","334","2261191","0.0-8.0-0.0-4.1","41","<p><img class= 'stimulus' src='images/baseline/architecture-956332_1280.jpg'></img></p>","null","","1551223681840","4","","","","","",""
"null","","html-keyboard-response","335","2261291","0.0-8.0-0.0-5.1","41","<p><img class= 'stimulus' src='images/baseline/valley 1.jpg'></img></p>","null","","1551223681940","","","","","","",""
"null","","html-keyboard-response","336","2261391","0.0-8.0-0.0-6.1","41","<p><img class= 'stimulus left-rotate' src='images/target/building3.jpg'></img></p>","null","","1551223682040","6","","","","","",""
"null","","html-keyboard-response","337","2261490","0.0-8.0-0.0-7.1","41","<p><img class= 'stimulus' src='images/baseline/Peyto_Lake-Banff_NP-Canada.jpg'></img></p>","null","","1551223682140","","","","","","",""
"null","","html-keyboard-response","338","2261592","0.0-8.0-0.0-8.1","41","<p><img class= 'stimulus' src='images/baseline/Lake 5.jpg'></img></p>","null","","1551223682241","8","","","","","",""
"null","","html-keyboard-response","339","2261692","0.0-8.0-0.0-9.1","41","<p><img class= 'stimulus' src='images/baseline/Kocherbaumwald-01.jpg'></img></p>","null","","1551223682339","","","","","","",""
"null","","html-keyboard-response","340","2261791","0.0-8.0-0.0-10.1","41","<p><img class= 'stimulus' src='images/baseline/4k-wallpaper-agriculture-clouds-842711.jpg'></img></p>","null","","1551223682439","","","","","","",""
"null","","html-keyboard-response","341","2261891","0.0-8.0-0.0-11.1","41","<p><img class= 'stimulus' src='images/baseline/03063v.jpg'></img></p>","null","","1551223682539","","","","","","",""
"null","","html-keyboard-response","342","2261991","0.0-8.0-0.0-12.1","41","<p><img class= 'stimulus' src='images/baseline/Sunset 5.jpg'></img></p>","null","","1551223682639","12","","","","","",""
"null","","html-keyboard-response","343","2262091","0.0-8.0-0.0-13.1","41","<p><img class= 'stimulus' src='images/baseline/03066v.jpg'></img></p>","null","","1551223682739","","","","","","",""
"null","","html-keyboard-response","344","2262191","0.0-8.0-0.0-14.1","41","<p><img class= 'stimulus' src='images/baseline/agriculture-bright-clouds-440731.jpg'></img></p>","null","","1551223682839","14","","","","","",""
"null","","html-keyboard-response","345","2262291","0.0-8.0-0.0-15.1","41","<p><img class= 'stimulus' src='images/baseline/Sunset 6.jpg'></img></p>","null","","1551223682940","","","","","","",""
"null","","html-keyboard-response","346","2262391","0.0-8.0-0.0-16.1","41","<p><img class= 'stimulus' src='images/baseline/Paysage_enneige_02.jpg'></img></p>","null","","1551223683040","","","","","","",""
"null","","html-keyboard-response","347","2262508","0.0-8.0-0.0-17.1","41","<p><img class= 'stimulus' src='images/baseline/dirt-road-or-trail-through-park.jpg'></img></p>","null","","1551223683140","","","","","","",""
"3261.3000000128523","","html-button-response","348","2266774","0.0-8.0-0.0-18.1","41","<div class = ""response_question"">WAS THE IMAGE ROTATED...</div>","","1","","","4","2","bas","left","test","true"
"2549.599999998696","","html-button-response","349","2269326","0.0-8.0-0.0-0.2","41","","","0","","","","","","","",""
"null","","html-keyboard-response","350","2269408","0.0-8.0-0.0-1.2","41","<p><img class= 'stimulus' src='images/baseline/pexels-photo-1261728.jpeg'></img></p>","null","","1551223690056","","","","","","",""
"null","","html-keyboard-response","351","2269508","0.0-8.0-0.0-2.2","41","<p><img class= 'stimulus' src='images/baseline/town-square-in-wroclaw-1539098440MZy.jpg'></img></p>","null","","1551223690156","","","","","","",""
"null","","html-keyboard-response","352","2269608","0.0-8.0-0.0-3.2","41","<p><img class= 'stimulus' src='images/baseline/05139v.jpg'></img></p>","null","","1551223690257","","","","","","",""
"null","","html-keyboard-response","353","2269709","0.0-8.0-0.0-4.2","41","<p><img class= 'stimulus' src='images/baseline/Nature 2.jpg'></img></p>","null","","1551223690356","4","","","","","",""
"null","","html-keyboard-response","354","2269808","0.0-8.0-0.0-5.2","41","<p><img class= 'stimulus' src='images/baseline/05292v.jpg'></img></p>","null","","1551223690456","","","","","","",""
"null","","html-keyboard-response","355","2269909","0.0-8.0-0.0-6.2","41","<p><img class= 'stimulus' src='images/baseline/Street 5.jpg'></img></p>","null","","1551223690556","6","","","","","",""
"null","","html-keyboard-response","356","2270008","0.0-8.0-0.0-7.2","41","<p><img class= 'stimulus' src='images/baseline/landscape14.jpg'></img></p>","null","","1551223690657","","","","","","",""
"null","","html-keyboard-response","357","2270108","0.0-8.0-0.0-8.2","41","<p><img class= 'stimulus' src='images/baseline/red-rocks-park.jpg'></img></p>","null","","1551223690757","8","","","","","",""
"null","","html-keyboard-response","358","2270207","0.0-8.0-0.0-9.2","41","<p><img class= 'stimulus' src='images/baseline/Sunset 4.jpg'></img></p>","null","","1551223690856","","","","","","",""
"null","","html-keyboard-response","359","2270308","0.0-8.0-0.0-10.2","41","<p><img class= 'stimulus' src='images/baseline/Sailing 3.jpg'></img></p>","null","","1551223690957","","","","","","",""
"null","","html-keyboard-response","360","2270408","0.0-8.0-0.0-11.2","41","<p><img class= 'stimulus' src='images/baseline/05186v.jpg'></img></p>","null","","1551223691056","","","","","","",""
"null","","html-keyboard-response","361","2270507","0.0-8.0-0.0-12.2","41","<p><img class= 'stimulus' src='images/target/Tree-Landscape-Winter-Nature-Winter-Trees-Snow-2117951.jpg'></img></p>","null","","1551223691156","12","","","","","",""
"null","","html-keyboard-response","362","2270608","0.0-8.0-0.0-13.2","41","<p><img class= 'stimulus' src='images/baseline/hills 4.jpg'></img></p>","null","","1551223691257","","","","","","",""
"null","","html-keyboard-response","363","2270707","0.0-8.0-0.0-14.2","41","<p><img class= 'stimulus' src='images/baseline/landscape39.jpg'></img></p>","null","","1551223691356","14","","","","","",""
"null","","html-keyboard-response","364","2270808","0.0-8.0-0.0-15.2","41","<p><img class= 'stimulus' src='images/baseline/03204v.jpg'></img></p>","null","","1551223691456","","","","","","",""
"null","","html-keyboard-response","365","2270907","0.0-8.0-0.0-16.2","41","<p><img class= 'stimulus' src='images/baseline/04158v.jpg'></img></p>","null","","1551223691556","","","","","","",""
"null","","html-keyboard-response","366","2271024","0.0-8.0-0.0-17.2","41","<p><img class= 'stimulus' src='images/baseline/house11.jpg'></img></p>","null","","1551223691656","","","","","","",""
"1336.200000019744","","html-button-response","367","2273365","0.0-8.0-0.0-18.2","41","<div class = ""response_question"">WAS THE IMAGE ROTATED...</div>","","4","","","4","8","bas","right","test","true"
"1062.1999999857508","","html-button-response","368","2274429","0.0-8.0-0.0-0.3","41","","","0","","","","","","","",""
"null","","html-keyboard-response","369","2274508","0.0-8.0-0.0-1.3","41","<p><img class= 'stimulus' src='images/baseline/__08_-_ITALY_-_Forli_under_snow_-_winter_landscape_of_city_(christmas).jpg'></img></p>","null","","1551223695154","","","","","","",""
"null","","html-keyboard-response","370","2274607","0.0-8.0-0.0-2.3","41","<p><img class= 'stimulus' src='images/baseline/04010v.jpg'></img></p>","null","","1551223695255","","","","","","",""
"null","","html-keyboard-response","371","2274707","0.0-8.0-0.0-3.3","41","<p><img class= 'stimulus' src='images/baseline/pexels-photo-221125.jpeg'></img></p>","null","","1551223695355","","","","","","",""
"null","","html-keyboard-response","372","2274807","0.0-8.0-0.0-4.3","41","<p><img class= 'stimulus' src='images/baseline/04086v.jpg'></img></p>","null","","1551223695455","4","","","","","",""
"null","","html-keyboard-response","373","2274906","0.0-8.0-0.0-5.3","41","<p><img class= 'stimulus' src='images/baseline/hills 3.jpg'></img></p>","null","","1551223695555","","","","","","",""
"null","","html-keyboard-response","374","2275007","0.0-8.0-0.0-6.3","41","<p><img class= 'stimulus' src='images/neutral/berkay-gumustekin-402114-unsplash (1) (1).jpg'></img></p>","null","","1551223695655","6","","","","","",""
"null","","html-keyboard-response","375","2275107","0.0-8.0-0.0-7.3","41","<p><img class= 'stimulus' src='images/baseline/building8.jpg'></img></p>","null","","1551223695755","","","","","","",""
"null","","html-keyboard-response","376","2275206","0.0-8.0-0.0-8.3","41","<p><img class= 'stimulus' src='images/baseline/landscape17.jpg'></img></p>","null","","1551223695856","8","","","","","",""
"null","","html-keyboard-response","377","2275306","0.0-8.0-0.0-9.3","41","<p><img class= 'stimulus' src='images/baseline/Sidewalk 4.jpg'></img></p>","null","","1551223695956","","","","","","",""
"null","","html-keyboard-response","378","2275406","0.0-8.0-0.0-10.3","41","<p><img class= 'stimulus' src='images/baseline/04117v.jpg'></img></p>","null","","1551223696055","","","","","","",""
"null","","html-keyboard-response","379","2275507","0.0-8.0-0.0-11.3","41","<p><img class= 'stimulus' src='images/baseline/Niinsaare_jarv.jpg'></img></p>","null","","1551223696156","","","","","","",""
"null","","html-keyboard-response","380","2275606","0.0-8.0-0.0-12.3","41","<p><img class= 'stimulus' src='images/baseline/Desert_View_Indian_Wells.jpg'></img></p>","null","","1551223696255","12","","","","","",""
"null","","html-keyboard-response","381","2275707","0.0-8.0-0.0-13.3","41","<p><img class= 'stimulus' src='images/baseline/03217v.jpg'></img></p>","null","","1551223696355","","","","","","",""
"null","","html-keyboard-response","382","2275807","0.0-8.0-0.0-14.3","41","<p><img class= 'stimulus left-rotate' src='images/target/building19.jpg'></img></p>","null","","1551223696454","14","","","","","",""
"null","","html-keyboard-response","383","2275907","0.0-8.0-0.0-15.3","41","<p><img class= 'stimulus' src='images/baseline/field 4.jpg'></img></p>","null","","1551223696555","","","","","","",""
"null","","html-keyboard-response","384","2276006","0.0-8.0-0.0-16.3","41","<p><img class= 'stimulus' src='images/baseline/02988v.jpg'></img></p>","null","","1551223696655","","","","","","",""
"null","","html-keyboard-response","385","2276123","0.0-8.0-0.0-17.3","41","<p><img class= 'stimulus' src='images/baseline/landscape37.jpg'></img></p>","null","","1551223696756","","","","","","",""
"2876.300000003539","","html-button-response","386","2280005","0.0-8.0-0.0-18.3","41","<div class = ""response_question"">WAS THE IMAGE ROTATED...</div>","","4","","","6","8","neu","left","test","false"
"990.0999999949709","","html-button-response","387","2280997","0.0-8.0-0.0-0.4","41","","","0","","","","","","","",""
"null","","html-keyboard-response","388","2281073","0.0-8.0-0.0-1.4","41","<p><img class= 'stimulus' src='images/baseline/landscape15.jpg'></img></p>","null","","1551223701721","","","","","","",""
"null","","html-keyboard-response","389","2281173","0.0-8.0-0.0-2.4","41","<p><img class= 'stimulus' src='images/baseline/Skyscraper 2.jpg'></img></p>","null","","1551223701821","","","","","","",""
"null","","html-keyboard-response","390","2281273","0.0-8.0-0.0-3.4","41","<p><img class= 'stimulus' src='images/baseline/02960v.jpg'></img></p>","null","","1551223701922","","","","","","",""
"null","","html-keyboard-response","391","2281374","0.0-8.0-0.0-4.4","41","<p><img class= 'stimulus' src='images/baseline/Lake 8.jpg'></img></p>","null","","1551223702022","4","","","","","",""
"null","","html-keyboard-response","392","2281473","0.0-8.0-0.0-5.4","41","<p><img class= 'stimulus' src='images/baseline/farmhouse3.jpg'></img></p>","null","","1551223702121","","","","","","",""
"null","","html-keyboard-response","393","2281574","0.0-8.0-0.0-6.4","41","<p><img class= 'stimulus' src='images/baseline/pexels-photo-1287089.jpeg'></img></p>","null","","1551223702222","6","","","","","",""
"null","","html-keyboard-response","394","2281673","0.0-8.0-0.0-7.4","41","<p><img class= 'stimulus' src='images/baseline/04300v.jpg'></img></p>","null","","1551223702322","","","","","","",""
"null","","html-keyboard-response","395","2281773","0.0-8.0-0.0-8.4","41","<p><img class= 'stimulus left-rotate' src='images/target/pexels-photo-602607.jpeg'></img></p>","null","","1551223702423","8","","","","","",""
"null","","html-keyboard-response","396","2281873","0.0-8.0-0.0-9.4","41","<p><img class= 'stimulus' src='images/baseline/house8.jpg'></img></p>","null","","1551223702521","","","","","","",""
"null","","html-keyboard-response","397","2281973","0.0-8.0-0.0-10.4","41","<p><img class= 'stimulus' src='images/baseline/snowy tree.jpg'></img></p>","null","","1551223702622","","","","","","",""
"null","","html-keyboard-response","398","2282073","0.0-8.0-0.0-11.4","41","<p><img class= 'stimulus' src='images/baseline/valley 2.jpg'></img></p>","null","","1551223702721","","","","","","",""
"null","","html-keyboard-response","399","2282174","0.0-8.0-0.0-12.4","41","<p><img class= 'stimulus' src='images/baseline/landscape7.jpg'></img></p>","null","","1551223702821","12","","","","","",""
"null","","html-keyboard-response","400","2282274","0.0-8.0-0.0-13.4","41","<p><img class= 'stimulus' src='images/baseline/pexels-photo-1837621.jpeg'></img></p>","null","","1551223702922","","","","","","",""
"null","","html-keyboard-response","401","2282374","0.0-8.0-0.0-14.4","41","<p><img class= 'stimulus' src='images/baseline/landscape38.jpg'></img></p>","null","","1551223703021","14","","","","","",""
"null","","html-keyboard-response","402","2282474","0.0-8.0-0.0-15.4","41","<p><img class= 'stimulus' src='images/baseline/trees 23.jpg'></img></p>","null","","1551223703121","","","","","","",""
"null","","html-keyboard-response","403","2282573","0.0-8.0-0.0-16.4","41","<p><img class= 'stimulus' src='images/baseline/04196v.jpg'></img></p>","null","","1551223703222","","","","","","",""
"null","","html-keyboard-response","404","2282690","0.0-8.0-0.0-17.4","41","<p><img class= 'stimulus' src='images/baseline/Street 3.jpg'></img></p>","null","","1551223703322","","","","","","",""
"2222.1000000135973","","html-button-response","405","2285917","0.0-8.0-0.0-18.4","41","<div class = ""response_question"">WAS THE IMAGE ROTATED...</div>","","4","","","6","2","bas","left","test","false"
"1062.399999995716","","html-button-response","406","2286981","0.0-8.0-0.0-0.5","41","","","0","","","","","","","",""
"null","","html-keyboard-response","407","2287057","0.0-8.0-0.0-1.5","41","<p><img class= 'stimulus' src='images/baseline/Bridge 1.jpg'></img></p>","null","","1551223707705","","","","","","",""
"null","","html-keyboard-response","408","2287157","0.0-8.0-0.0-2.5","41","<p><img class= 'stimulus' src='images/baseline/meadow-with-mountain-in-background.jpg'></img></p>","null","","1551223707805","","","","","","",""
"null","","html-keyboard-response","409","2287257","0.0-8.0-0.0-3.5","41","<p><img class= 'stimulus' src='images/baseline/04085v.jpg'></img></p>","null","","1551223707906","","","","","","",""
"null","","html-keyboard-response","410","2287357","0.0-8.0-0.0-4.5","41","<p><img class= 'stimulus' src='images/baseline/pexels-photo-894312.jpeg'></img></p>","null","","1551223708005","4","","","","","",""
"null","","html-keyboard-response","411","2287457","0.0-8.0-0.0-5.5","41","<p><img class= 'stimulus' src='images/baseline/pexels-photo-568236.jpeg'></img></p>","null","","1551223708106","","","","","","",""
"null","","html-keyboard-response","412","2287558","0.0-8.0-0.0-6.5","41","<p><img class= 'stimulus' src='images/baseline/05247v.jpg'></img></p>","null","","1551223708205","6","","","","","",""
"null","","html-keyboard-response","413","2287656","0.0-8.0-0.0-7.5","41","<p><img class= 'stimulus' src='images/baseline/03041v.jpg'></img></p>","null","","1551223708306","","","","","","",""
"null","","html-keyboard-response","414","2287757","0.0-8.0-0.0-8.5","41","<p><img class= 'stimulus left-rotate' src='images/target/tree spring.jpeg'></img></p>","null","","1551223708405","8","","","","","",""
"null","","html-keyboard-response","415","2287857","0.0-8.0-0.0-9.5","41","<p><img class= 'stimulus' src='images/baseline/04098v.jpg'></img></p>","null","","1551223708505","","","","","","",""
"null","","html-keyboard-response","416","2287956","0.0-8.0-0.0-10.5","41","<p><img class= 'stimulus' src='images/baseline/landscape1.jpg'></img></p>","null","","1551223708605","","","","","","",""
"null","","html-keyboard-response","417","2288057","0.0-8.0-0.0-11.5","41","<p><img class= 'stimulus' src='images/baseline/Street 4.jpg'></img></p>","null","","1551223708705","","","","","","",""
"null","","html-keyboard-response","418","2288157","0.0-8.0-0.0-12.5","41","<p><img class= 'stimulus' src='images/baseline/04162v.jpg'></img></p>","null","","1551223708805","12","","","","","",""
"null","","html-keyboard-response","419","2288256","0.0-8.0-0.0-13.5","41","<p><img class= 'stimulus' src='images/baseline/house2.jpg'></img></p>","null","","1551223708906","","","","","","",""
"null","","html-keyboard-response","420","2288357","0.0-8.0-0.0-14.5","41","<p><img class= 'stimulus' src='images/baseline/03201v.jpg'></img></p>","null","","1551223709005","14","","","","","",""
"null","","html-keyboard-response","421","2288457","0.0-8.0-0.0-15.5","41","<p><img class= 'stimulus' src='images/baseline/03098v.jpg'></img></p>","null","","1551223709105","","","","","","",""
"null","","html-keyboard-response","422","2288557","0.0-8.0-0.0-16.5","41","<p><img class= 'stimulus' src='images/baseline/Happy pose 3.jpg'></img></p>","null","","1551223709206","","","","","","",""
"null","","html-keyboard-response","423","2288673","0.0-8.0-0.0-17.5","41","<p><img class= 'stimulus' src='images/baseline/03212v.jpg'></img></p>","null","","1551223709305","","","","","","",""
"1389.1000000000931","","html-button-response","424","2291077","0.0-8.0-0.0-18.5","41","<div class = ""response_question"">WAS THE IMAGE ROTATED...</div>","","2","","","6","2","bas","left","test","false"
"726.299999980256","","html-button-response","425","2291804","0.0-8.0-0.0-0.6","41","","","0","","","","","","","",""
"null","","html-keyboard-response","426","2291891","0.0-8.0-0.0-1.6","41","<p><img class= 'stimulus' src='images/baseline/pexels-photo-534164.jpeg'></img></p>","null","","1551223712540","","","","","","",""
"null","","html-keyboard-response","427","2291990","0.0-8.0-0.0-2.6","41","<p><img class= 'stimulus' src='images/baseline/building12.jpg'></img></p>","null","","1551223712639","","","","","","",""
"null","","html-keyboard-response","428","2292090","0.0-8.0-0.0-3.6","41","<p><img class= 'stimulus' src='images/baseline/pexels-photo-280222.jpeg'></img></p>","null","","1551223712739","","","","","","",""
"null","","html-keyboard-response","429","2292190","0.0-8.0-0.0-4.6","41","<p><img class= 'stimulus' src='images/baseline/farmhouse1.jpg'></img></p>","null","","1551223712838","4","","","","","",""
"null","","html-keyboard-response","430","2292290","0.0-8.0-0.0-5.6","41","<p><img class= 'stimulus' src='images/baseline/field 1.jpg'></img></p>","null","","1551223712938","","","","","","",""
"null","","html-keyboard-response","431","2292390","0.0-8.0-0.0-6.6","41","<p><img class= 'stimulus' src='images/baseline/pexels-photo-210617.jpeg'></img></p>","null","","1551223713038","6","","","","","",""
"null","","html-keyboard-response","432","2292490","0.0-8.0-0.0-7.6","41","<p><img class= 'stimulus' src='images/baseline/03220v.jpg'></img></p>","null","","1551223713139","","","","","","",""
"null","","html-keyboard-response","433","2292590","0.0-8.0-0.0-8.6","41","<p><img class= 'stimulus' src='images/baseline/03056v.jpg'></img></p>","null","","1551223713239","8","","","","","",""
"null","","html-keyboard-response","434","2292690","0.0-8.0-0.0-9.6","41","<p><img class= 'stimulus' src='images/baseline/04021v.jpg'></img></p>","null","","1551223713339","","","","","","",""
"null","","html-keyboard-response","435","2292791","0.0-8.0-0.0-10.6","41","<p><img class= 'stimulus' src='images/baseline/vintage-art-deco-storefront.jpg'></img></p>","null","","1551223713439","","","","","","",""
"null","","html-keyboard-response","436","2292889","0.0-8.0-0.0-11.6","41","<p><img class= 'stimulus' src='images/baseline/04014v.jpg'></img></p>","null","","1551223713538","","","","","","",""
"null","","html-keyboard-response","437","2292991","0.0-8.0-0.0-12.6","41","<p><img class= 'stimulus' src='images/baseline/04062v.jpg'></img></p>","null","","1551223713638","12","","","","","",""
"null","","html-keyboard-response","438","2293091","0.0-8.0-0.0-13.6","41","<p><img class= 'stimulus' src='images/baseline/04193v.jpg'></img></p>","null","","1551223713739","","","","","","",""
"null","","html-keyboard-response","439","2293190","0.0-8.0-0.0-14.6","41","<p><img class= 'stimulus' src='images/target/pexels-photo-1123982.jpeg'></img></p>","null","","1551223713840","14","","","","","",""
"null","","html-keyboard-response","440","2293290","0.0-8.0-0.0-15.6","41","<p><img class= 'stimulus' src='images/baseline/Lake 13.jpg'></img></p>","null","","1551223713938","","","","","","",""
"null","","html-keyboard-response","441","2293391","0.0-8.0-0.0-16.6","41","<p><img class= 'stimulus' src='images/baseline/bird-flying-at-sunset.jpg'></img></p>","null","","1551223714039","","","","","","",""
"null","","html-keyboard-response","442","2293507","0.0-8.0-0.0-17.6","41","<p><img class= 'stimulus' src='images/baseline/lookout_tower.jpg'></img></p>","null","","1551223714139","","","","","","",""
"2036.2000000025146","","html-button-response","443","2296549","0.0-8.0-0.0-18.6","41","<div class = ""response_question"">WAS THE IMAGE ROTATED...</div>","","4","","","6","8","bas","right","test","true"
"1221.9000000040978","","html-button-response","444","2297773","0.0-8.0-0.0-0.7","41","","","0","","","","","","","",""
"null","","html-keyboard-response","445","2297857","0.0-8.0-0.0-1.7","41","<p><img class= 'stimulus' src='images/baseline/Beach 8.jpg'></img></p>","null","","1551223718506","","","","","","",""
"null","","html-keyboard-response","446","2297957","0.0-8.0-0.0-2.7","41","<p><img class= 'stimulus' src='images/baseline/field 2.jpg'></img></p>","null","","1551223718606","","","","","","",""
"null","","html-keyboard-response","447","2298056","0.0-8.0-0.0-3.7","41","<p><img class= 'stimulus' src='images/baseline/landscape29.jpg'></img></p>","null","","1551223718706","","","","","","",""
"null","","html-keyboard-response","448","2298157","0.0-8.0-0.0-4.7","41","<p><img class= 'stimulus' src='images/baseline/pexels-photo-427676.jpeg'></img></p>","null","","1551223718806","4","","","","","",""
"null","","html-keyboard-response","449","2298257","0.0-8.0-0.0-5.7","41","<p><img class= 'stimulus' src='images/baseline/landscape35.jpg'></img></p>","null","","1551223718905","","","","","","",""
"null","","html-keyboard-response","450","2298357","0.0-8.0-0.0-6.7","41","<p><img class= 'stimulus' src='images/neutral/dog.jpg'></img></p>","null","","1551223719006","6","","","","","",""
"null","","html-keyboard-response","451","2298457","0.0-8.0-0.0-7.7","41","<p><img class= 'stimulus' src='images/baseline/05189v.jpg'></img></p>","null","","1551223719105","","","","","","",""
"null","","html-keyboard-response","452","2298558","0.0-8.0-0.0-8.7","41","<p><img class= 'stimulus' src='images/baseline/03114v.jpg'></img></p>","null","","1551223719205","8","","","","","",""
"null","","html-keyboard-response","453","2298657","0.0-8.0-0.0-9.7","41","<p><img class= 'stimulus' src='images/baseline/05242v.jpg'></img></p>","null","","1551223719305","","","","","","",""
"null","","html-keyboard-response","454","2298756","0.0-8.0-0.0-10.7","41","<p><img class= 'stimulus' src='images/baseline/Cold 7.jpg'></img></p>","null","","1551223719406","","","","","","",""
"null","","html-keyboard-response","455","2298857","0.0-8.0-0.0-11.7","41","<p><img class= 'stimulus' src='images/baseline/sunny-landscape-with-dry-brush-and-mountain-background.jpg'></img></p>","null","","1551223719507","","","","","","",""
"null","","html-keyboard-response","456","2298956","0.0-8.0-0.0-12.7","41","<p><img class= 'stimulus' src='images/baseline/hiking-trail.jpg'></img></p>","null","","1551223719607","12","","","","","",""
"null","","html-keyboard-response","457","2299057","0.0-8.0-0.0-13.7","41","<p><img class= 'stimulus' src='images/baseline/house7.jpg'></img></p>","null","","1551223719706","","","","","","",""
"null","","html-keyboard-response","458","2299157","0.0-8.0-0.0-14.7","41","<p><img class= 'stimulus left-rotate' src='images/target/lone-tree.png'></img></p>","null","","1551223719805","14","","","","","",""
"null","","html-keyboard-response","459","2299257","0.0-8.0-0.0-15.7","41","<p><img class= 'stimulus' src='images/baseline/05252v.jpg'></img></p>","null","","1551223719906","","","","","","",""
"null","","html-keyboard-response","460","2299357","0.0-8.0-0.0-16.7","41","<p><img class= 'stimulus' src='images/baseline/Street 2.jpg'></img></p>","null","","1551223720005","","","","","","",""
"null","","html-keyboard-response","461","2299473","0.0-8.0-0.0-17.7","41","<p><img class= 'stimulus' src='images/baseline/05203v.jpg'></img></p>","null","","1551223720105","","","","","","",""
"1565.999999991618","","html-button-response","462","2302045","0.0-8.0-0.0-18.7","41","<div class = ""response_question"">WAS THE IMAGE ROTATED...</div>","","1","","","6","8","neu","left","test","true"
"710.4000000110827","","html-button-response","463","2302756","0.0-8.0-0.0-0.8","41","","","0","","","","","","","",""
"null","","html-keyboard-response","464","2302840","0.0-8.0-0.0-1.8","41","<p><img class= 'stimulus' src='images/baseline/field 3.jpg'></img></p>","null","","1551223723489","","","","","","",""
"null","","html-keyboard-response","465","2302940","0.0-8.0-0.0-2.8","41","<p><img class= 'stimulus' src='images/baseline/Beach 3.jpg'></img></p>","null","","1551223723589","","","","","","",""
"null","","html-keyboard-response","466","2303041","0.0-8.0-0.0-3.8","41","<p><img class= 'stimulus' src='images/baseline/Skijump 1.jpg'></img></p>","null","","1551223723689","","","","","","",""
"null","","html-keyboard-response","467","2303140","0.0-8.0-0.0-4.8","41","<p><img class= 'stimulus' src='images/negative/Snake 4.jpg'></img></p>","null","","1551223723789","4","","","","","",""
"null","","html-keyboard-response","468","2303240","0.0-8.0-0.0-5.8","41","<p><img class= 'stimulus' src='images/baseline/03180v.jpg'></img></p>","null","","1551223723889","","","","","","",""
"null","","html-keyboard-response","469","2303340","0.0-8.0-0.0-6.8","41","<p><img class= 'stimulus left-rotate' src='images/target/landscape1.jpg'></img></p>","null","","1551223723989","6","","","","","",""
"null","","html-keyboard-response","470","2303440","0.0-8.0-0.0-7.8","41","<p><img class= 'stimulus' src='images/baseline/landscape11.jpg'></img></p>","null","","1551223724090","","","","","","",""
"null","","html-keyboard-response","471","2303540","0.0-8.0-0.0-8.8","41","<p><img class= 'stimulus' src='images/baseline/pexels-photo-1054289.jpeg'></img></p>","null","","1551223724188","8","","","","","",""
"null","","html-keyboard-response","472","2303641","0.0-8.0-0.0-9.8","41","<p><img class= 'stimulus' src='images/baseline/04179v.jpg'></img></p>","null","","1551223724289","","","","","","",""
"null","","html-keyboard-response","473","2303740","0.0-8.0-0.0-10.8","41","<p><img class= 'stimulus' src='images/baseline/landscape2.jpg'></img></p>","null","","1551223724389","","","","","","",""
"null","","html-keyboard-response","474","2303840","0.0-8.0-0.0-11.8","41","<p><img class= 'stimulus' src='images/baseline/02982v.jpg'></img></p>","null","","1551223724488","","","","","","",""
"null","","html-keyboard-response","475","2303940","0.0-8.0-0.0-12.8","41","<p><img class= 'stimulus' src='images/baseline/farmhouse2.jpg'></img></p>","null","","1551223724590","12","","","","","",""
"null","","html-keyboard-response","476","2304040","0.0-8.0-0.0-13.8","41","<p><img class= 'stimulus' src='images/baseline/pexels-photo-414491.jpeg'></img></p>","null","","1551223724689","","","","","","",""
"null","","html-keyboard-response","477","2304140","0.0-8.0-0.0-14.8","41","<p><img class= 'stimulus' src='images/baseline/05255v.jpg'></img></p>","null","","1551223724789","14","","","","","",""
"null","","html-keyboard-response","478","2304240","0.0-8.0-0.0-15.8","41","<p><img class= 'stimulus' src='images/baseline/pexels-photo-1048039.jpeg'></img></p>","null","","1551223724889","","","","","","",""
"null","","html-keyboard-response","479","2304340","0.0-8.0-0.0-16.8","41","<p><img class= 'stimulus' src='images/baseline/building_at_national_conservation.jpg'></img></p>","null","","1551223724989","","","","","","",""
"null","","html-keyboard-response","480","2304458","0.0-8.0-0.0-17.8","41","<p><img class= 'stimulus' src='images/baseline/Lake 9.jpg'></img></p>","null","","1551223725089","","","","","","",""
"2396.8000000165775","","html-button-response","481","2307861","0.0-8.0-0.0-18.8","41","<div class = ""response_question"">WAS THE IMAGE ROTATED...</div>","","2","","","4","2","neg","left","test","false"
"886.1000000033528","","html-button-response","482","2308749","0.0-8.0-0.0-0.9","41","","","0","","","","","","","",""
"null","","html-keyboard-response","483","2308825","0.0-8.0-0.0-1.9","41","<p><img class= 'stimulus' src='images/baseline/landscape23.jpg'></img></p>","null","","1551223729472","","","","","","",""
"null","","html-keyboard-response","484","2308924","0.0-8.0-0.0-2.9","41","<p><img class= 'stimulus' src='images/baseline/pexels-photo-440731.jpeg'></img></p>","null","","1551223729573","","","","","","",""
"null","","html-keyboard-response","485","2309024","0.0-8.0-0.0-3.9","41","<p><img class= 'stimulus' src='images/baseline/flooded-bridge.jpg'></img></p>","null","","1551223729672","","","","","","",""
"null","","html-keyboard-response","486","2309124","0.0-8.0-0.0-4.9","41","<p><img class= 'stimulus' src='images/baseline/geese-flying-over-lake-at-dusk.jpg'></img></p>","null","","1551223729772","4","","","","","",""
"null","","html-keyboard-response","487","2309224","0.0-8.0-0.0-5.9","41","<p><img class= 'stimulus' src='images/baseline/Street 1.jpg'></img></p>","null","","1551223729872","","","","","","",""
"null","","html-keyboard-response","488","2309323","0.0-8.0-0.0-6.9","41","<p><img class= 'stimulus' src='images/baseline/landscape22.jpg'></img></p>","null","","1551223729972","6","","","","","",""
"null","","html-keyboard-response","489","2309424","0.0-8.0-0.0-7.9","41","<p><img class= 'stimulus' src='images/baseline/autumn-landscape-with-lake-fall-trees-mountains.jpg'></img></p>","null","","1551223730072","","","","","","",""
"null","","html-keyboard-response","490","2309524","0.0-8.0-0.0-8.9","41","<p><img class= 'stimulus' src='images/baseline/pexels-photo-259280.jpeg'></img></p>","null","","1551223730173","8","","","","","",""
"null","","html-keyboard-response","491","2309624","0.0-8.0-0.0-9.9","41","<p><img class= 'stimulus' src='images/baseline/Waterfall 1.jpg'></img></p>","null","","1551223730273","","","","","","",""
"null","","html-keyboard-response","492","2309724","0.0-8.0-0.0-10.9","41","<p><img class= 'stimulus' src='images/baseline/pexels-photo-541101.jpeg'></img></p>","null","","1551223730371","","","","","","",""
"null","","html-keyboard-response","493","2309824","0.0-8.0-0.0-11.9","41","<p><img class= 'stimulus' src='images/baseline/lone-old-cottonwood-tree.jpg'></img></p>","null","","1551223730472","","","","","","",""
"null","","html-keyboard-response","494","2309923","0.0-8.0-0.0-12.9","41","<p><img class= 'stimulus' src='images/target/lighthouse-843522_640.jpg'></img></p>","null","","1551223730573","12","","","","","",""
"null","","html-keyboard-response","495","2310023","0.0-8.0-0.0-13.9","41","<p><img class= 'stimulus' src='images/baseline/architecture_modern_architecture_852928.jpg'></img></p>","null","","1551223730672","","","","","","",""
"null","","html-keyboard-response","496","2310124","0.0-8.0-0.0-14.9","41","<p><img class= 'stimulus' src='images/baseline/04063v.jpg'></img></p>","null","","1551223730772","14","","","","","",""
"null","","html-keyboard-response","497","2310224","0.0-8.0-0.0-15.9","41","<p><img class= 'stimulus' src='images/baseline/landscape3.jpg'></img></p>","null","","1551223730872","","","","","","",""
"null","","html-keyboard-response","498","2310325","0.0-8.0-0.0-16.9","41","<p><img class= 'stimulus' src='images/baseline/cranes 1.jpg'></img></p>","null","","1551223730973","","","","","","",""
"null","","html-keyboard-response","499","2310441","0.0-8.0-0.0-17.9","41","<p><img class= 'stimulus' src='images/baseline/Path 1.jpg'></img></p>","null","","1551223731072","","","","","","",""
"1962.700000003446","","html-button-response","500","2313421","0.0-8.0-0.0-18.9","41","<div class = ""response_question"">WAS THE IMAGE ROTATED...</div>","","4","","","4","8","bas","right","test","true"
"4086.1000000149943","","html-button-response","501","2317508","0.0-8.0-0.0-0.10","41","","","0","","","","","","","",""
"null","","html-keyboard-response","502","2317591","0.0-8.0-0.0-1.10","41","<p><img class= 'stimulus' src='images/baseline/05279v.jpg'></img></p>","null","","1551223738238","","","","","","",""
"null","","html-keyboard-response","503","2317690","0.0-8.0-0.0-2.10","41","<p><img class= 'stimulus' src='images/baseline/building4.jpg'></img></p>","null","","1551223738340","","","","","","",""
"null","","html-keyboard-response","504","2317791","0.0-8.0-0.0-3.10","41","<p><img class= 'stimulus' src='images/baseline/03148v.jpg'></img></p>","null","","1551223738439","","","","","","",""
"null","","html-keyboard-response","505","2317890","0.0-8.0-0.0-4.10","41","<p><img class= 'stimulus' src='images/neutral/sheep.png'></img></p>","null","","1551223738539","4","","","","","",""
"null","","html-keyboard-response","506","2317991","0.0-8.0-0.0-5.10","41","<p><img class= 'stimulus' src='images/baseline/landscape40.jpg'></img></p>","null","","1551223738640","","","","","","",""
