"rt","responses","trial_type","trial_index","time_elapsed","internal_node_id","participant_id","stimulus","key_press","button_pressed","stim_onset","sequence_position","distractor_position","target_lag","distractor_type","target_orientation","phase","correct"
"13762.699999999997","{""Q0"":""12""}","survey-text","0","13767","0.0-0.0","12","","","","","","","","","","",""
"2074077.4000000001","","html-keyboard-response","1","2087855","0.0-1.0","12","Welcome to the experiment.","67","","","","","","","","",""
"18162.299999999814","","html-button-response","2","2106022","0.0-2.0","12","<p>Several images will be presented sequentially.        Each image will only be on the screen for about 100 milliseconds.</p>        <p> One of the images may be rotated 90 degrees right or left.        Watch for this image and remember if it is rotated right or left.</p>               <p>Images of people and animals will appear, and sometimes they will be unpleasant.        These will never be the rotated target image.</p>","","0","","","","","","","",""
"3542.0000000004657","","html-button-response","3","2109565","0.0-3.0","12","<p><img class=""stimulus left-rotate"" src=""images/target/landscape20.jpg""></img></p><p>This is an example of an image rotated to the left.</p>","","0","","","","","","","",""
"2302.899999999441","","html-button-response","4","2111869","0.0-4.0","12","<p><img class=""stimulus"" src=""images/target/mitre peak.jpg""></img></p><p>This is an example of an image rotated to the right.</p>","","0","","","","","","","",""
"29462.899999999907","","html-button-response","5","2141333","0.0-5.0","12","<p>We will now begin a short practice session.</p>         <p>A + symbol will appear in the middle of the screen. Please fix your gaze on the center of the +, and then click the mouse button to begin the image sequence.</p>         <p>Please avoid blinking or eye movements while the images are on the screen.</p>        <p>The image sequence will start relatively slow. After a few sequences, it will speed up.</p>","","0","","","","","","","",""
"13070.799999999814","","html-button-response","6","2154404","0.0-6.0-0.0","12","","","0","","","","","","","",""
"null","","html-keyboard-response","7","2154590","0.0-6.0-1.0","12","<p><img class= 'stimulus' src='images/baseline/grand-teton-mountains.jpg'></img></p>","null","","1549934984834","","","","","","",""
"null","","html-keyboard-response","8","2154790","0.0-6.0-2.0","12","<p><img class= 'stimulus' src='images/baseline/cranes 1.jpg'></img></p>","null","","1549934985034","","","","","","",""
"null","","html-keyboard-response","9","2154990","0.0-6.0-3.0","12","<p><img class= 'stimulus' src='images/baseline/Kocherbaumwald-01.jpg'></img></p>","null","","1549934985235","","","","","","",""
"null","","html-keyboard-response","10","2155190","0.0-6.0-4.0","12","<p><img class= 'stimulus' src='images/baseline/Lake 7.jpg'></img></p>","null","","1549934985434","4","","","","","",""
"null","","html-keyboard-response","11","2155390","0.0-6.0-5.0","12","<p><img class= 'stimulus' src='images/baseline/04229v.jpg'></img></p>","null","","1549934985635","","","","","","",""
"null","","html-keyboard-response","12","2155590","0.0-6.0-6.0","12","<p><img class= 'stimulus' src='images/target/9525-a-lonely-single-tree-in-a-field-pv.jpg'></img></p>","null","","1549934985834","6","","","","","",""
"null","","html-keyboard-response","13","2155790","0.0-6.0-7.0","12","<p><img class= 'stimulus' src='images/baseline/02971v.jpg'></img></p>","null","","1549934986036","","","","","","",""
"null","","html-keyboard-response","14","2155990","0.0-6.0-8.0","12","<p><img class= 'stimulus' src='images/baseline/Sidewalk 4.jpg'></img></p>","null","","1549934986235","8","","","","","",""
"null","","html-keyboard-response","15","2156190","0.0-6.0-9.0","12","<p><img class= 'stimulus' src='images/baseline/landscape12.jpg'></img></p>","null","","1549934986435","","","","","","",""
"null","","html-keyboard-response","16","2156390","0.0-6.0-10.0","12","<p><img class= 'stimulus' src='images/baseline/Lake 15.jpg'></img></p>","null","","1549934986634","","","","","","",""
"null","","html-keyboard-response","17","2156591","0.0-6.0-11.0","12","<p><img class= 'stimulus' src='images/baseline/05167v.jpg'></img></p>","null","","1549934986836","","","","","","",""
"null","","html-keyboard-response","18","2156790","0.0-6.0-12.0","12","<p><img class= 'stimulus' src='images/baseline/Peyto_Lake-Banff_NP-Canada.jpg'></img></p>","null","","1549934987034","12","","","","","",""
"null","","html-keyboard-response","19","2156990","0.0-6.0-13.0","12","<p><img class= 'stimulus' src='images/baseline/03114v.jpg'></img></p>","null","","1549934987236","","","","","","",""
"null","","html-keyboard-response","20","2157190","0.0-6.0-14.0","12","<p><img class= 'stimulus' src='images/baseline/building3.jpg'></img></p>","null","","1549934987435","14","","","","","",""
"null","","html-keyboard-response","21","2157390","0.0-6.0-15.0","12","<p><img class= 'stimulus' src='images/baseline/pexels-photo-427676.jpeg'></img></p>","null","","1549934987634","","","","","","",""
"null","","html-keyboard-response","22","2157591","0.0-6.0-16.0","12","<p><img class= 'stimulus' src='images/baseline/04158v.jpg'></img></p>","null","","1549934987834","","","","","","",""
"null","","html-keyboard-response","23","2157806","0.0-6.0-17.0","12","<p><img class= 'stimulus' src='images/baseline/4k-wallpaper-agriculture-clouds-842711.jpg'></img></p>","null","","1549934988035","","","","","","",""
"7337","","html-button-response","24","2166149","0.0-6.0-18.0","12","<div class = ""response_question"">WAS THE IMAGE ROTATED...</div>","","5","","","4","2","bas","right","practice","false"
"7493.399999999441","","html-button-response","25","2173644","0.0-6.0-0.1","12","","","0","","","","","","","",""
"null","","html-keyboard-response","26","2173840","0.0-6.0-1.1","12","<p><img class= 'stimulus' src='images/baseline/Waterfall 1.jpg'></img></p>","null","","1549935004084","","","","","","",""
"null","","html-keyboard-response","27","2174039","0.0-6.0-2.1","12","<p><img class= 'stimulus' src='images/baseline/05145v.jpg'></img></p>","null","","1549935004284","","","","","","",""
"null","","html-keyboard-response","28","2174240","0.0-6.0-3.1","12","<p><img class= 'stimulus' src='images/baseline/pexels-photo-1054289.jpeg'></img></p>","null","","1549935004485","","","","","","",""
"null","","html-keyboard-response","29","2174440","0.0-6.0-4.1","12","<p><img class= 'stimulus' src='images/baseline/04062v.jpg'></img></p>","null","","1549935004684","4","","","","","",""
"null","","html-keyboard-response","30","2174640","0.0-6.0-5.1","12","<p><img class= 'stimulus' src='images/baseline/house6.jpg'></img></p>","null","","1549935004885","","","","","","",""
"null","","html-keyboard-response","31","2174840","0.0-6.0-6.1","12","<p><img class= 'stimulus left-rotate' src='images/target/Tree-Landscape-Winter-Nature-Winter-Trees-Snow-2117951.jpg'></img></p>","null","","1549935005086","6","","","","","",""
"null","","html-keyboard-response","32","2175041","0.0-6.0-7.1","12","<p><img class= 'stimulus' src='images/baseline/Desert_View_Indian_Wells.jpg'></img></p>","null","","1549935005285","","","","","","",""
"null","","html-keyboard-response","33","2175241","0.0-6.0-8.1","12","<p><img class= 'stimulus' src='images/baseline/building16.jpg'></img></p>","null","","1549935005485","8","","","","","",""
"null","","html-keyboard-response","34","2175441","0.0-6.0-9.1","12","<p><img class= 'stimulus' src='images/baseline/house8.jpg'></img></p>","null","","1549935005685","","","","","","",""
"null","","html-keyboard-response","35","2175640","0.0-6.0-10.1","12","<p><img class= 'stimulus' src='images/baseline/04196v.jpg'></img></p>","null","","1549935005885","","","","","","",""
"null","","html-keyboard-response","36","2175841","0.0-6.0-11.1","12","<p><img class= 'stimulus' src='images/baseline/snowy tree.jpg'></img></p>","null","","1549935006085","","","","","","",""
"null","","html-keyboard-response","37","2176041","0.0-6.0-12.1","12","<p><img class= 'stimulus' src='images/baseline/landscape7.jpg'></img></p>","null","","1549935006285","12","","","","","",""
"null","","html-keyboard-response","38","2176240","0.0-6.0-13.1","12","<p><img class= 'stimulus' src='images/baseline/05280v.jpg'></img></p>","null","","1549935006485","","","","","","",""
"null","","html-keyboard-response","39","2176441","0.0-6.0-14.1","12","<p><img class= 'stimulus' src='images/baseline/field 3.jpg'></img></p>","null","","1549935006686","14","","","","","",""
"null","","html-keyboard-response","40","2176641","0.0-6.0-15.1","12","<p><img class= 'stimulus' src='images/baseline/03212v.jpg'></img></p>","null","","1549935006885","","","","","","",""
"null","","html-keyboard-response","41","2176842","0.0-6.0-16.1","12","<p><img class= 'stimulus' src='images/baseline/lookout_tower.jpg'></img></p>","null","","1549935007085","","","","","","",""
"null","","html-keyboard-response","42","2177058","0.0-6.0-17.1","12","<p><img class= 'stimulus' src='images/baseline/04014v.jpg'></img></p>","null","","1549935007287","","","","","","",""
"1773.8999999994412","","html-button-response","43","2179837","0.0-6.0-18.1","12","<div class = ""response_question"">WAS THE IMAGE ROTATED...</div>","","0","","","4","2","bas","left","practice","true"
"2774.2999999998137","","html-button-response","44","2182613","0.0-6.0-0.2","12","","","0","","","","","","","",""
"null","","html-keyboard-response","45","2182791","0.0-6.0-1.2","12","<p><img class= 'stimulus' src='images/baseline/Sky 1.jpg'></img></p>","null","","1549935013036","","","","","","",""
"null","","html-keyboard-response","46","2182991","0.0-6.0-2.2","12","<p><img class= 'stimulus' src='images/baseline/red rocks from afar.jpg'></img></p>","null","","1549935013235","","","","","","",""
"null","","html-keyboard-response","47","2183191","0.0-6.0-3.2","12","<p><img class= 'stimulus' src='images/baseline/landscape15.jpg'></img></p>","null","","1549935013435","","","","","","",""
"null","","html-keyboard-response","48","2183392","0.0-6.0-4.2","12","<p><img class= 'stimulus' src='images/baseline/04201v.jpg'></img></p>","null","","1549935013635","4","","","","","",""
"null","","html-keyboard-response","49","2183592","0.0-6.0-5.2","12","<p><img class= 'stimulus' src='images/baseline/03204v.jpg'></img></p>","null","","1549935013835","","","","","","",""
"null","","html-keyboard-response","50","2183791","0.0-6.0-6.2","12","<p><img class= 'stimulus' src='images/baseline/04010v.jpg'></img></p>","null","","1549935014036","6","","","","","",""
"null","","html-keyboard-response","51","2183992","0.0-6.0-7.2","12","<p><img class= 'stimulus' src='images/baseline/02982v.jpg'></img></p>","null","","1549935014236","","","","","","",""
"null","","html-keyboard-response","52","2184192","0.0-6.0-8.2","12","<p><img class= 'stimulus' src='images/baseline/05131v.jpg'></img></p>","null","","1549935014436","8","","","","","",""
"null","","html-keyboard-response","53","2184393","0.0-6.0-9.2","12","<p><img class= 'stimulus' src='images/baseline/landscape37.jpg'></img></p>","null","","1549935014636","","","","","","",""
"null","","html-keyboard-response","54","2184593","0.0-6.0-10.2","12","<p><img class= 'stimulus' src='images/baseline/valley 1.jpg'></img></p>","null","","1549935014837","","","","","","",""
"null","","html-keyboard-response","55","2184792","0.0-6.0-11.2","12","<p><img class= 'stimulus' src='images/baseline/architecture-956332_1280.jpg'></img></p>","null","","1549935015036","","","","","","",""
"null","","html-keyboard-response","56","2184993","0.0-6.0-12.2","12","<p><img class= 'stimulus left-rotate' src='images/target/pexels-photo-932328.jpeg'></img></p>","null","","1549935015236","12","","","","","",""
"null","","html-keyboard-response","57","2185192","0.0-6.0-13.2","12","<p><img class= 'stimulus' src='images/baseline/Bridge 1.jpg'></img></p>","null","","1549935015438","","","","","","",""
"null","","html-keyboard-response","58","2185393","0.0-6.0-14.2","12","<p><img class= 'stimulus' src='images/baseline/04040v.jpg'></img></p>","null","","1549935015638","14","","","","","",""
"null","","html-keyboard-response","59","2185593","0.0-6.0-15.2","12","<p><img class= 'stimulus' src='images/baseline/Sunset 4.jpg'></img></p>","null","","1549935015837","","","","","","",""
"null","","html-keyboard-response","60","2185792","0.0-6.0-16.2","12","<p><img class= 'stimulus' src='images/baseline/05255v.jpg'></img></p>","null","","1549935016037","","","","","","",""
"null","","html-keyboard-response","61","2186010","0.0-6.0-17.2","12","<p><img class= 'stimulus' src='images/baseline/empire-state-building.jpg'></img></p>","null","","1549935016238","","","","","","",""
"2910.5","","html-button-response","62","2189924","0.0-6.0-18.2","12","<div class = ""response_question"">WAS THE IMAGE ROTATED...</div>","","0","","","4","8","bas","left","practice","true"
"1974.7000000001863","","html-button-response","63","2191901","0.0-6.0-0.3","12","","","0","","","","","","","",""
"null","","html-keyboard-response","64","2192075","0.0-6.0-1.3","12","<p><img class= 'stimulus' src='images/baseline/autumn-landscape-with-lake-fall-trees-mountains.jpg'></img></p>","null","","1549935022319","","","","","","",""
"null","","html-keyboard-response","65","2192273","0.0-6.0-2.3","12","<p><img class= 'stimulus' src='images/baseline/Sunset 6.jpg'></img></p>","null","","1549935022519","","","","","","",""
"null","","html-keyboard-response","66","2192474","0.0-6.0-3.3","12","<p><img class= 'stimulus' src='images/baseline/landscape35.jpg'></img></p>","null","","1549935022719","","","","","","",""
"null","","html-keyboard-response","67","2192674","0.0-6.0-4.3","12","<p><img class= 'stimulus' src='images/baseline/Dock 1.jpg'></img></p>","null","","1549935022919","4","","","","","",""
"null","","html-keyboard-response","68","2192875","0.0-6.0-5.3","12","<p><img class= 'stimulus' src='images/baseline/05158v.jpg'></img></p>","null","","1549935023120","","","","","","",""
"null","","html-keyboard-response","69","2193076","0.0-6.0-6.3","12","<p><img class= 'stimulus' src='images/baseline/02988v.jpg'></img></p>","null","","1549935023320","6","","","","","",""
"null","","html-keyboard-response","70","2193276","0.0-6.0-7.3","12","<p><img class= 'stimulus' src='images/baseline/02962v.jpg'></img></p>","null","","1549935023520","","","","","","",""
"null","","html-keyboard-response","71","2193476","0.0-6.0-8.3","12","<p><img class= 'stimulus' src='images/baseline/03098v.jpg'></img></p>","null","","1549935023720","8","","","","","",""
"null","","html-keyboard-response","72","2193676","0.0-6.0-9.3","12","<p><img class= 'stimulus' src='images/baseline/building12.jpg'></img></p>","null","","1549935023920","","","","","","",""
"null","","html-keyboard-response","73","2193876","0.0-6.0-10.3","12","<p><img class= 'stimulus' src='images/baseline/04060v.jpg'></img></p>","null","","1549935024120","","","","","","",""
"null","","html-keyboard-response","74","2194075","0.0-6.0-11.3","12","<p><img class= 'stimulus' src='images/baseline/Beach 3.jpg'></img></p>","null","","1549935024321","","","","","","",""
"null","","html-keyboard-response","75","2194276","0.0-6.0-12.3","12","<p><img class= 'stimulus' src='images/baseline/05242v.jpg'></img></p>","null","","1549935024521","12","","","","","",""
"null","","html-keyboard-response","76","2194476","0.0-6.0-13.3","12","<p><img class= 'stimulus' src='images/baseline/landscape3.jpg'></img></p>","null","","1549935024719","","","","","","",""
"null","","html-keyboard-response","77","2194676","0.0-6.0-14.3","12","<p><img class= 'stimulus left-rotate' src='images/target/church-2306128_640.jpg'></img></p>","null","","1549935024921","14","","","","","",""
"null","","html-keyboard-response","78","2194876","0.0-6.0-15.3","12","<p><img class= 'stimulus' src='images/baseline/pexels-photo-1048039.jpeg'></img></p>","null","","1549935025121","","","","","","",""
"null","","html-keyboard-response","79","2195077","0.0-6.0-16.3","12","<p><img class= 'stimulus' src='images/baseline/hills 3.jpg'></img></p>","null","","1549935025321","","","","","","",""
"null","","html-keyboard-response","80","2195293","0.0-6.0-17.3","12","<p><img class= 'stimulus' src='images/baseline/Lake 3.jpg'></img></p>","null","","1549935025522","","","","","","",""
"1711.0000000004657","","html-button-response","81","2198013","0.0-6.0-18.3","12","<div class = ""response_question"">WAS THE IMAGE ROTATED...</div>","","0","","","6","8","bas","left","practice","true"
"2478.5999999996275","","html-button-response","82","2200492","0.0-6.0-0.4","12","","","0","","","","","","","",""
"null","","html-keyboard-response","83","2200626","0.0-6.0-1.4","12","<p><img class= 'stimulus' src='images/baseline/red-rocks-park.jpg'></img></p>","null","","1549935030920","","","","","","",""
"null","","html-keyboard-response","84","2200774","0.0-6.0-2.4","12","<p><img class= 'stimulus' src='images/baseline/farmhouse7.jpg'></img></p>","null","","1549935031070","","","","","","",""
"null","","html-keyboard-response","85","2200925","0.0-6.0-3.4","12","<p><img class= 'stimulus' src='images/baseline/__08_-_ITALY_-_Forli_under_snow_-_winter_landscape_of_city_(christmas).jpg'></img></p>","null","","1549935031220","","","","","","",""
"null","","html-keyboard-response","86","2201075","0.0-6.0-4.4","12","<p><img class= 'stimulus' src='images/baseline/Street 4.jpg'></img></p>","null","","1549935031369","4","","","","","",""
"null","","html-keyboard-response","87","2201225","0.0-6.0-5.4","12","<p><img class= 'stimulus' src='images/baseline/Grass 6.jpg'></img></p>","null","","1549935031519","","","","","","",""
"null","","html-keyboard-response","88","2201375","0.0-6.0-6.4","12","<p><img class= 'stimulus' src='images/baseline/house10.jpg'></img></p>","null","","1549935031670","6","","","","","",""
"null","","html-keyboard-response","89","2201524","0.0-6.0-7.4","12","<p><img class= 'stimulus' src='images/baseline/city-silhouette-at-sunset-871291580819Esw.jpg'></img></p>","null","","1549935031820","","","","","","",""
"null","","html-keyboard-response","90","2201675","0.0-6.0-8.4","12","<p><img class= 'stimulus' src='images/baseline/chicago-skyline-at-night-1476869511p8U.jpg'></img></p>","null","","1549935031969","8","","","","","",""
"null","","html-keyboard-response","91","2201825","0.0-6.0-9.4","12","<p><img class= 'stimulus' src='images/baseline/03148v.jpg'></img></p>","null","","1549935032119","","","","","","",""
"null","","html-keyboard-response","92","2201975","0.0-6.0-10.4","12","<p><img class= 'stimulus' src='images/baseline/church-silhouette-8712964986014Kb.jpg'></img></p>","null","","1549935032269","","","","","","",""
"null","","html-keyboard-response","93","2202126","0.0-6.0-11.4","12","<p><img class= 'stimulus' src='images/baseline/tennis-court-net-buried-in-snow.jpg'></img></p>","null","","1549935032419","","","","","","",""
"null","","html-keyboard-response","94","2202274","0.0-6.0-12.4","12","<p><img class= 'stimulus' src='images/baseline/pexels-photo-534164.jpeg'></img></p>","null","","1549935032569","12","","","","","",""
"null","","html-keyboard-response","95","2202425","0.0-6.0-13.4","12","<p><img class= 'stimulus' src='images/baseline/river 1.jpg'></img></p>","null","","1549935032719","","","","","","",""
"null","","html-keyboard-response","96","2202575","0.0-6.0-14.4","12","<p><img class= 'stimulus' src='images/target/shotstash_0036-1-1100x734.jpg'></img></p>","null","","1549935032869","14","","","","","",""
"null","","html-keyboard-response","97","2202724","0.0-6.0-15.4","12","<p><img class= 'stimulus' src='images/baseline/Aletschgletscher-Eggishorn.jpg'></img></p>","null","","1549935033018","","","","","","",""
"null","","html-keyboard-response","98","2202875","0.0-6.0-16.4","12","<p><img class= 'stimulus' src='images/baseline/landscape34.jpg'></img></p>","null","","1549935033169","","","","","","",""
"null","","html-keyboard-response","99","2203041","0.0-6.0-17.4","12","<p><img class= 'stimulus' src='images/baseline/pexels-photo-280222.jpeg'></img></p>","null","","1549935033319","","","","","","",""
"2191.4999999995343","","html-button-response","100","2206236","0.0-6.0-18.4","12","<div class = ""response_question"">WAS THE IMAGE ROTATED...</div>","","3","","","6","8","bas","right","practice","true"
"2390.2999999998137","","html-button-response","101","2208628","0.0-6.0-0.5","12","","","0","","","","","","","",""
"null","","html-keyboard-response","102","2208758","0.0-6.0-1.5","12","<p><img class= 'stimulus' src='images/baseline/pexels-photo-414491.jpeg'></img></p>","null","","1549935039051","","","","","","",""
"null","","html-keyboard-response","103","2208906","0.0-6.0-2.5","12","<p><img class= 'stimulus' src='images/baseline/Cold 7.jpg'></img></p>","null","","1549935039202","","","","","","",""
"null","","html-keyboard-response","104","2209057","0.0-6.0-3.5","12","<p><img class= 'stimulus' src='images/baseline/foreclosed_home.jpg'></img></p>","null","","1549935039353","","","","","","",""
"null","","html-keyboard-response","105","2209207","0.0-6.0-4.5","12","<p><img class= 'stimulus' src='images/baseline/building4.jpg'></img></p>","null","","1549935039502","4","","","","","",""
"null","","html-keyboard-response","106","2209357","0.0-6.0-5.5","12","<p><img class= 'stimulus' src='images/baseline/Nature 2.jpg'></img></p>","null","","1549935039653","","","","","","",""
"null","","html-keyboard-response","107","2209507","0.0-6.0-6.5","12","<p><img class= 'stimulus' src='images/baseline/Lake 9.jpg'></img></p>","null","","1549935039802","6","","","","","",""
"null","","html-keyboard-response","108","2209657","0.0-6.0-7.5","12","<p><img class= 'stimulus' src='images/baseline/03217v.jpg'></img></p>","null","","1549935039951","","","","","","",""
"null","","html-keyboard-response","109","2209808","0.0-6.0-8.5","12","<p><img class= 'stimulus' src='images/target/building2.jpg'></img></p>","null","","1549935040102","8","","","","","",""
"null","","html-keyboard-response","110","2209957","0.0-6.0-9.5","12","<p><img class= 'stimulus' src='images/baseline/building6.jpg'></img></p>","null","","1549935040252","","","","","","",""
"null","","html-keyboard-response","111","2210107","0.0-6.0-10.5","12","<p><img class= 'stimulus' src='images/baseline/lake 1.jpg'></img></p>","null","","1549935040403","","","","","","",""
"null","","html-keyboard-response","112","2210257","0.0-6.0-11.5","12","<p><img class= 'stimulus' src='images/baseline/Beach 2.jpg'></img></p>","null","","1549935040552","","","","","","",""
"null","","html-keyboard-response","113","2210408","0.0-6.0-12.5","12","<p><img class= 'stimulus' src='images/baseline/horse_statue.jpg'></img></p>","null","","1549935040701","12","","","","","",""
"null","","html-keyboard-response","114","2210558","0.0-6.0-13.5","12","<p><img class= 'stimulus' src='images/baseline/hiking-trail.jpg'></img></p>","null","","1549935040851","","","","","","",""
"null","","html-keyboard-response","115","2210708","0.0-6.0-14.5","12","<p><img class= 'stimulus' src='images/baseline/Lake 8.jpg'></img></p>","null","","1549935041001","14","","","","","",""
"null","","html-keyboard-response","116","2210858","0.0-6.0-15.5","12","<p><img class= 'stimulus' src='images/baseline/03075v.jpg'></img></p>","null","","1549935041152","","","","","","",""
"null","","html-keyboard-response","117","2211006","0.0-6.0-16.5","12","<p><img class= 'stimulus' src='images/baseline/building8.jpg'></img></p>","null","","1549935041302","","","","","","",""
"null","","html-keyboard-response","118","2211174","0.0-6.0-17.5","12","<p><img class= 'stimulus' src='images/baseline/Beach 8.jpg'></img></p>","null","","1549935041452","","","","","","",""
"2056.9999999995343","","html-button-response","119","2214237","0.0-6.0-18.5","12","<div class = ""response_question"">WAS THE IMAGE ROTATED...</div>","","3","","","6","2","bas","right","practice","true"
"6862.499999999534","","html-button-response","120","2221102","0.0-6.0-0.6","12","","","0","","","","","","","",""
"null","","html-keyboard-response","121","2221225","0.0-6.0-1.6","12","<p><img class= 'stimulus' src='images/baseline/Road 1.jpg'></img></p>","null","","1549935051520","","","","","","",""
"null","","html-keyboard-response","122","2221375","0.0-6.0-2.6","12","<p><img class= 'stimulus' src='images/baseline/valley 2.jpg'></img></p>","null","","1549935051669","","","","","","",""
"null","","html-keyboard-response","123","2221526","0.0-6.0-3.6","12","<p><img class= 'stimulus' src='images/baseline/lone-old-cottonwood-tree.jpg'></img></p>","null","","1549935051819","","","","","","",""
"null","","html-keyboard-response","124","2221675","0.0-6.0-4.6","12","<p><img class= 'stimulus' src='images/baseline/04021v.jpg'></img></p>","null","","1549935051971","4","","","","","",""
"null","","html-keyboard-response","125","2221826","0.0-6.0-5.6","12","<p><img class= 'stimulus' src='images/baseline/field 2.jpg'></img></p>","null","","1549935052119","","","","","","",""
"null","","html-keyboard-response","126","2221976","0.0-6.0-6.6","12","<p><img class= 'stimulus' src='images/baseline/landscape22.jpg'></img></p>","null","","1549935052271","6","","","","","",""
"null","","html-keyboard-response","127","2222126","0.0-6.0-7.6","12","<p><img class= 'stimulus' src='images/baseline/03045v.jpg'></img></p>","null","","1549935052421","","","","","","",""
"null","","html-keyboard-response","128","2222275","0.0-6.0-8.6","12","<p><img class= 'stimulus left-rotate' src='images/target/buildin2.png'></img></p>","null","","1549935052570","8","","","","","",""
"null","","html-keyboard-response","129","2222425","0.0-6.0-9.6","12","<p><img class= 'stimulus' src='images/baseline/farmhouse2.jpg'></img></p>","null","","1549935052720","","","","","","",""
"null","","html-keyboard-response","130","2222575","0.0-6.0-10.6","12","<p><img class= 'stimulus' src='images/baseline/dirt-road-or-trail-through-park.jpg'></img></p>","null","","1549935052870","","","","","","",""
"null","","html-keyboard-response","131","2222725","0.0-6.0-11.6","12","<p><img class= 'stimulus' src='images/baseline/03112v.jpg'></img></p>","null","","1549935053019","","","","","","",""
"null","","html-keyboard-response","132","2222875","0.0-6.0-12.6","12","<p><img class= 'stimulus' src='images/baseline/pexels-photo-750108.jpeg'></img></p>","null","","1549935053171","12","","","","","",""
"null","","html-keyboard-response","133","2223026","0.0-6.0-13.6","12","<p><img class= 'stimulus' src='images/baseline/03056v.jpg'></img></p>","null","","1549935053319","","","","","","",""
"null","","html-keyboard-response","134","2223176","0.0-6.0-14.6","12","<p><img class= 'stimulus' src='images/baseline/building5.jpg'></img></p>","null","","1549935053469","14","","","","","",""
"null","","html-keyboard-response","135","2223326","0.0-6.0-15.6","12","<p><img class= 'stimulus' src='images/baseline/pexels-photo-894312.jpeg'></img></p>","null","","1549935053620","","","","","","",""
"null","","html-keyboard-response","136","2223475","0.0-6.0-16.6","12","<p><img class= 'stimulus' src='images/baseline/flooded-bridge.jpg'></img></p>","null","","1549935053770","","","","","","",""
"null","","html-keyboard-response","137","2223643","0.0-6.0-17.6","12","<p><img class= 'stimulus' src='images/baseline/sunny-landscape-with-dry-brush-and-mountain-background.jpg'></img></p>","null","","1549935053919","","","","","","",""
"1455.3999999994412","","html-button-response","138","2226102","0.0-6.0-18.6","12","<div class = ""response_question"">WAS THE IMAGE ROTATED...</div>","","0","","","6","2","bas","left","practice","true"
"990.3999999999069","","html-button-response","139","2227093","0.0-6.0-0.7","12","","","0","","","","","","","",""
"null","","html-keyboard-response","140","2227225","0.0-6.0-1.7","12","<p><img class= 'stimulus' src='images/baseline/pexels-photo-1840893.jpeg'></img></p>","null","","1549935057520","","","","","","",""
"null","","html-keyboard-response","141","2227375","0.0-6.0-2.7","12","<p><img class= 'stimulus' src='images/baseline/landscape8.jpg'></img></p>","null","","1549935057670","","","","","","",""
"null","","html-keyboard-response","142","2227525","0.0-6.0-3.7","12","<p><img class= 'stimulus' src='images/baseline/sunset-over-the-lake.jpg'></img></p>","null","","1549935057819","","","","","","",""
"null","","html-keyboard-response","143","2227675","0.0-6.0-4.7","12","<p><img class= 'stimulus' src='images/baseline/landscape17.jpg'></img></p>","null","","1549935057970","4","","","","","",""
"null","","html-keyboard-response","144","2227825","0.0-6.0-5.7","12","<p><img class= 'stimulus' src='images/baseline/landscape19.jpg'></img></p>","null","","1549935058119","","","","","","",""
"null","","html-keyboard-response","145","2227976","0.0-6.0-6.7","12","<p><img class= 'stimulus' src='images/baseline/landscape6.jpg'></img></p>","null","","1549935058270","6","","","","","",""
"null","","html-keyboard-response","146","2228126","0.0-6.0-7.7","12","<p><img class= 'stimulus' src='images/baseline/04063v.jpg'></img></p>","null","","1549935058421","","","","","","",""
"null","","html-keyboard-response","147","2228276","0.0-6.0-8.7","12","<p><img class= 'stimulus' src='images/baseline/pexels-photo-1261728.jpeg'></img></p>","null","","1549935058570","8","","","","","",""
"null","","html-keyboard-response","148","2228425","0.0-6.0-9.7","12","<p><img class= 'stimulus' src='images/baseline/house7.jpg'></img></p>","null","","1549935058721","","","","","","",""
"null","","html-keyboard-response","149","2228575","0.0-6.0-10.7","12","<p><img class= 'stimulus' src='images/baseline/field 1.jpg'></img></p>","null","","1549935058869","","","","","","",""
"null","","html-keyboard-response","150","2228725","0.0-6.0-11.7","12","<p><img class= 'stimulus' src='images/baseline/landscape14.jpg'></img></p>","null","","1549935059019","","","","","","",""
"null","","html-keyboard-response","151","2228875","0.0-6.0-12.7","12","<p><img class= 'stimulus' src='images/target/italy-building-1206128_1280.jpg'></img></p>","null","","1549935059171","12","","","","","",""
"null","","html-keyboard-response","152","2229026","0.0-6.0-13.7","12","<p><img class= 'stimulus' src='images/baseline/kokkari-1523011968Xfr.jpg'></img></p>","null","","1549935059320","","","","","","",""
"null","","html-keyboard-response","153","2229174","0.0-6.0-14.7","12","<p><img class= 'stimulus' src='images/baseline/seoul-410266_1920.jpg'></img></p>","null","","1549935059469","14","","","","","",""
"null","","html-keyboard-response","154","2229326","0.0-6.0-15.7","12","<p><img class= 'stimulus' src='images/baseline/Bahia_Onelli_Parque_Nacional_Los_Glaciares_Patagonia_Argentina_Luca_Galuzzi_2005.jpg'></img></p>","null","","1549935059621","","","","","","",""
"null","","html-keyboard-response","155","2229475","0.0-6.0-16.7","12","<p><img class= 'stimulus' src='images/baseline/Skyscraper 2.jpg'></img></p>","null","","1549935059770","","","","","","",""
"null","","html-keyboard-response","156","2229642","0.0-6.0-17.7","12","<p><img class= 'stimulus' src='images/baseline/99_-_Machu_Picchu_-_Juin_2009.edit3.jpg'></img></p>","null","","1549935059920","","","","","","",""
"1189.9000000003725","","html-button-response","157","2231838","0.0-6.0-18.7","12","<div class = ""response_question"">WAS THE IMAGE ROTATED...</div>","","3","","","4","8","bas","right","practice","true"
"854.3000000002794","","html-button-response","158","2232694","0.0-6.0-0.8","12","","","0","","","","","","","",""
"null","","html-keyboard-response","159","2232775","0.0-6.0-1.8","12","<p><img class= 'stimulus' src='images/baseline/04085v.jpg'></img></p>","null","","1549935063120","","","","","","",""
"null","","html-keyboard-response","160","2232875","0.0-6.0-2.8","12","<p><img class= 'stimulus' src='images/baseline/pexels-photo-440731.jpeg'></img></p>","null","","1549935063220","","","","","","",""
"null","","html-keyboard-response","161","2232975","0.0-6.0-3.8","12","<p><img class= 'stimulus' src='images/baseline/pexels-photo-59321.jpeg'></img></p>","null","","1549935063319","","","","","","",""
"null","","html-keyboard-response","162","2233075","0.0-6.0-4.8","12","<p><img class= 'stimulus' src='images/baseline/Happy pose 3.jpg'></img></p>","null","","1549935063420","4","","","","","",""
"null","","html-keyboard-response","163","2233175","0.0-6.0-5.8","12","<p><img class= 'stimulus' src='images/baseline/farmhouse3.jpg'></img></p>","null","","1549935063520","","","","","","",""
"null","","html-keyboard-response","164","2233276","0.0-6.0-6.8","12","<p><img class= 'stimulus left-rotate' src='images/target/building5.jpg'></img></p>","null","","1549935063620","6","","","","","",""
"null","","html-keyboard-response","165","2233375","0.0-6.0-7.8","12","<p><img class= 'stimulus' src='images/baseline/Street 3.jpg'></img></p>","null","","1549935063720","","","","","","",""
"null","","html-keyboard-response","166","2233476","0.0-6.0-8.8","12","<p><img class= 'stimulus' src='images/baseline/Paysage_enneige_02.jpg'></img></p>","null","","1549935063821","8","","","","","",""
"null","","html-keyboard-response","167","2233575","0.0-6.0-9.8","12","<p><img class= 'stimulus' src='images/baseline/03162v.jpg'></img></p>","null","","1549935063920","","","","","","",""
"null","","html-keyboard-response","168","2233675","0.0-6.0-10.8","12","<p><img class= 'stimulus' src='images/baseline/04300v.jpg'></img></p>","null","","1549935064021","","","","","","",""
"null","","html-keyboard-response","169","2233775","0.0-6.0-11.8","12","<p><img class= 'stimulus' src='images/baseline/landscape16.jpg'></img></p>","null","","1549935064120","","","","","","",""
"null","","html-keyboard-response","170","2233875","0.0-6.0-12.8","12","<p><img class= 'stimulus' src='images/baseline/scenic-mountain-landscape.jpg'></img></p>","null","","1549935064220","12","","","","","",""
"null","","html-keyboard-response","171","2233975","0.0-6.0-13.8","12","<p><img class= 'stimulus' src='images/baseline/pexels-photo-1837621.jpeg'></img></p>","null","","1549935064320","","","","","","",""
"null","","html-keyboard-response","172","2234076","0.0-6.0-14.8","12","<p><img class= 'stimulus' src='images/baseline/05252v.jpg'></img></p>","null","","1549935064421","14","","","","","",""
"null","","html-keyboard-response","173","2234175","0.0-6.0-15.8","12","<p><img class= 'stimulus' src='images/baseline/house2.jpg'></img></p>","null","","1549935064519","","","","","","",""
"null","","html-keyboard-response","174","2234275","0.0-6.0-16.8","12","<p><img class= 'stimulus' src='images/baseline/Street 1.jpg'></img></p>","null","","1549935064620","","","","","","",""
"null","","html-keyboard-response","175","2234391","0.0-6.0-17.8","12","<p><img class= 'stimulus' src='images/baseline/pexels-photo-210617.jpeg'></img></p>","null","","1549935064721","","","","","","",""
"1241.1000000000931","","html-button-response","176","2236638","0.0-6.0-18.8","12","<div class = ""response_question"">WAS THE IMAGE ROTATED...</div>","","0","","","4","2","bas","left","practice","true"
"694.4999999995343","","html-button-response","177","2237334","0.0-6.0-0.9","12","","","0","","","","","","","",""
"null","","html-keyboard-response","178","2237409","0.0-6.0-1.9","12","<p><img class= 'stimulus' src='images/baseline/landscape36.jpg'></img></p>","null","","1549935067753","","","","","","",""
"null","","html-keyboard-response","179","2237509","0.0-6.0-2.9","12","<p><img class= 'stimulus' src='images/baseline/04130v.jpg'></img></p>","null","","1549935067853","","","","","","",""
"null","","html-keyboard-response","180","2237609","0.0-6.0-3.9","12","<p><img class= 'stimulus' src='images/baseline/geese-flying-over-lake-at-dusk.jpg'></img></p>","null","","1549935067953","","","","","","",""
"null","","html-keyboard-response","181","2237710","0.0-6.0-4.9","12","<p><img class= 'stimulus' src='images/baseline/vintage-art-deco-storefront.jpg'></img></p>","null","","1549935068053","4","","","","","",""
"null","","html-keyboard-response","182","2237809","0.0-6.0-5.9","12","<p><img class= 'stimulus' src='images/baseline/05279v.jpg'></img></p>","null","","1549935068154","","","","","","",""
"null","","html-keyboard-response","183","2237909","0.0-6.0-6.9","12","<p><img class= 'stimulus' src='images/target/oak-1913194_640.jpg'></img></p>","null","","1549935068253","6","","","","","",""
"null","","html-keyboard-response","184","2238008","0.0-6.0-7.9","12","<p><img class= 'stimulus' src='images/baseline/Path 1.jpg'></img></p>","null","","1549935068355","","","","","","",""
"null","","html-keyboard-response","185","2238108","0.0-6.0-8.9","12","<p><img class= 'stimulus' src='images/baseline/landscape23.jpg'></img></p>","null","","1549935068453","8","","","","","",""
"null","","html-keyboard-response","186","2238209","0.0-6.0-9.9","12","<p><img class= 'stimulus' src='images/baseline/pexels-photo-259280.jpeg'></img></p>","null","","1549935068553","","","","","","",""
"null","","html-keyboard-response","187","2238309","0.0-6.0-10.9","12","<p><img class= 'stimulus' src='images/baseline/house3.jpg'></img></p>","null","","1549935068654","","","","","","",""
"null","","html-keyboard-response","188","2238409","0.0-6.0-11.9","12","<p><img class= 'stimulus' src='images/baseline/building2.jpg'></img></p>","null","","1549935068754","","","","","","",""
"null","","html-keyboard-response","189","2238509","0.0-6.0-12.9","12","<p><img class= 'stimulus' src='images/baseline/landscape29.jpg'></img></p>","null","","1549935068854","12","","","","","",""
"null","","html-keyboard-response","190","2238609","0.0-6.0-13.9","12","<p><img class= 'stimulus' src='images/baseline/agriculture-countryside-crop-259280.jpg'></img></p>","null","","1549935068954","","","","","","",""
"null","","html-keyboard-response","191","2238709","0.0-6.0-14.9","12","<p><img class= 'stimulus' src='images/baseline/farmhouse9.jpg'></img></p>","null","","1549935069053","14","","","","","",""
"null","","html-keyboard-response","192","2238809","0.0-6.0-15.9","12","<p><img class= 'stimulus' src='images/baseline/04031v.jpg'></img></p>","null","","1549935069153","","","","","","",""
"null","","html-keyboard-response","193","2238909","0.0-6.0-16.9","12","<p><img class= 'stimulus' src='images/baseline/pexels-photo-808465.jpeg'></img></p>","null","","1549935069253","","","","","","",""
"null","","html-keyboard-response","194","2239026","0.0-6.0-17.9","12","<p><img class= 'stimulus' src='images/baseline/landscape1.jpg'></img></p>","null","","1549935069354","","","","","","",""
"1021.5","","html-button-response","195","2241054","0.0-6.0-18.9","12","<div class = ""response_question"">WAS THE IMAGE ROTATED...</div>","","3","","","4","2","bas","right","practice","true"
"806.2000000001863","","html-button-response","196","2241862","0.0-6.0-0.10","12","","","0","","","","","","","",""
"null","","html-keyboard-response","197","2241942","0.0-6.0-1.10","12","<p><img class= 'stimulus' src='images/baseline/Camping 10.jpg'></img></p>","null","","1549935072286","","","","","","",""
"null","","html-keyboard-response","198","2242042","0.0-6.0-2.10","12","<p><img class= 'stimulus' src='images/baseline/Dirt 2.jpg'></img></p>","null","","1549935072386","","","","","","",""
"null","","html-keyboard-response","199","2242143","0.0-6.0-3.10","12","<p><img class= 'stimulus' src='images/baseline/05189v.jpg'></img></p>","null","","1549935072486","","","","","","",""
"null","","html-keyboard-response","200","2242242","0.0-6.0-4.10","12","<p><img class= 'stimulus' src='images/baseline/architecture-1314416_1920.jpg'></img></p>","null","","1549935072586","4","","","","","",""
"null","","html-keyboard-response","201","2242342","0.0-6.0-5.10","12","<p><img class= 'stimulus' src='images/baseline/landscape38.jpg'></img></p>","null","","1549935072688","","","","","","",""
"null","","html-keyboard-response","202","2242442","0.0-6.0-6.10","12","<p><img class= 'stimulus' src='images/baseline/road 1(1).jpg'></img></p>","null","","1549935072786","6","","","","","",""
"null","","html-keyboard-response","203","2242543","0.0-6.0-7.10","12","<p><img class= 'stimulus' src='images/baseline/landscape13.jpg'></img></p>","null","","1549935072886","","","","","","",""
"null","","html-keyboard-response","204","2242642","0.0-6.0-8.10","12","<p><img class= 'stimulus' src='images/baseline/sun-through-winter-tree-branches1.jpg'></img></p>","null","","1549935072987","8","","","","","",""
"null","","html-keyboard-response","205","2242743","0.0-6.0-9.10","12","<p><img class= 'stimulus' src='images/baseline/farmhouse4.jpg'></img></p>","null","","1549935073087","","","","","","",""
"null","","html-keyboard-response","206","2242842","0.0-6.0-10.10","12","<p><img class= 'stimulus' src='images/baseline/trees 23.jpg'></img></p>","null","","1549935073188","","","","","","",""
"null","","html-keyboard-response","207","2242942","0.0-6.0-11.10","12","<p><img class= 'stimulus' src='images/baseline/03180v.jpg'></img></p>","null","","1549935073287","","","","","","",""
"null","","html-keyboard-response","208","2243042","0.0-6.0-12.10","12","<p><img class= 'stimulus' src='images/baseline/03041v.jpg'></img></p>","null","","1549935073387","12","","","","","",""
"null","","html-keyboard-response","209","2243142","0.0-6.0-13.10","12","<p><img class= 'stimulus' src='images/baseline/field 4.jpg'></img></p>","null","","1549935073486","","","","","","",""
"null","","html-keyboard-response","210","2243242","0.0-6.0-14.10","12","<p><img class= 'stimulus left-rotate' src='images/target/adventure-desert-landscape-6778.jpg'></img></p>","null","","1549935073586","14","","","","","",""
"null","","html-keyboard-response","211","2243342","0.0-6.0-15.10","12","<p><img class= 'stimulus' src='images/baseline/landscape33.jpg'></img></p>","null","","1549935073686","","","","","","",""
"null","","html-keyboard-response","212","2243442","0.0-6.0-16.10","12","<p><img class= 'stimulus' src='images/baseline/hills 4.jpg'></img></p>","null","","1549935073787","","","","","","",""
"null","","html-keyboard-response","213","2243560","0.0-6.0-17.10","12","<p><img class= 'stimulus' src='images/baseline/building_at_national_conservation.jpg'></img></p>","null","","1549935073888","","","","","","",""
"1104.7999999998137","","html-button-response","214","2245669","0.0-6.0-18.10","12","<div class = ""response_question"">WAS THE IMAGE ROTATED...</div>","","0","","","6","8","bas","left","practice","true"
"742.4999999995343","","html-button-response","215","2246414","0.0-6.0-0.11","12","","","0","","","","","","","",""
"null","","html-keyboard-response","216","2246492","0.0-6.0-1.11","12","<p><img class= 'stimulus' src='images/baseline/05139v.jpg'></img></p>","null","","1549935076836","","","","","","",""
"null","","html-keyboard-response","217","2246592","0.0-6.0-2.11","12","<p><img class= 'stimulus' src='images/baseline/pexels-photo-351264.jpeg'></img></p>","null","","1549935076937","","","","","","",""
"null","","html-keyboard-response","218","2246692","0.0-6.0-3.11","12","<p><img class= 'stimulus' src='images/baseline/hills 1.jpg'></img></p>","null","","1549935077037","","","","","","",""
"null","","html-keyboard-response","219","2246792","0.0-6.0-4.11","12","<p><img class= 'stimulus' src='images/baseline/cyrillic.jpg'></img></p>","null","","1549935077136","4","","","","","",""
"null","","html-keyboard-response","220","2246892","0.0-6.0-5.11","12","<p><img class= 'stimulus' src='images/baseline/landscape2.jpg'></img></p>","null","","1549935077237","","","","","","",""
"null","","html-keyboard-response","221","2246992","0.0-6.0-6.11","12","<p><img class= 'stimulus' src='images/baseline/03066v.jpg'></img></p>","null","","1549935077337","6","","","","","",""
"null","","html-keyboard-response","222","2247092","0.0-6.0-7.11","12","<p><img class= 'stimulus' src='images/baseline/04064v.jpg'></img></p>","null","","1549935077437","","","","","","",""
"null","","html-keyboard-response","223","2247192","0.0-6.0-8.11","12","<p><img class= 'stimulus' src='images/baseline/05247v.jpg'></img></p>","null","","1549935077536","8","","","","","",""
"null","","html-keyboard-response","224","2247291","0.0-6.0-9.11","12","<p><img class= 'stimulus' src='images/baseline/autumn-in-red-rocks-park.jpg'></img></p>","null","","1549935077637","","","","","","",""
"null","","html-keyboard-response","225","2247393","0.0-6.0-10.11","12","<p><img class= 'stimulus' src='images/baseline/meadow-with-mountain-in-background.jpg'></img></p>","null","","1549935077736","","","","","","",""
"null","","html-keyboard-response","226","2247492","0.0-6.0-11.11","12","<p><img class= 'stimulus' src='images/baseline/Nature 1.jpg'></img></p>","null","","1549935077837","","","","","","",""
"null","","html-keyboard-response","227","2247592","0.0-6.0-12.11","12","<p><img class= 'stimulus left-rotate' src='images/target/specphotops-563427-unsplash.jpg'></img></p>","null","","1549935077938","12","","","","","",""
"null","","html-keyboard-response","228","2247692","0.0-6.0-13.11","12","<p><img class= 'stimulus' src='images/baseline/architecture_modern_architecture_852928.jpg'></img></p>","null","","1549935078036","","","","","","",""
"null","","html-keyboard-response","229","2247792","0.0-6.0-14.11","12","<p><img class= 'stimulus' src='images/baseline/landscape40.jpg'></img></p>","null","","1549935078137","14","","","","","",""
"null","","html-keyboard-response","230","2247892","0.0-6.0-15.11","12","<p><img class= 'stimulus' src='images/baseline/Linden,_paysage.jpg'></img></p>","null","","1549935078237","","","","","","",""
"null","","html-keyboard-response","231","2247993","0.0-6.0-16.11","12","<p><img class= 'stimulus' src='images/baseline/05240v.jpg'></img></p>","null","","1549935078338","","","","","","",""
"null","","html-keyboard-response","232","2248109","0.0-6.0-17.11","12","<p><img class= 'stimulus' src='images/baseline/05198v.jpg'></img></p>","null","","1549935078436","","","","","","",""
"1451.8999999999069","","html-button-response","233","2250566","0.0-6.0-18.11","12","<div class = ""response_question"">WAS THE IMAGE ROTATED...</div>","","0","","","4","8","bas","left","practice","true"
"662.6000000000931","","html-button-response","234","2251229","0.0-6.0-0.12","12","","","0","","","","","","","",""
"null","","html-keyboard-response","235","2251309","0.0-6.0-1.12","12","<p><img class= 'stimulus' src='images/baseline/lake 2.jpg'></img></p>","null","","1549935081653","","","","","","",""
"null","","html-keyboard-response","236","2251410","0.0-6.0-2.12","12","<p><img class= 'stimulus' src='images/baseline/house1.jpg'></img></p>","null","","1549935081754","","","","","","",""
"null","","html-keyboard-response","237","2251510","0.0-6.0-3.12","12","<p><img class= 'stimulus' src='images/baseline/05203v.jpg'></img></p>","null","","1549935081854","","","","","","",""
"null","","html-keyboard-response","238","2251610","0.0-6.0-4.12","12","<p><img class= 'stimulus' src='images/baseline/Lake 5.jpg'></img></p>","null","","1549935081953","4","","","","","",""
"null","","html-keyboard-response","239","2251708","0.0-6.0-5.12","12","<p><img class= 'stimulus' src='images/baseline/agriculture-cereal-clouds-175389.jpg'></img></p>","null","","1549935082054","","","","","","",""
"null","","html-keyboard-response","240","2251809","0.0-6.0-6.12","12","<p><img class= 'stimulus' src='images/baseline/town-square-in-wroclaw-1539098440MZy.jpg'></img></p>","null","","1549935082153","6","","","","","",""
"null","","html-keyboard-response","241","2251908","0.0-6.0-7.12","12","<p><img class= 'stimulus' src='images/baseline/road.jpg'></img></p>","null","","1549935082255","","","","","","",""
"null","","html-keyboard-response","242","2252008","0.0-6.0-8.12","12","<p><img class= 'stimulus' src='images/target/building15.jpg'></img></p>","null","","1549935082355","8","","","","","",""
"null","","html-keyboard-response","243","2252109","0.0-6.0-9.12","12","<p><img class= 'stimulus' src='images/baseline/landscape4.jpg'></img></p>","null","","1549935082453","","","","","","",""
"null","","html-keyboard-response","244","2252209","0.0-6.0-10.12","12","<p><img class= 'stimulus' src='images/baseline/Street 2.jpg'></img></p>","null","","1549935082553","","","","","","",""
"null","","html-keyboard-response","245","2252309","0.0-6.0-11.12","12","<p><img class= 'stimulus' src='images/baseline/pexels-photo-459203.jpeg'></img></p>","null","","1549935082653","","","","","","",""
"null","","html-keyboard-response","246","2252409","0.0-6.0-12.12","12","<p><img class= 'stimulus' src='images/baseline/pexels-photo-221125.jpeg'></img></p>","null","","1549935082754","12","","","","","",""
"null","","html-keyboard-response","247","2252509","0.0-6.0-13.12","12","<p><img class= 'stimulus' src='images/baseline/05292v.jpg'></img></p>","null","","1549935082855","","","","","","",""
"null","","html-keyboard-response","248","2252609","0.0-6.0-14.12","12","<p><img class= 'stimulus' src='images/baseline/Freudenberg_sg_Switzerland.jpg'></img></p>","null","","1549935082954","14","","","","","",""
"null","","html-keyboard-response","249","2252709","0.0-6.0-15.12","12","<p><img class= 'stimulus' src='images/baseline/Skijump 1.jpg'></img></p>","null","","1549935083054","","","","","","",""
"null","","html-keyboard-response","250","2252808","0.0-6.0-16.12","12","<p><img class= 'stimulus' src='images/baseline/02947v.jpg'></img></p>","null","","1549935083153","","","","","","",""
"null","","html-keyboard-response","251","2252926","0.0-6.0-17.12","12","<p><img class= 'stimulus' src='images/baseline/pexels-photo-1287089.jpeg'></img></p>","null","","1549935083254","","","","","","",""
"1034.3999999999069","","html-button-response","252","2254966","0.0-6.0-18.12","12","<div class = ""response_question"">WAS THE IMAGE ROTATED...</div>","","3","","","6","2","bas","right","practice","true"
"614.3999999999069","","html-button-response","253","2255582","0.0-6.0-0.13","12","","","0","","","","","","","",""
"null","","html-keyboard-response","254","2255659","0.0-6.0-1.13","12","<p><img class= 'stimulus' src='images/baseline/03201v.jpg'></img></p>","null","","1549935086003","","","","","","",""
"null","","html-keyboard-response","255","2255759","0.0-6.0-2.13","12","<p><img class= 'stimulus' src='images/baseline/04086v.jpg'></img></p>","null","","1549935086103","","","","","","",""
"null","","html-keyboard-response","256","2255859","0.0-6.0-3.13","12","<p><img class= 'stimulus' src='images/baseline/05303v.jpg'></img></p>","null","","1549935086203","","","","","","",""
"null","","html-keyboard-response","257","2255959","0.0-6.0-4.13","12","<p><img class= 'stimulus' src='images/baseline/04193v.jpg'></img></p>","null","","1549935086304","4","","","","","",""
"null","","html-keyboard-response","258","2256060","0.0-6.0-5.13","12","<p><img class= 'stimulus' src='images/baseline/Skyscraper 1.jpg'></img></p>","null","","1549935086403","","","","","","",""
"null","","html-keyboard-response","259","2256159","0.0-6.0-6.13","12","<p><img class= 'stimulus' src='images/baseline/04179v.jpg'></img></p>","null","","1549935086504","6","","","","","",""
"null","","html-keyboard-response","260","2256259","0.0-6.0-7.13","12","<p><img class= 'stimulus' src='images/baseline/Lake 4.jpg'></img></p>","null","","1549935086603","","","","","","",""
"null","","html-keyboard-response","261","2256359","0.0-6.0-8.13","12","<p><img class= 'stimulus' src='images/baseline/03220v.jpg'></img></p>","null","","1549935086703","8","","","","","",""
"null","","html-keyboard-response","262","2256459","0.0-6.0-9.13","12","<p><img class= 'stimulus' src='images/baseline/Lake 16.jpg'></img></p>","null","","1549935086804","","","","","","",""
"null","","html-keyboard-response","263","2256559","0.0-6.0-10.13","12","<p><img class= 'stimulus' src='images/baseline/Lake 14.jpg'></img></p>","null","","1549935086903","","","","","","",""
"null","","html-keyboard-response","264","2256658","0.0-6.0-11.13","12","<p><img class= 'stimulus' src='images/baseline/building9.jpg'></img></p>","null","","1549935087003","","","","","","",""
"null","","html-keyboard-response","265","2256759","0.0-6.0-12.13","12","<p><img class= 'stimulus' src='images/target/mexico_tower_latin_american.jpg'></img></p>","null","","1549935087103","12","","","","","",""
"null","","html-keyboard-response","266","2256859","0.0-6.0-13.13","12","<p><img class= 'stimulus' src='images/baseline/05264v.jpg'></img></p>","null","","1549935087204","","","","","","",""
"null","","html-keyboard-response","267","2256959","0.0-6.0-14.13","12","<p><img class= 'stimulus' src='images/baseline/landscape11.jpg'></img></p>","null","","1549935087304","14","","","","","",""
"null","","html-keyboard-response","268","2257059","0.0-6.0-15.13","12","<p><img class= 'stimulus' src='images/baseline/04117v.jpg'></img></p>","null","","1549935087403","","","","","","",""
"null","","html-keyboard-response","269","2257160","0.0-6.0-16.13","12","<p><img class= 'stimulus' src='images/baseline/02960v.jpg'></img></p>","null","","1549935087503","","","","","","",""
"null","","html-keyboard-response","270","2257275","0.0-6.0-17.13","12","<p><img class= 'stimulus' src='images/baseline/bird-flying-at-sunset.jpg'></img></p>","null","","1549935087605","","","","","","",""
"1876.2999999998137","","html-button-response","271","2260158","0.0-6.0-18.13","12","<div class = ""response_question"">WAS THE IMAGE ROTATED...</div>","","4","","","4","8","bas","right","practice","true"
"934.2000000001863","","html-button-response","272","2261094","0.0-6.0-0.14","12","","","0","","","","","","","",""
"null","","html-keyboard-response","273","2261175","0.0-6.0-1.14","12","<p><img class= 'stimulus' src='images/baseline/Lake 13.jpg'></img></p>","null","","1549935091520","","","","","","",""
"null","","html-keyboard-response","274","2261276","0.0-6.0-2.14","12","<p><img class= 'stimulus' src='images/baseline/pexels-photo-541101.jpeg'></img></p>","null","","1549935091621","","","","","","",""
"null","","html-keyboard-response","275","2261377","0.0-6.0-3.14","12","<p><img class= 'stimulus' src='images/baseline/05161v.jpg'></img></p>","null","","1549935091721","","","","","","",""
"null","","html-keyboard-response","276","2261476","0.0-6.0-4.14","12","<p><img class= 'stimulus' src='images/baseline/04222v.jpg'></img></p>","null","","1549935091822","4","","","","","",""
"null","","html-keyboard-response","277","2261575","0.0-6.0-5.14","12","<p><img class= 'stimulus' src='images/baseline/Niinsaare_jarv.jpg'></img></p>","null","","1549935091920","","","","","","",""
"null","","html-keyboard-response","278","2261676","0.0-6.0-6.14","12","<p><img class= 'stimulus' src='images/baseline/pexels-photo-568236.jpeg'></img></p>","null","","1549935092020","6","","","","","",""
"null","","html-keyboard-response","279","2261775","0.0-6.0-7.14","12","<p><img class= 'stimulus' src='images/baseline/lake3.jpg'></img></p>","null","","1549935092120","","","","","","",""
"null","","html-keyboard-response","280","2261876","0.0-6.0-8.14","12","<p><img class= 'stimulus left-rotate' src='images/target/beach1.jpeg'></img></p>","null","","1549935092221","8","","","","","",""
"null","","html-keyboard-response","281","2261976","0.0-6.0-9.14","12","<p><img class= 'stimulus' src='images/baseline/02977v.jpg'></img></p>","null","","1549935092320","","","","","","",""
"null","","html-keyboard-response","282","2262076","0.0-6.0-10.14","12","<p><img class= 'stimulus' src='images/baseline/04162v.jpg'></img></p>","null","","1549935092420","","","","","","",""
"null","","html-keyboard-response","283","2262176","0.0-6.0-11.14","12","<p><img class= 'stimulus' src='images/baseline/05186v.jpg'></img></p>","null","","1549935092521","","","","","","",""
"null","","html-keyboard-response","284","2262276","0.0-6.0-12.14","12","<p><img class= 'stimulus' src='images/baseline/farmhouse8.jpg'></img></p>","null","","1549935092620","12","","","","","",""
"null","","html-keyboard-response","285","2262376","0.0-6.0-13.14","12","<p><img class= 'stimulus' src='images/baseline/farmhouse6.jpg'></img></p>","null","","1549935092720","","","","","","",""
"null","","html-keyboard-response","286","2262476","0.0-6.0-14.14","12","<p><img class= 'stimulus' src='images/baseline/02945v.jpg'></img></p>","null","","1549935092822","14","","","","","",""
"null","","html-keyboard-response","287","2262575","0.0-6.0-15.14","12","<p><img class= 'stimulus' src='images/baseline/05179v.jpg'></img></p>","null","","1549935092921","","","","","","",""
"null","","html-keyboard-response","288","2262675","0.0-6.0-16.14","12","<p><img class= 'stimulus' src='images/baseline/farmhouse11.jpg'></img></p>","null","","1549935093021","","","","","","",""
"null","","html-keyboard-response","289","2262793","0.0-6.0-17.14","12","<p><img class= 'stimulus' src='images/baseline/04098v.jpg'></img></p>","null","","1549935093119","","","","","","",""
"1195.1999999997206","","html-button-response","290","2264998","0.0-6.0-18.14","12","<div class = ""response_question"">WAS THE IMAGE ROTATED...</div>","","0","","","6","2","bas","left","practice","true"
"493.39999999990687","","html-button-response","291","2265494","0.0-6.0-0.15","12","","","0","","","","","","","",""
"null","","html-keyboard-response","292","2265576","0.0-6.0-1.15","12","<p><img class= 'stimulus' src='images/baseline/03063v.jpg'></img></p>","null","","1549935095921","","","","","","",""
"null","","html-keyboard-response","293","2265676","0.0-6.0-2.15","12","<p><img class= 'stimulus' src='images/baseline/04284v.jpg'></img></p>","null","","1549935096020","","","","","","",""
"null","","html-keyboard-response","294","2265776","0.0-6.0-3.15","12","<p><img class= 'stimulus' src='images/baseline/farmhouse1.jpg'></img></p>","null","","1549935096120","","","","","","",""
"null","","html-keyboard-response","295","2265875","0.0-6.0-4.15","12","<p><img class= 'stimulus' src='images/baseline/Sunset 3.jpg'></img></p>","null","","1549935096221","4","","","","","",""
"null","","html-keyboard-response","296","2265976","0.0-6.0-5.15","12","<p><img class= 'stimulus' src='images/baseline/agriculture-bright-clouds-440731.jpg'></img></p>","null","","1549935096322","","","","","","",""
"null","","html-keyboard-response","297","2266076","0.0-6.0-6.15","12","<p><img class= 'stimulus' src='images/baseline/landscape31.jpg'></img></p>","null","","1549935096421","6","","","","","",""
"null","","html-keyboard-response","298","2266175","0.0-6.0-7.15","12","<p><img class= 'stimulus' src='images/baseline/house11.jpg'></img></p>","null","","1549935096521","","","","","","",""
"null","","html-keyboard-response","299","2266275","0.0-6.0-8.15","12","<p><img class= 'stimulus' src='images/baseline/Sunset 5.jpg'></img></p>","null","","1549935096620","8","","","","","",""
"null","","html-keyboard-response","300","2266376","0.0-6.0-9.15","12","<p><img class= 'stimulus' src='images/baseline/Street 5.jpg'></img></p>","null","","1549935096721","","","","","","",""
"null","","html-keyboard-response","301","2266476","0.0-6.0-10.15","12","<p><img class= 'stimulus' src='images/baseline/Sailing 3.jpg'></img></p>","null","","1549935096820","","","","","","",""
"null","","html-keyboard-response","302","2266576","0.0-6.0-11.15","12","<p><img class= 'stimulus' src='images/baseline/landscape39.jpg'></img></p>","null","","1549935096919","","","","","","",""
"null","","html-keyboard-response","303","2266676","0.0-6.0-12.15","12","<p><img class= 'stimulus' src='images/baseline/Paysage_karabagh_02.jpg'></img></p>","null","","1549935097020","12","","","","","",""
"null","","html-keyboard-response","304","2266776","0.0-6.0-13.15","12","<p><img class= 'stimulus' src='images/baseline/Street 3.jpg'></img></p>","null","","1549935097120","","","","","","",""
"null","","html-keyboard-response","305","2266877","0.0-6.0-14.15","12","<p><img class= 'stimulus' src='images/target/coconut-3396945_640.jpg'></img></p>","null","","1549935097221","14","","","","","",""
"null","","html-keyboard-response","306","2266975","0.0-6.0-15.15","12","<p><img class= 'stimulus' src='images/baseline/05292v.jpg'></img></p>","null","","1549935097320","","","","","","",""
"null","","html-keyboard-response","307","2267076","0.0-6.0-16.15","12","<p><img class= 'stimulus' src='images/baseline/pexels-photo-534164.jpeg'></img></p>","null","","1549935097420","","","","","","",""
"null","","html-keyboard-response","308","2267193","0.0-6.0-17.15","12","<p><img class= 'stimulus' src='images/baseline/seoul-410266_1920.jpg'></img></p>","null","","1549935097520","","","","","","",""
"1088.8999999999069","","html-button-response","309","2269286","0.0-6.0-18.15","12","<div class = ""response_question"">WAS THE IMAGE ROTATED...</div>","","3","","","6","8","bas","right","practice","true"
"225254.7000000002","","html-button-response","310","2494541","0.0-7.0","12","<p>You have now completed the practice phase. We will now begin the real trials.         This is a reminder that you will be searching for a rotated image among the series of upright images.</p>         <p>Remember, please do not blink or move your eyes while the images are on the screen.</p>         <p>At the end of the experiment, the experimenter will be able to show you how accurate you were.</p>","","0","","","","","","","",""
"1638.5","","html-button-response","311","2496180","0.0-8.0-0.0-0.0","12","","","0","","","","","","","",""
"null","","html-keyboard-response","312","2496261","0.0-8.0-0.0-1.0","12","<p><img class= 'stimulus' src='images/baseline/pexels-photo-59321.jpeg'></img></p>","null","","1549935326604","","","","","","",""
"null","","html-keyboard-response","313","2496360","0.0-8.0-0.0-2.0","12","<p><img class= 'stimulus' src='images/baseline/04014v.jpg'></img></p>","null","","1549935326705","","","","","","",""
"null","","html-keyboard-response","314","2496461","0.0-8.0-0.0-3.0","12","<p><img class= 'stimulus' src='images/baseline/empire-state-building.jpg'></img></p>","null","","1549935326806","","","","","","",""
"null","","html-keyboard-response","315","2496560","0.0-8.0-0.0-4.0","12","<p><img class= 'stimulus' src='images/neutral/Zebra 1.jpg'></img></p>","null","","1549935326905","4","","","","","",""
"null","","html-keyboard-response","316","2496661","0.0-8.0-0.0-5.0","12","<p><img class= 'stimulus' src='images/baseline/05255v.jpg'></img></p>","null","","1549935327004","","","","","","",""
"null","","html-keyboard-response","317","2496761","0.0-8.0-0.0-6.0","12","<p><img class= 'stimulus left-rotate' src='images/target/buildin.png'></img></p>","null","","1549935327105","6","","","","","",""
"null","","html-keyboard-response","318","2496860","0.0-8.0-0.0-7.0","12","<p><img class= 'stimulus' src='images/baseline/landscape13.jpg'></img></p>","null","","1549935327205","","","","","","",""
"null","","html-keyboard-response","319","2496960","0.0-8.0-0.0-8.0","12","<p><img class= 'stimulus' src='images/baseline/house3.jpg'></img></p>","null","","1549935327304","8","","","","","",""
"null","","html-keyboard-response","320","2497060","0.0-8.0-0.0-9.0","12","<p><img class= 'stimulus' src='images/baseline/pexels-photo-894312.jpeg'></img></p>","null","","1549935327404","","","","","","",""
"null","","html-keyboard-response","321","2497161","0.0-8.0-0.0-10.0","12","<p><img class= 'stimulus' src='images/baseline/Kocherbaumwald-01.jpg'></img></p>","null","","1549935327504","","","","","","",""
"null","","html-keyboard-response","322","2497261","0.0-8.0-0.0-11.0","12","<p><img class= 'stimulus' src='images/baseline/02977v.jpg'></img></p>","null","","1549935327605","","","","","","",""
"null","","html-keyboard-response","323","2497360","0.0-8.0-0.0-12.0","12","<p><img class= 'stimulus' src='images/baseline/03180v.jpg'></img></p>","null","","1549935327704","12","","","","","",""
"null","","html-keyboard-response","324","2497461","0.0-8.0-0.0-13.0","12","<p><img class= 'stimulus' src='images/baseline/Lake 13.jpg'></img></p>","null","","1549935327805","","","","","","",""
"null","","html-keyboard-response","325","2497561","0.0-8.0-0.0-14.0","12","<p><img class= 'stimulus' src='images/baseline/field 3.jpg'></img></p>","null","","1549935327905","14","","","","","",""
"null","","html-keyboard-response","326","2497660","0.0-8.0-0.0-15.0","12","<p><img class= 'stimulus' src='images/baseline/farmhouse11.jpg'></img></p>","null","","1549935328005","","","","","","",""
"null","","html-keyboard-response","327","2497760","0.0-8.0-0.0-16.0","12","<p><img class= 'stimulus' src='images/baseline/landscape3.jpg'></img></p>","null","","1549935328105","","","","","","",""
"null","","html-keyboard-response","328","2497877","0.0-8.0-0.0-17.0","12","<p><img class= 'stimulus' src='images/baseline/landscape1.jpg'></img></p>","null","","1549935328204","","","","","","",""
"1379.3000000002794","","html-button-response","329","2500259","0.0-8.0-0.0-18.0","12","<div class = ""response_question"">WAS THE IMAGE ROTATED...</div>","","0","","","4","2","neu","left","test","true"
"1678.299999999348","","html-button-response","330","2501938","0.0-8.0-0.0-0.1","12","","","0","","","","","","","",""
"null","","html-keyboard-response","331","2502024","0.0-8.0-0.0-1.1","12","<p><img class= 'stimulus' src='images/baseline/pexels-photo-259280.jpeg'></img></p>","null","","1549935332369","","","","","","",""
"null","","html-keyboard-response","332","2502125","0.0-8.0-0.0-2.1","12","<p><img class= 'stimulus' src='images/baseline/05145v.jpg'></img></p>","null","","1549935332470","","","","","","",""
"null","","html-keyboard-response","333","2502225","0.0-8.0-0.0-3.1","12","<p><img class= 'stimulus' src='images/baseline/03204v.jpg'></img></p>","null","","1549935332569","","","","","","",""
"null","","html-keyboard-response","334","2502325","0.0-8.0-0.0-4.1","12","<p><img class= 'stimulus' src='images/baseline/snowy tree.jpg'></img></p>","null","","1549935332669","4","","","","","",""
"null","","html-keyboard-response","335","2502425","0.0-8.0-0.0-5.1","12","<p><img class= 'stimulus' src='images/baseline/Lake 7.jpg'></img></p>","null","","1549935332769","","","","","","",""
"null","","html-keyboard-response","336","2502525","0.0-8.0-0.0-6.1","12","<p><img class= 'stimulus' src='images/negative/Explosion 2.jpg'></img></p>","null","","1549935332868","6","","","","","",""
"null","","html-keyboard-response","337","2502625","0.0-8.0-0.0-7.1","12","<p><img class= 'stimulus' src='images/baseline/pexels-photo-459203.jpeg'></img></p>","null","","1549935332969","","","","","","",""
"null","","html-keyboard-response","338","2502724","0.0-8.0-0.0-8.1","12","<p><img class= 'stimulus left-rotate' src='images/target/dubai-1113262_640.jpg'></img></p>","null","","1549935333069","8","","","","","",""
"null","","html-keyboard-response","339","2502825","0.0-8.0-0.0-9.1","12","<p><img class= 'stimulus' src='images/baseline/landscape14.jpg'></img></p>","null","","1549935333170","","","","","","",""
"null","","html-keyboard-response","340","2502925","0.0-8.0-0.0-10.1","12","<p><img class= 'stimulus' src='images/baseline/Beach 2.jpg'></img></p>","null","","1549935333269","","","","","","",""
"null","","html-keyboard-response","341","2503025","0.0-8.0-0.0-11.1","12","<p><img class= 'stimulus' src='images/baseline/03112v.jpg'></img></p>","null","","1549935333369","","","","","","",""
"null","","html-keyboard-response","342","2503124","0.0-8.0-0.0-12.1","12","<p><img class= 'stimulus' src='images/baseline/03066v.jpg'></img></p>","null","","1549935333469","12","","","","","",""
"null","","html-keyboard-response","343","2503226","0.0-8.0-0.0-13.1","12","<p><img class= 'stimulus' src='images/baseline/landscape12.jpg'></img></p>","null","","1549935333570","","","","","","",""
"null","","html-keyboard-response","344","2503325","0.0-8.0-0.0-14.1","12","<p><img class= 'stimulus' src='images/baseline/sunny-landscape-with-dry-brush-and-mountain-background.jpg'></img></p>","null","","1549935333669","14","","","","","",""
"null","","html-keyboard-response","345","2503425","0.0-8.0-0.0-15.1","12","<p><img class= 'stimulus' src='images/baseline/Lake 16.jpg'></img></p>","null","","1549935333770","","","","","","",""
"null","","html-keyboard-response","346","2503524","0.0-8.0-0.0-16.1","12","<p><img class= 'stimulus' src='images/baseline/house7.jpg'></img></p>","null","","1549935333868","","","","","","",""
"null","","html-keyboard-response","347","2503642","0.0-8.0-0.0-17.1","12","<p><img class= 'stimulus' src='images/baseline/03063v.jpg'></img></p>","null","","1549935333968","","","","","","",""
"1565.1999999997206","","html-button-response","348","2506210","0.0-8.0-0.0-18.1","12","<div class = ""response_question"">WAS THE IMAGE ROTATED...</div>","","1","","","6","2","neg","left","test","true"
"734.2999999998137","","html-button-response","349","2506946","0.0-8.0-0.0-0.2","12","","","0","","","","","","","",""
"null","","html-keyboard-response","350","2507025","0.0-8.0-0.0-1.2","12","<p><img class= 'stimulus' src='images/baseline/pexels-photo-541101.jpeg'></img></p>","null","","1549935337370","","","","","","",""
"null","","html-keyboard-response","351","2507124","0.0-8.0-0.0-2.2","12","<p><img class= 'stimulus' src='images/baseline/vintage-art-deco-storefront.jpg'></img></p>","null","","1549935337468","","","","","","",""
"null","","html-keyboard-response","352","2507224","0.0-8.0-0.0-3.2","12","<p><img class= 'stimulus' src='images/baseline/04085v.jpg'></img></p>","null","","1549935337570","","","","","","",""
"null","","html-keyboard-response","353","2507325","0.0-8.0-0.0-4.2","12","<p><img class= 'stimulus' src='images/baseline/05247v.jpg'></img></p>","null","","1549935337668","4","","","","","",""
"null","","html-keyboard-response","354","2507425","0.0-8.0-0.0-5.2","12","<p><img class= 'stimulus' src='images/baseline/pexels-photo-1287089.jpeg'></img></p>","null","","1549935337769","","","","","","",""
"null","","html-keyboard-response","355","2507526","0.0-8.0-0.0-6.2","12","<p><img class= 'stimulus' src='images/negative/War 6.jpg'></img></p>","null","","1549935337869","6","","","","","",""
"null","","html-keyboard-response","356","2507625","0.0-8.0-0.0-7.2","12","<p><img class= 'stimulus' src='images/baseline/05280v.jpg'></img></p>","null","","1549935337969","","","","","","",""
"null","","html-keyboard-response","357","2507727","0.0-8.0-0.0-8.2","12","<p><img class= 'stimulus' src='images/target/pexels-photo-1534411.jpeg'></img></p>","null","","1549935338069","8","","","","","",""
"null","","html-keyboard-response","358","2507825","0.0-8.0-0.0-9.2","12","<p><img class= 'stimulus' src='images/baseline/architecture-956332_1280.jpg'></img></p>","null","","1549935338169","","","","","","",""
"null","","html-keyboard-response","359","2507925","0.0-8.0-0.0-10.2","12","<p><img class= 'stimulus' src='images/baseline/river 1.jpg'></img></p>","null","","1549935338269","","","","","","",""
"null","","html-keyboard-response","360","2508025","0.0-8.0-0.0-11.2","12","<p><img class= 'stimulus' src='images/baseline/02945v.jpg'></img></p>","null","","1549935338370","","","","","","",""
"null","","html-keyboard-response","361","2508124","0.0-8.0-0.0-12.2","12","<p><img class= 'stimulus' src='images/baseline/02962v.jpg'></img></p>","null","","1549935338469","12","","","","","",""
"null","","html-keyboard-response","362","2508224","0.0-8.0-0.0-13.2","12","<p><img class= 'stimulus' src='images/baseline/pexels-photo-210617.jpeg'></img></p>","null","","1549935338569","","","","","","",""
"null","","html-keyboard-response","363","2508324","0.0-8.0-0.0-14.2","12","<p><img class= 'stimulus' src='images/baseline/02960v.jpg'></img></p>","null","","1549935338669","14","","","","","",""
"null","","html-keyboard-response","364","2508424","0.0-8.0-0.0-15.2","12","<p><img class= 'stimulus' src='images/baseline/pexels-photo-351264.jpeg'></img></p>","null","","1549935338769","","","","","","",""
"null","","html-keyboard-response","365","2508524","0.0-8.0-0.0-16.2","12","<p><img class= 'stimulus' src='images/baseline/house1.jpg'></img></p>","null","","1549935338869","","","","","","",""
"null","","html-keyboard-response","366","2508642","0.0-8.0-0.0-17.2","12","<p><img class= 'stimulus' src='images/baseline/house11.jpg'></img></p>","null","","1549935338969","","","","","","",""
"1101.4000000003725","","html-button-response","367","2510746","0.0-8.0-0.0-18.2","12","<div class = ""response_question"">WAS THE IMAGE ROTATED...</div>","","3","","","6","2","neg","right","test","true"
"1438.2000000001863","","html-button-response","368","2512186","0.0-8.0-0.0-0.3","12","","","0","","","","","","","",""
"null","","html-keyboard-response","369","2512258","0.0-8.0-0.0-1.3","12","<p><img class= 'stimulus' src='images/baseline/building8.jpg'></img></p>","null","","1549935342603","","","","","","",""
"null","","html-keyboard-response","370","2512360","0.0-8.0-0.0-2.3","12","<p><img class= 'stimulus' src='images/baseline/architecture_modern_architecture_852928.jpg'></img></p>","null","","1549935342702","","","","","","",""
"null","","html-keyboard-response","371","2512458","0.0-8.0-0.0-3.3","12","<p><img class= 'stimulus' src='images/baseline/Skijump 1.jpg'></img></p>","null","","1549935342802","","","","","","",""
"null","","html-keyboard-response","372","2512559","0.0-8.0-0.0-4.3","12","<p><img class= 'stimulus' src='images/baseline/landscape36.jpg'></img></p>","null","","1549935342902","4","","","","","",""
"null","","html-keyboard-response","373","2512657","0.0-8.0-0.0-5.3","12","<p><img class= 'stimulus' src='images/baseline/hills 1.jpg'></img></p>","null","","1549935343003","","","","","","",""
"null","","html-keyboard-response","374","2512757","0.0-8.0-0.0-6.3","12","<p><img class= 'stimulus' src='images/neutral/cottontail-rabbit.jpg'></img></p>","null","","1549935343104","6","","","","","",""
"null","","html-keyboard-response","375","2512858","0.0-8.0-0.0-7.3","12","<p><img class= 'stimulus' src='images/baseline/Lake 15.jpg'></img></p>","null","","1549935343202","","","","","","",""
"null","","html-keyboard-response","376","2512958","0.0-8.0-0.0-8.3","12","<p><img class= 'stimulus' src='images/baseline/Niinsaare_jarv.jpg'></img></p>","null","","1549935343302","8","","","","","",""
"null","","html-keyboard-response","377","2513058","0.0-8.0-0.0-9.3","12","<p><img class= 'stimulus' src='images/baseline/Sunset 3.jpg'></img></p>","null","","1549935343403","","","","","","",""
"null","","html-keyboard-response","378","2513158","0.0-8.0-0.0-10.3","12","<p><img class= 'stimulus' src='images/baseline/pexels-photo-440731.jpeg'></img></p>","null","","1549935343502","","","","","","",""
"null","","html-keyboard-response","379","2513258","0.0-8.0-0.0-11.3","12","<p><img class= 'stimulus' src='images/baseline/Street 1.jpg'></img></p>","null","","1549935343602","","","","","","",""
"null","","html-keyboard-response","380","2513359","0.0-8.0-0.0-12.3","12","<p><img class= 'stimulus' src='images/baseline/farmhouse3.jpg'></img></p>","null","","1549935343702","12","","","","","",""
"null","","html-keyboard-response","381","2513458","0.0-8.0-0.0-13.3","12","<p><img class= 'stimulus' src='images/baseline/Street 4.jpg'></img></p>","null","","1549935343802","","","","","","",""
"null","","html-keyboard-response","382","2513558","0.0-8.0-0.0-14.3","12","<p><img class= 'stimulus left-rotate' src='images/target/pexels-photo-1123982.jpeg'></img></p>","null","","1549935343903","14","","","","","",""
"null","","html-keyboard-response","383","2513659","0.0-8.0-0.0-15.3","12","<p><img class= 'stimulus' src='images/baseline/04117v.jpg'></img></p>","null","","1549935344002","","","","","","",""
"null","","html-keyboard-response","384","2513759","0.0-8.0-0.0-16.3","12","<p><img class= 'stimulus' src='images/baseline/landscape11.jpg'></img></p>","null","","1549935344103","","","","","","",""
"null","","html-keyboard-response","385","2513875","0.0-8.0-0.0-17.3","12","<p><img class= 'stimulus' src='images/baseline/pexels-photo-750108.jpeg'></img></p>","null","","1549935344204","","","","","","",""
"1207.8000000002794","","html-button-response","386","2516090","0.0-8.0-0.0-18.3","12","<div class = ""response_question"">WAS THE IMAGE ROTATED...</div>","","0","","","6","8","neu","left","test","true"
"1646.3999999999069","","html-button-response","387","2517738","0.0-8.0-0.0-0.4","12","","","0","","","","","","","",""
"null","","html-keyboard-response","388","2517825","0.0-8.0-0.0-1.4","12","<p><img class= 'stimulus' src='images/baseline/04098v.jpg'></img></p>","null","","1549935348170","","","","","","",""
"null","","html-keyboard-response","389","2517925","0.0-8.0-0.0-2.4","12","<p><img class= 'stimulus' src='images/baseline/05303v.jpg'></img></p>","null","","1549935348270","","","","","","",""
"null","","html-keyboard-response","390","2518025","0.0-8.0-0.0-3.4","12","<p><img class= 'stimulus' src='images/baseline/04162v.jpg'></img></p>","null","","1549935348369","","","","","","",""
"null","","html-keyboard-response","391","2518124","0.0-8.0-0.0-4.4","12","<p><img class= 'stimulus' src='images/neutral/Horse 1.jpg'></img></p>","null","","1549935348468","4","","","","","",""
"null","","html-keyboard-response","392","2518225","0.0-8.0-0.0-5.4","12","<p><img class= 'stimulus' src='images/baseline/landscape7.jpg'></img></p>","null","","1549935348569","","","","","","",""
"null","","html-keyboard-response","393","2518324","0.0-8.0-0.0-6.4","12","<p><img class= 'stimulus' src='images/target/buildin5.jpg'></img></p>","null","","1549935348669","6","","","","","",""
"null","","html-keyboard-response","394","2518425","0.0-8.0-0.0-7.4","12","<p><img class= 'stimulus' src='images/baseline/05186v.jpg'></img></p>","null","","1549935348770","","","","","","",""
"null","","html-keyboard-response","395","2518525","0.0-8.0-0.0-8.4","12","<p><img class= 'stimulus' src='images/baseline/Sidewalk 4.jpg'></img></p>","null","","1549935348869","8","","","","","",""
"null","","html-keyboard-response","396","2518625","0.0-8.0-0.0-9.4","12","<p><img class= 'stimulus' src='images/baseline/road.jpg'></img></p>","null","","1549935348969","","","","","","",""
"null","","html-keyboard-response","397","2518724","0.0-8.0-0.0-10.4","12","<p><img class= 'stimulus' src='images/baseline/landscape40.jpg'></img></p>","null","","1549935349069","","","","","","",""
"null","","html-keyboard-response","398","2518824","0.0-8.0-0.0-11.4","12","<p><img class= 'stimulus' src='images/baseline/04229v.jpg'></img></p>","null","","1549935349170","","","","","","",""
"null","","html-keyboard-response","399","2518926","0.0-8.0-0.0-12.4","12","<p><img class= 'stimulus' src='images/baseline/04021v.jpg'></img></p>","null","","1549935349270","12","","","","","",""
"null","","html-keyboard-response","400","2519024","0.0-8.0-0.0-13.4","12","<p><img class= 'stimulus' src='images/baseline/hills 3.jpg'></img></p>","null","","1549935349370","","","","","","",""
"null","","html-keyboard-response","401","2519124","0.0-8.0-0.0-14.4","12","<p><img class= 'stimulus' src='images/baseline/meadow-with-mountain-in-background.jpg'></img></p>","null","","1549935349469","14","","","","","",""
"null","","html-keyboard-response","402","2519225","0.0-8.0-0.0-15.4","12","<p><img class= 'stimulus' src='images/baseline/Street 2.jpg'></img></p>","null","","1549935349569","","","","","","",""
"null","","html-keyboard-response","403","2519325","0.0-8.0-0.0-16.4","12","<p><img class= 'stimulus' src='images/baseline/red rocks from afar.jpg'></img></p>","null","","1549935349668","","","","","","",""
"null","","html-keyboard-response","404","2519442","0.0-8.0-0.0-17.4","12","<p><img class= 'stimulus' src='images/baseline/03041v.jpg'></img></p>","null","","1549935349769","","","","","","",""
"1012","","html-button-response","405","2521459","0.0-8.0-0.0-18.4","12","<div class = ""response_question"">WAS THE IMAGE ROTATED...</div>","","4","","","4","2","neu","right","test","true"
"598.1000000000931","","html-button-response","406","2522058","0.0-8.0-0.0-0.5","12","","","0","","","","","","","",""
"null","","html-keyboard-response","407","2522141","0.0-8.0-0.0-1.5","12","<p><img class= 'stimulus' src='images/baseline/house8.jpg'></img></p>","null","","1549935352486","","","","","","",""
"null","","html-keyboard-response","408","2522242","0.0-8.0-0.0-2.5","12","<p><img class= 'stimulus' src='images/baseline/pexels-photo-808465.jpeg'></img></p>","null","","1549935352585","","","","","","",""
"null","","html-keyboard-response","409","2522341","0.0-8.0-0.0-3.5","12","<p><img class= 'stimulus' src='images/baseline/pexels-photo-1054289.jpeg'></img></p>","null","","1549935352686","","","","","","",""
"null","","html-keyboard-response","410","2522442","0.0-8.0-0.0-4.5","12","<p><img class= 'stimulus' src='images/baseline/Sky 1.jpg'></img></p>","null","","1549935352785","4","","","","","",""
"null","","html-keyboard-response","411","2522542","0.0-8.0-0.0-5.5","12","<p><img class= 'stimulus' src='images/baseline/04010v.jpg'></img></p>","null","","1549935352886","","","","","","",""
"null","","html-keyboard-response","412","2522642","0.0-8.0-0.0-6.5","12","<p><img class= 'stimulus' src='images/baseline/chicago-skyline-at-night-1476869511p8U.jpg'></img></p>","null","","1549935352986","6","","","","","",""
"null","","html-keyboard-response","413","2522742","0.0-8.0-0.0-7.5","12","<p><img class= 'stimulus' src='images/baseline/farmhouse2.jpg'></img></p>","null","","1549935353086","","","","","","",""
"null","","html-keyboard-response","414","2522841","0.0-8.0-0.0-8.5","12","<p><img class= 'stimulus' src='images/baseline/autumn-landscape-with-lake-fall-trees-mountains.jpg'></img></p>","null","","1549935353186","8","","","","","",""
"null","","html-keyboard-response","415","2522942","0.0-8.0-0.0-9.5","12","<p><img class= 'stimulus' src='images/baseline/autumn-in-red-rocks-park.jpg'></img></p>","null","","1549935353287","","","","","","",""
"null","","html-keyboard-response","416","2523042","0.0-8.0-0.0-10.5","12","<p><img class= 'stimulus' src='images/baseline/landscape31.jpg'></img></p>","null","","1549935353388","","","","","","",""
"null","","html-keyboard-response","417","2523142","0.0-8.0-0.0-11.5","12","<p><img class= 'stimulus' src='images/baseline/Cold 7.jpg'></img></p>","null","","1549935353487","","","","","","",""
"null","","html-keyboard-response","418","2523241","0.0-8.0-0.0-12.5","12","<p><img class= 'stimulus' src='images/baseline/05240v.jpg'></img></p>","null","","1549935353587","12","","","","","",""
"null","","html-keyboard-response","419","2523341","0.0-8.0-0.0-13.5","12","<p><img class= 'stimulus' src='images/baseline/farmhouse4.jpg'></img></p>","null","","1549935353685","","","","","","",""
"null","","html-keyboard-response","420","2523442","0.0-8.0-0.0-14.5","12","<p><img class= 'stimulus' src='images/target/lone-tree.png'></img></p>","null","","1549935353785","14","","","","","",""
"null","","html-keyboard-response","421","2523541","0.0-8.0-0.0-15.5","12","<p><img class= 'stimulus' src='images/baseline/landscape38.jpg'></img></p>","null","","1549935353886","","","","","","",""
"null","","html-keyboard-response","422","2523642","0.0-8.0-0.0-16.5","12","<p><img class= 'stimulus' src='images/baseline/landscape2.jpg'></img></p>","null","","1549935353986","","","","","","",""
"null","","html-keyboard-response","423","2523759","0.0-8.0-0.0-17.5","12","<p><img class= 'stimulus' src='images/baseline/03045v.jpg'></img></p>","null","","1549935354087","","","","","","",""
"1296.5","","html-button-response","424","2526059","0.0-8.0-0.0-18.5","12","<div class = ""response_question"">WAS THE IMAGE ROTATED...</div>","","3","","","6","8","bas","right","test","true"
"1126.1999999997206","","html-button-response","425","2527186","0.0-8.0-0.0-0.6","12","","","0","","","","","","","",""
"null","","html-keyboard-response","426","2527258","0.0-8.0-0.0-1.6","12","<p><img class= 'stimulus' src='images/baseline/05242v.jpg'></img></p>","null","","1549935357603","","","","","","",""
"null","","html-keyboard-response","427","2527359","0.0-8.0-0.0-2.6","12","<p><img class= 'stimulus' src='images/baseline/sun-through-winter-tree-branches1.jpg'></img></p>","null","","1549935357702","","","","","","",""
"null","","html-keyboard-response","428","2527458","0.0-8.0-0.0-3.6","12","<p><img class= 'stimulus' src='images/baseline/town-square-in-wroclaw-1539098440MZy.jpg'></img></p>","null","","1549935357802","","","","","","",""
"null","","html-keyboard-response","429","2527559","0.0-8.0-0.0-4.6","12","<p><img class= 'stimulus' src='images/baseline/agriculture-cereal-clouds-175389.jpg'></img></p>","null","","1549935357904","4","","","","","",""
"null","","html-keyboard-response","430","2527658","0.0-8.0-0.0-5.6","12","<p><img class= 'stimulus' src='images/baseline/02988v.jpg'></img></p>","null","","1549935358002","","","","","","",""
"null","","html-keyboard-response","431","2527758","0.0-8.0-0.0-6.6","12","<p><img class= 'stimulus' src='images/neutral/Doctor 5.jpg'></img></p>","null","","1549935358104","6","","","","","",""
"null","","html-keyboard-response","432","2527858","0.0-8.0-0.0-7.6","12","<p><img class= 'stimulus' src='images/baseline/04086v.jpg'></img></p>","null","","1549935358203","","","","","","",""
"null","","html-keyboard-response","433","2527958","0.0-8.0-0.0-8.6","12","<p><img class= 'stimulus left-rotate' src='images/target/pexels-photo-602607.jpeg'></img></p>","null","","1549935358303","8","","","","","",""
"null","","html-keyboard-response","434","2528059","0.0-8.0-0.0-9.6","12","<p><img class= 'stimulus' src='images/baseline/landscape8.jpg'></img></p>","null","","1549935358403","","","","","","",""
"null","","html-keyboard-response","435","2528158","0.0-8.0-0.0-10.6","12","<p><img class= 'stimulus' src='images/baseline/Lake 14.jpg'></img></p>","null","","1549935358503","","","","","","",""
"null","","html-keyboard-response","436","2528258","0.0-8.0-0.0-11.6","12","<p><img class= 'stimulus' src='images/baseline/church-silhouette-8712964986014Kb.jpg'></img></p>","null","","1549935358602","","","","","","",""
"null","","html-keyboard-response","437","2528358","0.0-8.0-0.0-12.6","12","<p><img class= 'stimulus' src='images/baseline/Waterfall 1.jpg'></img></p>","null","","1549935358704","12","","","","","",""
"null","","html-keyboard-response","438","2528459","0.0-8.0-0.0-13.6","12","<p><img class= 'stimulus' src='images/baseline/05139v.jpg'></img></p>","null","","1549935358803","","","","","","",""
"null","","html-keyboard-response","439","2528559","0.0-8.0-0.0-14.6","12","<p><img class= 'stimulus' src='images/baseline/building3.jpg'></img></p>","null","","1549935358903","14","","","","","",""
"null","","html-keyboard-response","440","2528658","0.0-8.0-0.0-15.6","12","<p><img class= 'stimulus' src='images/baseline/bird-flying-at-sunset.jpg'></img></p>","null","","1549935359002","","","","","","",""
"null","","html-keyboard-response","441","2528758","0.0-8.0-0.0-16.6","12","<p><img class= 'stimulus' src='images/baseline/pexels-photo-414491.jpeg'></img></p>","null","","1549935359103","","","","","","",""
"null","","html-keyboard-response","442","2528875","0.0-8.0-0.0-17.6","12","<p><img class= 'stimulus' src='images/baseline/Beach 8.jpg'></img></p>","null","","1549935359203","","","","","","",""
"1554.1000000000931","","html-button-response","443","2531434","0.0-8.0-0.0-18.6","12","<div class = ""response_question"">WAS THE IMAGE ROTATED...</div>","","1","","","6","2","neu","left","test","true"
"1430.3999999994412","","html-button-response","444","2532866","0.0-8.0-0.0-0.7","12","","","0","","","","","","","",""
"null","","html-keyboard-response","445","2532942","0.0-8.0-0.0-1.7","12","<p><img class= 'stimulus' src='images/baseline/Skyscraper 1.jpg'></img></p>","null","","1549935363286","","","","","","",""
"null","","html-keyboard-response","446","2533041","0.0-8.0-0.0-2.7","12","<p><img class= 'stimulus' src='images/baseline/04063v.jpg'></img></p>","null","","1549935363386","","","","","","",""
"null","","html-keyboard-response","447","2533142","0.0-8.0-0.0-3.7","12","<p><img class= 'stimulus' src='images/baseline/pexels-photo-568236.jpeg'></img></p>","null","","1549935363486","","","","","","",""
"null","","html-keyboard-response","448","2533242","0.0-8.0-0.0-4.7","12","<p><img class= 'stimulus' src='images/baseline/02971v.jpg'></img></p>","null","","1549935363586","4","","","","","",""
"null","","html-keyboard-response","449","2533342","0.0-8.0-0.0-5.7","12","<p><img class= 'stimulus' src='images/baseline/03212v.jpg'></img></p>","null","","1549935363686","","","","","","",""
"null","","html-keyboard-response","450","2533442","0.0-8.0-0.0-6.7","12","<p><img class= 'stimulus left-rotate' src='images/target/tree.jpeg'></img></p>","null","","1549935363786","6","","","","","",""
"null","","html-keyboard-response","451","2533542","0.0-8.0-0.0-7.7","12","<p><img class= 'stimulus' src='images/baseline/Happy pose 3.jpg'></img></p>","null","","1549935363887","","","","","","",""
"null","","html-keyboard-response","452","2533641","0.0-8.0-0.0-8.7","12","<p><img class= 'stimulus' src='images/baseline/house2.jpg'></img></p>","null","","1549935363986","8","","","","","",""
"null","","html-keyboard-response","453","2533743","0.0-8.0-0.0-9.7","12","<p><img class= 'stimulus' src='images/baseline/lake 2.jpg'></img></p>","null","","1549935364088","","","","","","",""
"null","","html-keyboard-response","454","2533841","0.0-8.0-0.0-10.7","12","<p><img class= 'stimulus' src='images/baseline/lone-old-cottonwood-tree.jpg'></img></p>","null","","1549935364186","","","","","","",""
"null","","html-keyboard-response","455","2533943","0.0-8.0-0.0-11.7","12","<p><img class= 'stimulus' src='images/baseline/04222v.jpg'></img></p>","null","","1549935364286","","","","","","",""
"null","","html-keyboard-response","456","2534041","0.0-8.0-0.0-12.7","12","<p><img class= 'stimulus' src='images/baseline/05179v.jpg'></img></p>","null","","1549935364386","12","","","","","",""
"null","","html-keyboard-response","457","2534141","0.0-8.0-0.0-13.7","12","<p><img class= 'stimulus' src='images/baseline/farmhouse7.jpg'></img></p>","null","","1549935364486","","","","","","",""
"null","","html-keyboard-response","458","2534242","0.0-8.0-0.0-14.7","12","<p><img class= 'stimulus' src='images/baseline/Lake 9.jpg'></img></p>","null","","1549935364585","14","","","","","",""
"null","","html-keyboard-response","459","2534342","0.0-8.0-0.0-15.7","12","<p><img class= 'stimulus' src='images/baseline/Bridge 1.jpg'></img></p>","null","","1549935364686","","","","","","",""
"null","","html-keyboard-response","460","2534442","0.0-8.0-0.0-16.7","12","<p><img class= 'stimulus' src='images/baseline/geese-flying-over-lake-at-dusk.jpg'></img></p>","null","","1549935364786","","","","","","",""
"null","","html-keyboard-response","461","2534559","0.0-8.0-0.0-17.7","12","<p><img class= 'stimulus' src='images/baseline/Path 1.jpg'></img></p>","null","","1549935364887","","","","","","",""
"1173.4000000003725","","html-button-response","462","2536738","0.0-8.0-0.0-18.7","12","<div class = ""response_question"">WAS THE IMAGE ROTATED...</div>","","1","","","4","2","bas","left","test","true"
"1214.3999999999069","","html-button-response","463","2537954","0.0-8.0-0.0-0.8","12","","","0","","","","","","","",""
"null","","html-keyboard-response","464","2538041","0.0-8.0-0.0-1.8","12","<p><img class= 'stimulus' src='images/baseline/Sailing 3.jpg'></img></p>","null","","1549935368386","","","","","","",""
"null","","html-keyboard-response","465","2538142","0.0-8.0-0.0-2.8","12","<p><img class= 'stimulus' src='images/baseline/agriculture-bright-clouds-440731.jpg'></img></p>","null","","1549935368486","","","","","","",""
"null","","html-keyboard-response","466","2538242","0.0-8.0-0.0-3.8","12","<p><img class= 'stimulus' src='images/baseline/04300v.jpg'></img></p>","null","","1549935368586","","","","","","",""
"null","","html-keyboard-response","467","2538342","0.0-8.0-0.0-4.8","12","<p><img class= 'stimulus' src='images/baseline/field 1.jpg'></img></p>","null","","1549935368686","4","","","","","",""
"null","","html-keyboard-response","468","2538442","0.0-8.0-0.0-5.8","12","<p><img class= 'stimulus' src='images/baseline/scenic-mountain-landscape.jpg'></img></p>","null","","1549935368786","","","","","","",""
"null","","html-keyboard-response","469","2538542","0.0-8.0-0.0-6.8","12","<p><img class= 'stimulus' src='images/baseline/landscape19.jpg'></img></p>","null","","1549935368886","6","","","","","",""
"null","","html-keyboard-response","470","2538642","0.0-8.0-0.0-7.8","12","<p><img class= 'stimulus' src='images/baseline/cranes 1.jpg'></img></p>","null","","1549935368986","","","","","","",""
"null","","html-keyboard-response","471","2538741","0.0-8.0-0.0-8.8","12","<p><img class= 'stimulus' src='images/baseline/__08_-_ITALY_-_Forli_under_snow_-_winter_landscape_of_city_(christmas).jpg'></img></p>","null","","1549935369086","8","","","","","",""
"null","","html-keyboard-response","472","2538843","0.0-8.0-0.0-9.8","12","<p><img class= 'stimulus' src='images/baseline/Beach 3.jpg'></img></p>","null","","1549935369186","","","","","","",""
"null","","html-keyboard-response","473","2538942","0.0-8.0-0.0-10.8","12","<p><img class= 'stimulus' src='images/baseline/building5.jpg'></img></p>","null","","1549935369286","","","","","","",""
"null","","html-keyboard-response","474","2539042","0.0-8.0-0.0-11.8","12","<p><img class= 'stimulus' src='images/baseline/04064v.jpg'></img></p>","null","","1549935369388","","","","","","",""
"null","","html-keyboard-response","475","2539142","0.0-8.0-0.0-12.8","12","<p><img class= 'stimulus' src='images/baseline/03148v.jpg'></img></p>","null","","1549935369486","12","","","","","",""
"null","","html-keyboard-response","476","2539241","0.0-8.0-0.0-13.8","12","<p><img class= 'stimulus' src='images/baseline/house10.jpg'></img></p>","null","","1549935369586","","","","","","",""
"null","","html-keyboard-response","477","2539341","0.0-8.0-0.0-14.8","12","<p><img class= 'stimulus' src='images/baseline/05189v.jpg'></img></p>","null","","1549935369686","14","","","","","",""
"null","","html-keyboard-response","478","2539442","0.0-8.0-0.0-15.8","12","<p><img class= 'stimulus' src='images/baseline/sunset-over-the-lake.jpg'></img></p>","null","","1549935369787","","","","","","",""
"null","","html-keyboard-response","479","2539541","0.0-8.0-0.0-16.8","12","<p><img class= 'stimulus' src='images/baseline/pexels-photo-280222.jpeg'></img></p>","null","","1549935369885","","","","","","",""
"null","","html-keyboard-response","480","2539659","0.0-8.0-0.0-17.8","12","<p><img class= 'stimulus' src='images/baseline/02982v.jpg'></img></p>","null","","1549935369986","","","","","","",""
"2076.3000000002794","","html-button-response","481","2542738","0.0-8.0-0.0-18.8","12","<div class = ""response_question"">WAS THE IMAGE ROTATED...</div>","","5","","","null","null","null","null","test","null"
"2590.0999999996275","","html-button-response","482","2545330","0.0-8.0-0.0-0.9","12","","","0","","","","","","","",""
"null","","html-keyboard-response","483","2545408","0.0-8.0-0.0-1.9","12","<p><img class= 'stimulus' src='images/baseline/Paysage_enneige_02.jpg'></img></p>","null","","1549935375753","","","","","","",""
"null","","html-keyboard-response","484","2545509","0.0-8.0-0.0-2.9","12","<p><img class= 'stimulus' src='images/baseline/05167v.jpg'></img></p>","null","","1549935375853","","","","","","",""
"null","","html-keyboard-response","485","2545608","0.0-8.0-0.0-3.9","12","<p><img class= 'stimulus' src='images/baseline/dirt-road-or-trail-through-park.jpg'></img></p>","null","","1549935375952","","","","","","",""
"null","","html-keyboard-response","486","2545708","0.0-8.0-0.0-4.9","12","<p><img class= 'stimulus' src='images/baseline/03217v.jpg'></img></p>","null","","1549935376053","4","","","","","",""
"null","","html-keyboard-response","487","2545808","0.0-8.0-0.0-5.9","12","<p><img class= 'stimulus' src='images/baseline/04193v.jpg'></img></p>","null","","1549935376152","","","","","","",""
"null","","html-keyboard-response","488","2545909","0.0-8.0-0.0-6.9","12","<p><img class= 'stimulus' src='images/neutral/neutrall (1).jpg'></img></p>","null","","1549935376253","6","","","","","",""
"null","","html-keyboard-response","489","2546008","0.0-8.0-0.0-7.9","12","<p><img class= 'stimulus' src='images/baseline/04060v.jpg'></img></p>","null","","1549935376353","","","","","","",""
"null","","html-keyboard-response","490","2546108","0.0-8.0-0.0-8.9","12","<p><img class= 'stimulus left-rotate' src='images/target/tree1.jpg'></img></p>","null","","1549935376454","8","","","","","",""
"null","","html-keyboard-response","491","2546209","0.0-8.0-0.0-9.9","12","<p><img class= 'stimulus' src='images/baseline/04062v.jpg'></img></p>","null","","1549935376554","","","","","","",""
"null","","html-keyboard-response","492","2546308","0.0-8.0-0.0-10.9","12","<p><img class= 'stimulus' src='images/baseline/04284v.jpg'></img></p>","null","","1549935376654","","","","","","",""
"null","","html-keyboard-response","493","2546408","0.0-8.0-0.0-11.9","12","<p><img class= 'stimulus' src='images/baseline/04179v.jpg'></img></p>","null","","1549935376753","","","","","","",""
"null","","html-keyboard-response","494","2546508","0.0-8.0-0.0-12.9","12","<p><img class= 'stimulus' src='images/baseline/Camping 10.jpg'></img></p>","null","","1549935376852","12","","","","","",""
"null","","html-keyboard-response","495","2546609","0.0-8.0-0.0-13.9","12","<p><img class= 'stimulus' src='images/baseline/agriculture-countryside-crop-259280.jpg'></img></p>","null","","1549935376952","","","","","","",""
"null","","html-keyboard-response","496","2546708","0.0-8.0-0.0-14.9","12","<p><img class= 'stimulus' src='images/baseline/valley 1.jpg'></img></p>","null","","1549935377053","14","","","","","",""
"null","","html-keyboard-response","497","2546808","0.0-8.0-0.0-15.9","12","<p><img class= 'stimulus' src='images/baseline/02947v.jpg'></img></p>","null","","1549935377154","","","","","","",""
"null","","html-keyboard-response","498","2546908","0.0-8.0-0.0-16.9","12","<p><img class= 'stimulus' src='images/baseline/03220v.jpg'></img></p>","null","","1549935377252","","","","","","",""
"null","","html-keyboard-response","499","2547025","0.0-8.0-0.0-17.9","12","<p><img class= 'stimulus' src='images/baseline/pexels-photo-1048039.jpeg'></img></p>","null","","1549935377354","","","","","","",""
"1205.2999999998137","","html-button-response","500","2549234","0.0-8.0-0.0-18.9","12","<div class = ""response_question"">WAS THE IMAGE ROTATED...</div>","","1","","","6","2","neu","left","test","true"
"870.2999999998137","","html-button-response","501","2550106","0.0-8.0-0.0-0.10","12","","","0","","","","","","","",""
"null","","html-keyboard-response","502","2550192","0.0-8.0-0.0-1.10","12","<p><img class= 'stimulus' src='images/baseline/architecture-1314416_1920.jpg'></img></p>","null","","1549935380536","","","","","","",""
"null","","html-keyboard-response","503","2550292","0.0-8.0-0.0-2.10","12","<p><img class= 'stimulus' src='images/baseline/kokkari-1523011968Xfr.jpg'></img></p>","null","","1549935380637","","","","","","",""
"null","","html-keyboard-response","504","2550392","0.0-8.0-0.0-3.10","12","<p><img class= 'stimulus' src='images/baseline/landscape34.jpg'></img></p>","null","","1549935380736","","","","","","",""
"null","","html-keyboard-response","505","2550491","0.0-8.0-0.0-4.10","12","<p><img class= 'stimulus' src='images/baseline/Paysage_karabagh_02.jpg'></img></p>","null","","1549935380837","4","","","","","",""
"null","","html-keyboard-response","506","2550592","0.0-8.0-0.0-5.10","12","<p><img class= 'stimulus' src='images/baseline/landscape39.jpg'></img></p>","null","","1549935380936","","","","","","",""
"null","","html-keyboard-response","507","2550692","0.0-8.0-0.0-6.10","12","<p><img class= 'stimulus' src='images/neutral/Neuralll (1).jpg'></img></p>","null","","1549935381037","6","","","","","",""
