"rt","responses","trial_type","trial_index","time_elapsed","internal_node_id","participant_id","stimulus","key_press","button_pressed","stim_onset","sequence_position","distractor_position","target_lag","distractor_type","target_orientation","phase","correct"
"104734.19999999987","{""Q0"":""13""}","survey-text","0","104731","0.0-0.0","13","","","","","","","","","","",""
"3769812.1000000006","","html-keyboard-response","1","3874559","0.0-1.0","13","Welcome to the experiment.","67","","","","","","","","",""
"17333.89999999944","","html-button-response","2","3891900","0.0-2.0","13","<p>Several images will be presented sequentially.        Each image will only be on the screen for about 100 milliseconds.</p>        <p> One of the images may be rotated 90 degrees right or left.        Watch for this image and remember if it is rotated right or left.</p>               <p>Images of people and animals will appear, and sometimes they will be unpleasant.        These will never be the rotated target image.</p>","","0","","","","","","","",""
"2558.2999999998137","","html-button-response","3","3894458","0.0-3.0","13","<p><img class=""stimulus left-rotate"" src=""images/target/tree_1.jpg""></img></p><p>This is an example of an image rotated to the left.</p>","","0","","","","","","","",""
"2863.0999999996275","","html-button-response","4","3897322","0.0-4.0","13","<p><img class=""stimulus"" src=""images/target/petronas-towers-433081_1920.jpg""></img></p><p>This is an example of an image rotated to the right.</p>","","0","","","","","","","",""
"11142.900000000838","","html-button-response","5","3908467","0.0-5.0","13","<p>We will now begin a short practice session.</p>         <p>A + symbol will appear in the middle of the screen. Please fix your gaze on the center of the +, and then click the mouse button to begin the image sequence.</p>         <p>Please avoid blinking or eye movements while the images are on the screen.</p>        <p>The image sequence will start relatively slow. After a few sequences, it will speed up.</p>","","0","","","","","","","",""
"5166.700000000652","","html-button-response","6","3913635","0.0-6.0-0.0","13","","","0","","","","","","","",""
"null","","html-keyboard-response","7","3913809","0.0-6.0-1.0","13","<p><img class= 'stimulus' src='images/baseline/05280v.jpg'></img></p>","null","","1550005023294","","","","","","",""
"null","","html-keyboard-response","8","3914010","0.0-6.0-2.0","13","<p><img class= 'stimulus' src='images/baseline/Dirt 2.jpg'></img></p>","null","","1550005023493","","","","","","",""
"null","","html-keyboard-response","9","3914210","0.0-6.0-3.0","13","<p><img class= 'stimulus' src='images/baseline/Beach 8.jpg'></img></p>","null","","1550005023693","","","","","","",""
"null","","html-keyboard-response","10","3914411","0.0-6.0-4.0","13","<p><img class= 'stimulus' src='images/baseline/bird-flying-at-sunset.jpg'></img></p>","null","","1550005023893","4","","","","","",""
"null","","html-keyboard-response","11","3914609","0.0-6.0-5.0","13","<p><img class= 'stimulus' src='images/baseline/Aletschgletscher-Eggishorn.jpg'></img></p>","null","","1550005024094","","","","","","",""
"null","","html-keyboard-response","12","3914808","0.0-6.0-6.0","13","<p><img class= 'stimulus' src='images/baseline/farmhouse4.jpg'></img></p>","null","","1550005024294","6","","","","","",""
"null","","html-keyboard-response","13","3915010","0.0-6.0-7.0","13","<p><img class= 'stimulus' src='images/baseline/landscape14.jpg'></img></p>","null","","1550005024494","","","","","","",""
"null","","html-keyboard-response","14","3915210","0.0-6.0-8.0","13","<p><img class= 'stimulus left-rotate' src='images/target/cactus2.jpg'></img></p>","null","","1550005024694","8","","","","","",""
"null","","html-keyboard-response","15","3915410","0.0-6.0-9.0","13","<p><img class= 'stimulus' src='images/baseline/landscape39.jpg'></img></p>","null","","1550005024896","","","","","","",""
"null","","html-keyboard-response","16","3915609","0.0-6.0-10.0","13","<p><img class= 'stimulus' src='images/baseline/house2.jpg'></img></p>","null","","1550005025094","","","","","","",""
"null","","html-keyboard-response","17","3915810","0.0-6.0-11.0","13","<p><img class= 'stimulus' src='images/baseline/Paysage_karabagh_02.jpg'></img></p>","null","","1550005025296","","","","","","",""
"null","","html-keyboard-response","18","3916011","0.0-6.0-12.0","13","<p><img class= 'stimulus' src='images/baseline/05292v.jpg'></img></p>","null","","1550005025495","12","","","","","",""
"null","","html-keyboard-response","19","3916212","0.0-6.0-13.0","13","<p><img class= 'stimulus' src='images/baseline/05203v.jpg'></img></p>","null","","1550005025697","","","","","","",""
"null","","html-keyboard-response","20","3916412","0.0-6.0-14.0","13","<p><img class= 'stimulus' src='images/baseline/hills 3.jpg'></img></p>","null","","1550005025897","14","","","","","",""
"null","","html-keyboard-response","21","3916612","0.0-6.0-15.0","13","<p><img class= 'stimulus' src='images/baseline/river 1.jpg'></img></p>","null","","1550005026097","","","","","","",""
"null","","html-keyboard-response","22","3916811","0.0-6.0-16.0","13","<p><img class= 'stimulus' src='images/baseline/empire-state-building.jpg'></img></p>","null","","1550005026296","","","","","","",""
"null","","html-keyboard-response","23","3917028","0.0-6.0-17.0","13","<p><img class= 'stimulus' src='images/baseline/Road 1.jpg'></img></p>","null","","1550005026495","","","","","","",""
"7235.100000000093","","html-button-response","24","3925276","0.0-6.0-18.0","13","<div class = ""response_question"">WAS THE IMAGE ROTATED...</div>","","1","","","6","2","bas","left","practice","true"
"2613.5999999996275","","html-button-response","25","3927892","0.0-6.0-0.1","13","","","0","","","","","","","",""
"null","","html-keyboard-response","26","3928078","0.0-6.0-1.1","13","<p><img class= 'stimulus' src='images/baseline/cranes 1.jpg'></img></p>","null","","1550005037563","","","","","","",""
"null","","html-keyboard-response","27","3928278","0.0-6.0-2.1","13","<p><img class= 'stimulus' src='images/baseline/Paysage_enneige_02.jpg'></img></p>","null","","1550005037762","","","","","","",""
"null","","html-keyboard-response","28","3928477","0.0-6.0-3.1","13","<p><img class= 'stimulus' src='images/baseline/Skijump 1.jpg'></img></p>","null","","1550005037963","","","","","","",""
"null","","html-keyboard-response","29","3928678","0.0-6.0-4.1","13","<p><img class= 'stimulus' src='images/baseline/03066v.jpg'></img></p>","null","","1550005038162","4","","","","","",""
"null","","html-keyboard-response","30","3928878","0.0-6.0-5.1","13","<p><img class= 'stimulus' src='images/baseline/field 1.jpg'></img></p>","null","","1550005038361","","","","","","",""
"null","","html-keyboard-response","31","3929078","0.0-6.0-6.1","13","<p><img class= 'stimulus' src='images/baseline/Freudenberg_sg_Switzerland.jpg'></img></p>","null","","1550005038563","6","","","","","",""
"null","","html-keyboard-response","32","3929279","0.0-6.0-7.1","13","<p><img class= 'stimulus' src='images/baseline/Lake 16.jpg'></img></p>","null","","1550005038762","","","","","","",""
"null","","html-keyboard-response","33","3929479","0.0-6.0-8.1","13","<p><img class= 'stimulus' src='images/baseline/pexels-photo-259280.jpeg'></img></p>","null","","1550005038962","8","","","","","",""
"null","","html-keyboard-response","34","3929678","0.0-6.0-9.1","13","<p><img class= 'stimulus' src='images/baseline/pexels-photo-459203.jpeg'></img></p>","null","","1550005039162","","","","","","",""
"null","","html-keyboard-response","35","3929878","0.0-6.0-10.1","13","<p><img class= 'stimulus' src='images/baseline/Beach 2.jpg'></img></p>","null","","1550005039363","","","","","","",""
"null","","html-keyboard-response","36","3930077","0.0-6.0-11.1","13","<p><img class= 'stimulus' src='images/baseline/Lake 3.jpg'></img></p>","null","","1550005039563","","","","","","",""
"null","","html-keyboard-response","37","3930278","0.0-6.0-12.1","13","<p><img class= 'stimulus left-rotate' src='images/target/Tree-Landscape-Winter-Nature-Winter-Trees-Snow-2117951.jpg'></img></p>","null","","1550005039762","12","","","","","",""
"null","","html-keyboard-response","38","3930478","0.0-6.0-13.1","13","<p><img class= 'stimulus' src='images/baseline/04040v.jpg'></img></p>","null","","1550005039962","","","","","","",""
"null","","html-keyboard-response","39","3930678","0.0-6.0-14.1","13","<p><img class= 'stimulus' src='images/baseline/valley 2.jpg'></img></p>","null","","1550005040162","14","","","","","",""
"null","","html-keyboard-response","40","3930877","0.0-6.0-15.1","13","<p><img class= 'stimulus' src='images/baseline/building5.jpg'></img></p>","null","","1550005040362","","","","","","",""
"null","","html-keyboard-response","41","3931078","0.0-6.0-16.1","13","<p><img class= 'stimulus' src='images/baseline/03075v.jpg'></img></p>","null","","1550005040562","","","","","","",""
"null","","html-keyboard-response","42","3931295","0.0-6.0-17.1","13","<p><img class= 'stimulus' src='images/baseline/landscape2.jpg'></img></p>","null","","1550005040761","","","","","","",""
"1504.6999999997206","","html-button-response","43","3933804","0.0-6.0-18.1","13","<div class = ""response_question"">WAS THE IMAGE ROTATED...</div>","","1","","","4","8","bas","left","practice","true"
"4430.299999999814","","html-button-response","44","3938236","0.0-6.0-0.2","13","","","0","","","","","","","",""
"null","","html-keyboard-response","45","3938412","0.0-6.0-1.2","13","<p><img class= 'stimulus' src='images/baseline/04062v.jpg'></img></p>","null","","1550005047895","","","","","","",""
"null","","html-keyboard-response","46","3938611","0.0-6.0-2.2","13","<p><img class= 'stimulus' src='images/baseline/seoul-410266_1920.jpg'></img></p>","null","","1550005048096","","","","","","",""
"null","","html-keyboard-response","47","3938813","0.0-6.0-3.2","13","<p><img class= 'stimulus' src='images/baseline/landscape38.jpg'></img></p>","null","","1550005048296","","","","","","",""
"null","","html-keyboard-response","48","3939011","0.0-6.0-4.2","13","<p><img class= 'stimulus' src='images/baseline/Lake 9.jpg'></img></p>","null","","1550005048498","4","","","","","",""
"null","","html-keyboard-response","49","3939212","0.0-6.0-5.2","13","<p><img class= 'stimulus' src='images/baseline/Kocherbaumwald-01.jpg'></img></p>","null","","1550005048695","","","","","","",""
"null","","html-keyboard-response","50","3939412","0.0-6.0-6.2","13","<p><img class= 'stimulus' src='images/baseline/autumn-in-red-rocks-park.jpg'></img></p>","null","","1550005048896","6","","","","","",""
"null","","html-keyboard-response","51","3939613","0.0-6.0-7.2","13","<p><img class= 'stimulus' src='images/baseline/pexels-photo-414491.jpeg'></img></p>","null","","1550005049096","","","","","","",""
"null","","html-keyboard-response","52","3939813","0.0-6.0-8.2","13","<p><img class= 'stimulus' src='images/target/tree1.jpg'></img></p>","null","","1550005049297","8","","","","","",""
"null","","html-keyboard-response","53","3940013","0.0-6.0-9.2","13","<p><img class= 'stimulus' src='images/baseline/05158v.jpg'></img></p>","null","","1550005049497","","","","","","",""
"null","","html-keyboard-response","54","3940214","0.0-6.0-10.2","13","<p><img class= 'stimulus' src='images/baseline/04222v.jpg'></img></p>","null","","1550005049698","","","","","","",""
"null","","html-keyboard-response","55","3940414","0.0-6.0-11.2","13","<p><img class= 'stimulus' src='images/baseline/03204v.jpg'></img></p>","null","","1550005049897","","","","","","",""
"null","","html-keyboard-response","56","3940613","0.0-6.0-12.2","13","<p><img class= 'stimulus' src='images/baseline/03212v.jpg'></img></p>","null","","1550005050098","12","","","","","",""
"null","","html-keyboard-response","57","3940814","0.0-6.0-13.2","13","<p><img class= 'stimulus' src='images/baseline/03201v.jpg'></img></p>","null","","1550005050298","","","","","","",""
"null","","html-keyboard-response","58","3941012","0.0-6.0-14.2","13","<p><img class= 'stimulus' src='images/baseline/landscape29.jpg'></img></p>","null","","1550005050497","14","","","","","",""
"null","","html-keyboard-response","59","3941212","0.0-6.0-15.2","13","<p><img class= 'stimulus' src='images/baseline/sunset-over-the-lake.jpg'></img></p>","null","","1550005050697","","","","","","",""
"null","","html-keyboard-response","60","3941413","0.0-6.0-16.2","13","<p><img class= 'stimulus' src='images/baseline/hills 4.jpg'></img></p>","null","","1550005050897","","","","","","",""
"null","","html-keyboard-response","61","3941629","0.0-6.0-17.2","13","<p><img class= 'stimulus' src='images/baseline/pexels-photo-894312.jpeg'></img></p>","null","","1550005051096","","","","","","",""
"3058.7999999998137","","html-button-response","62","3945700","0.0-6.0-18.2","13","<div class = ""response_question"">WAS THE IMAGE ROTATED...</div>","","3","","","6","2","bas","right","practice","true"
"1046.2999999998137","","html-button-response","63","3946748","0.0-6.0-0.3","13","","","0","","","","","","","",""
"null","","html-keyboard-response","64","3946929","0.0-6.0-1.3","13","<p><img class= 'stimulus' src='images/baseline/05247v.jpg'></img></p>","null","","1550005056414","","","","","","",""
"null","","html-keyboard-response","65","3947129","0.0-6.0-2.3","13","<p><img class= 'stimulus' src='images/baseline/pexels-photo-750108.jpeg'></img></p>","null","","1550005056612","","","","","","",""
"null","","html-keyboard-response","66","3947329","0.0-6.0-3.3","13","<p><img class= 'stimulus' src='images/baseline/vintage-art-deco-storefront.jpg'></img></p>","null","","1550005056814","","","","","","",""
"null","","html-keyboard-response","67","3947529","0.0-6.0-4.3","13","<p><img class= 'stimulus' src='images/baseline/pexels-photo-568236.jpeg'></img></p>","null","","1550005057014","4","","","","","",""
"null","","html-keyboard-response","68","3947730","0.0-6.0-5.3","13","<p><img class= 'stimulus' src='images/baseline/04021v.jpg'></img></p>","null","","1550005057214","","","","","","",""
"null","","html-keyboard-response","69","3947930","0.0-6.0-6.3","13","<p><img class= 'stimulus' src='images/target/buildin5.jpg'></img></p>","null","","1550005057414","6","","","","","",""
"null","","html-keyboard-response","70","3948130","0.0-6.0-7.3","13","<p><img class= 'stimulus' src='images/baseline/pexels-photo-1287089.jpeg'></img></p>","null","","1550005057615","","","","","","",""
"null","","html-keyboard-response","71","3948330","0.0-6.0-8.3","13","<p><img class= 'stimulus' src='images/baseline/Skyscraper 1.jpg'></img></p>","null","","1550005057815","8","","","","","",""
"null","","html-keyboard-response","72","3948529","0.0-6.0-9.3","13","<p><img class= 'stimulus' src='images/baseline/grand-teton-mountains.jpg'></img></p>","null","","1550005058015","","","","","","",""
"null","","html-keyboard-response","73","3948730","0.0-6.0-10.3","13","<p><img class= 'stimulus' src='images/baseline/02988v.jpg'></img></p>","null","","1550005058215","","","","","","",""
"null","","html-keyboard-response","74","3948930","0.0-6.0-11.3","13","<p><img class= 'stimulus' src='images/baseline/landscape31.jpg'></img></p>","null","","1550005058415","","","","","","",""
"null","","html-keyboard-response","75","3949130","0.0-6.0-12.3","13","<p><img class= 'stimulus' src='images/baseline/building4.jpg'></img></p>","null","","1550005058614","12","","","","","",""
"null","","html-keyboard-response","76","3949329","0.0-6.0-13.3","13","<p><img class= 'stimulus' src='images/baseline/04130v.jpg'></img></p>","null","","1550005058814","","","","","","",""
"null","","html-keyboard-response","77","3949530","0.0-6.0-14.3","13","<p><img class= 'stimulus' src='images/baseline/04158v.jpg'></img></p>","null","","1550005059014","14","","","","","",""
"null","","html-keyboard-response","78","3949729","0.0-6.0-15.3","13","<p><img class= 'stimulus' src='images/baseline/04201v.jpg'></img></p>","null","","1550005059213","","","","","","",""
"null","","html-keyboard-response","79","3949929","0.0-6.0-16.3","13","<p><img class= 'stimulus' src='images/baseline/lookout_tower.jpg'></img></p>","null","","1550005059414","","","","","","",""
"null","","html-keyboard-response","80","3950148","0.0-6.0-17.3","13","<p><img class= 'stimulus' src='images/baseline/pexels-photo-210617.jpeg'></img></p>","null","","1550005059615","","","","","","",""
"1116.8999999999069","","html-button-response","81","3952268","0.0-6.0-18.3","13","<div class = ""response_question"">WAS THE IMAGE ROTATED...</div>","","3","","","4","2","bas","right","practice","true"
"670.3999999999069","","html-button-response","82","3952940","0.0-6.0-0.4","13","","","0","","","","","","","",""
"null","","html-keyboard-response","83","3953062","0.0-6.0-1.4","13","<p><img class= 'stimulus' src='images/baseline/farmhouse11.jpg'></img></p>","null","","1550005062596","","","","","","",""
"null","","html-keyboard-response","84","3953211","0.0-6.0-2.4","13","<p><img class= 'stimulus' src='images/baseline/scenic-mountain-landscape.jpg'></img></p>","null","","1550005062747","","","","","","",""
"null","","html-keyboard-response","85","3953361","0.0-6.0-3.4","13","<p><img class= 'stimulus' src='images/baseline/pexels-photo-221125.jpeg'></img></p>","null","","1550005062897","","","","","","",""
"null","","html-keyboard-response","86","3953511","0.0-6.0-4.4","13","<p><img class= 'stimulus' src='images/baseline/landscape12.jpg'></img></p>","null","","1550005063046","4","","","","","",""
"null","","html-keyboard-response","87","3953662","0.0-6.0-5.4","13","<p><img class= 'stimulus' src='images/baseline/Sunset 5.jpg'></img></p>","null","","1550005063196","","","","","","",""
"null","","html-keyboard-response","88","3953812","0.0-6.0-6.4","13","<p><img class= 'stimulus' src='images/baseline/05161v.jpg'></img></p>","null","","1550005063346","6","","","","","",""
"null","","html-keyboard-response","89","3953960","0.0-6.0-7.4","13","<p><img class= 'stimulus' src='images/baseline/Sailing 3.jpg'></img></p>","null","","1550005063495","","","","","","",""
"null","","html-keyboard-response","90","3954111","0.0-6.0-8.4","13","<p><img class= 'stimulus' src='images/baseline/Desert_View_Indian_Wells.jpg'></img></p>","null","","1550005063646","8","","","","","",""
"null","","html-keyboard-response","91","3954261","0.0-6.0-9.4","13","<p><img class= 'stimulus' src='images/baseline/04064v.jpg'></img></p>","null","","1550005063795","","","","","","",""
"null","","html-keyboard-response","92","3954411","0.0-6.0-10.4","13","<p><img class= 'stimulus' src='images/baseline/Linden,_paysage.jpg'></img></p>","null","","1550005063946","","","","","","",""
"null","","html-keyboard-response","93","3954561","0.0-6.0-11.4","13","<p><img class= 'stimulus' src='images/baseline/4k-wallpaper-agriculture-clouds-842711.jpg'></img></p>","null","","1550005064095","","","","","","",""
"null","","html-keyboard-response","94","3954710","0.0-6.0-12.4","13","<p><img class= 'stimulus' src='images/baseline/landscape23.jpg'></img></p>","null","","1550005064245","12","","","","","",""
"null","","html-keyboard-response","95","3954860","0.0-6.0-13.4","13","<p><img class= 'stimulus' src='images/baseline/red rocks from afar.jpg'></img></p>","null","","1550005064396","","","","","","",""
"null","","html-keyboard-response","96","3955011","0.0-6.0-14.4","13","<p><img class= 'stimulus' src='images/target/mitre peak.jpg'></img></p>","null","","1550005064546","14","","","","","",""
"null","","html-keyboard-response","97","3955161","0.0-6.0-15.4","13","<p><img class= 'stimulus' src='images/baseline/landscape19.jpg'></img></p>","null","","1550005064695","","","","","","",""
"null","","html-keyboard-response","98","3955311","0.0-6.0-16.4","13","<p><img class= 'stimulus' src='images/baseline/farmhouse6.jpg'></img></p>","null","","1550005064845","","","","","","",""
"null","","html-keyboard-response","99","3955478","0.0-6.0-17.4","13","<p><img class= 'stimulus' src='images/baseline/landscape22.jpg'></img></p>","null","","1550005064995","","","","","","",""
"1455.700000000652","","html-button-response","100","3957948","0.0-6.0-18.4","13","<div class = ""response_question"">WAS THE IMAGE ROTATED...</div>","","4","","","6","8","bas","right","practice","true"
"1318.2999999998137","","html-button-response","101","3959267","0.0-6.0-0.5","13","","","0","","","","","","","",""
"null","","html-keyboard-response","102","3959394","0.0-6.0-1.5","13","<p><img class= 'stimulus' src='images/baseline/04117v.jpg'></img></p>","null","","1550005068928","","","","","","",""
"null","","html-keyboard-response","103","3959544","0.0-6.0-2.5","13","<p><img class= 'stimulus' src='images/baseline/Sky 1.jpg'></img></p>","null","","1550005069078","","","","","","",""
"null","","html-keyboard-response","104","3959694","0.0-6.0-3.5","13","<p><img class= 'stimulus' src='images/baseline/farmhouse1.jpg'></img></p>","null","","1550005069228","","","","","","",""
"null","","html-keyboard-response","105","3959843","0.0-6.0-4.5","13","<p><img class= 'stimulus' src='images/baseline/flooded-bridge.jpg'></img></p>","null","","1550005069378","4","","","","","",""
"null","","html-keyboard-response","106","3959993","0.0-6.0-5.5","13","<p><img class= 'stimulus' src='images/baseline/landscape15.jpg'></img></p>","null","","1550005069529","","","","","","",""
"null","","html-keyboard-response","107","3960143","0.0-6.0-6.5","13","<p><img class= 'stimulus left-rotate' src='images/target/building1.jpg'></img></p>","null","","1550005069679","6","","","","","",""
"null","","html-keyboard-response","108","3960294","0.0-6.0-7.5","13","<p><img class= 'stimulus' src='images/baseline/hills 1.jpg'></img></p>","null","","1550005069827","","","","","","",""
"null","","html-keyboard-response","109","3960444","0.0-6.0-8.5","13","<p><img class= 'stimulus' src='images/baseline/05198v.jpg'></img></p>","null","","1550005069979","8","","","","","",""
"null","","html-keyboard-response","110","3960594","0.0-6.0-9.5","13","<p><img class= 'stimulus' src='images/baseline/landscape37.jpg'></img></p>","null","","1550005070128","","","","","","",""
"null","","html-keyboard-response","111","3960744","0.0-6.0-10.5","13","<p><img class= 'stimulus' src='images/baseline/03180v.jpg'></img></p>","null","","1550005070278","","","","","","",""
"null","","html-keyboard-response","112","3960894","0.0-6.0-11.5","13","<p><img class= 'stimulus' src='images/baseline/05167v.jpg'></img></p>","null","","1550005070428","","","","","","",""
"null","","html-keyboard-response","113","3961044","0.0-6.0-12.5","13","<p><img class= 'stimulus' src='images/baseline/05240v.jpg'></img></p>","null","","1550005070579","12","","","","","",""
"null","","html-keyboard-response","114","3961194","0.0-6.0-13.5","13","<p><img class= 'stimulus' src='images/baseline/house7.jpg'></img></p>","null","","1550005070728","","","","","","",""
"null","","html-keyboard-response","115","3961344","0.0-6.0-14.5","13","<p><img class= 'stimulus' src='images/baseline/Path 1.jpg'></img></p>","null","","1550005070877","14","","","","","",""
"null","","html-keyboard-response","116","3961493","0.0-6.0-15.5","13","<p><img class= 'stimulus' src='images/baseline/landscape4.jpg'></img></p>","null","","1550005071027","","","","","","",""
"null","","html-keyboard-response","117","3961644","0.0-6.0-16.5","13","<p><img class= 'stimulus' src='images/baseline/field 2.jpg'></img></p>","null","","1550005071178","","","","","","",""
"null","","html-keyboard-response","118","3961810","0.0-6.0-17.5","13","<p><img class= 'stimulus' src='images/baseline/red-rocks-park.jpg'></img></p>","null","","1550005071328","","","","","","",""
"1007.2000000001863","","html-button-response","119","3963820","0.0-6.0-18.5","13","<div class = ""response_question"">WAS THE IMAGE ROTATED...</div>","","0","","","4","2","bas","left","practice","true"
"1030.6000000000931","","html-button-response","120","3964851","0.0-6.0-0.6","13","","","0","","","","","","","",""
"null","","html-keyboard-response","121","3964977","0.0-6.0-1.6","13","<p><img class= 'stimulus' src='images/baseline/city-silhouette-at-sunset-871291580819Esw.jpg'></img></p>","null","","1550005074512","","","","","","",""
"null","","html-keyboard-response","122","3965127","0.0-6.0-2.6","13","<p><img class= 'stimulus' src='images/baseline/04060v.jpg'></img></p>","null","","1550005074661","","","","","","",""
"null","","html-keyboard-response","123","3965278","0.0-6.0-3.6","13","<p><img class= 'stimulus' src='images/baseline/02945v.jpg'></img></p>","null","","1550005074811","","","","","","",""
"null","","html-keyboard-response","124","3965427","0.0-6.0-4.6","13","<p><img class= 'stimulus' src='images/baseline/05186v.jpg'></img></p>","null","","1550005074962","4","","","","","",""
"null","","html-keyboard-response","125","3965576","0.0-6.0-5.6","13","<p><img class= 'stimulus' src='images/baseline/02962v.jpg'></img></p>","null","","1550005075112","","","","","","",""
"null","","html-keyboard-response","126","3965727","0.0-6.0-6.6","13","<p><img class= 'stimulus' src='images/baseline/04229v.jpg'></img></p>","null","","1550005075261","6","","","","","",""
"null","","html-keyboard-response","127","3965877","0.0-6.0-7.6","13","<p><img class= 'stimulus' src='images/baseline/landscape8.jpg'></img></p>","null","","1550005075413","","","","","","",""
"null","","html-keyboard-response","128","3966027","0.0-6.0-8.6","13","<p><img class= 'stimulus' src='images/baseline/05242v.jpg'></img></p>","null","","1550005075560","8","","","","","",""
"null","","html-keyboard-response","129","3966177","0.0-6.0-9.6","13","<p><img class= 'stimulus' src='images/baseline/cyrillic.jpg'></img></p>","null","","1550005075712","","","","","","",""
"null","","html-keyboard-response","130","3966327","0.0-6.0-10.6","13","<p><img class= 'stimulus' src='images/baseline/Dock 1.jpg'></img></p>","null","","1550005075862","","","","","","",""
"null","","html-keyboard-response","131","3966478","0.0-6.0-11.6","13","<p><img class= 'stimulus' src='images/baseline/pexels-photo-1054289.jpeg'></img></p>","null","","1550005076011","","","","","","",""
"null","","html-keyboard-response","132","3966628","0.0-6.0-12.6","13","<p><img class= 'stimulus' src='images/target/building19.jpg'></img></p>","null","","1550005076161","12","","","","","",""
"null","","html-keyboard-response","133","3966776","0.0-6.0-13.6","13","<p><img class= 'stimulus' src='images/baseline/house8.jpg'></img></p>","null","","1550005076312","","","","","","",""
"null","","html-keyboard-response","134","3966927","0.0-6.0-14.6","13","<p><img class= 'stimulus' src='images/baseline/pexels-photo-1048039.jpeg'></img></p>","null","","1550005076462","14","","","","","",""
"null","","html-keyboard-response","135","3967077","0.0-6.0-15.6","13","<p><img class= 'stimulus' src='images/baseline/landscape34.jpg'></img></p>","null","","1550005076611","","","","","","",""
"null","","html-keyboard-response","136","3967227","0.0-6.0-16.6","13","<p><img class= 'stimulus' src='images/baseline/agriculture-bright-clouds-440731.jpg'></img></p>","null","","1550005076761","","","","","","",""
"null","","html-keyboard-response","137","3967395","0.0-6.0-17.6","13","<p><img class= 'stimulus' src='images/baseline/05264v.jpg'></img></p>","null","","1550005076911","","","","","","",""
"886.5000000009313","","html-button-response","138","3969284","0.0-6.0-18.6","13","<div class = ""response_question"">WAS THE IMAGE ROTATED...</div>","","3","","","4","8","bas","right","practice","true"
"910.3000000007451","","html-button-response","139","3970195","0.0-6.0-0.7","13","","","0","","","","","","","",""
"null","","html-keyboard-response","140","3970327","0.0-6.0-1.7","13","<p><img class= 'stimulus' src='images/baseline/04098v.jpg'></img></p>","null","","1550005079861","","","","","","",""
"null","","html-keyboard-response","141","3970477","0.0-6.0-2.7","13","<p><img class= 'stimulus' src='images/baseline/lake3.jpg'></img></p>","null","","1550005080011","","","","","","",""
"null","","html-keyboard-response","142","3970627","0.0-6.0-3.7","13","<p><img class= 'stimulus' src='images/baseline/03162v.jpg'></img></p>","null","","1550005080162","","","","","","",""
"null","","html-keyboard-response","143","3970777","0.0-6.0-4.7","13","<p><img class= 'stimulus' src='images/baseline/05139v.jpg'></img></p>","null","","1550005080311","4","","","","","",""
"null","","html-keyboard-response","144","3970927","0.0-6.0-5.7","13","<p><img class= 'stimulus' src='images/baseline/05189v.jpg'></img></p>","null","","1550005080462","","","","","","",""
"null","","html-keyboard-response","145","3971077","0.0-6.0-6.7","13","<p><img class= 'stimulus' src='images/baseline/chicago-skyline-at-night-1476869511p8U.jpg'></img></p>","null","","1550005080612","6","","","","","",""
"null","","html-keyboard-response","146","3971227","0.0-6.0-7.7","13","<p><img class= 'stimulus' src='images/baseline/building8.jpg'></img></p>","null","","1550005080762","","","","","","",""
"null","","html-keyboard-response","147","3971377","0.0-6.0-8.7","13","<p><img class= 'stimulus' src='images/baseline/architecture-1314416_1920.jpg'></img></p>","null","","1550005080912","8","","","","","",""
"null","","html-keyboard-response","148","3971527","0.0-6.0-9.7","13","<p><img class= 'stimulus' src='images/baseline/04010v.jpg'></img></p>","null","","1550005081061","","","","","","",""
"null","","html-keyboard-response","149","3971677","0.0-6.0-10.7","13","<p><img class= 'stimulus' src='images/baseline/Waterfall 1.jpg'></img></p>","null","","1550005081211","","","","","","",""
"null","","html-keyboard-response","150","3971828","0.0-6.0-11.7","13","<p><img class= 'stimulus' src='images/baseline/landscape13.jpg'></img></p>","null","","1550005081362","","","","","","",""
"null","","html-keyboard-response","151","3971977","0.0-6.0-12.7","13","<p><img class= 'stimulus' src='images/baseline/02947v.jpg'></img></p>","null","","1550005081512","12","","","","","",""
"null","","html-keyboard-response","152","3972128","0.0-6.0-13.7","13","<p><img class= 'stimulus' src='images/baseline/kokkari-1523011968Xfr.jpg'></img></p>","null","","1550005081662","","","","","","",""
"null","","html-keyboard-response","153","3972277","0.0-6.0-14.7","13","<p><img class= 'stimulus left-rotate' src='images/target/italy-building-1206128_1280.jpg'></img></p>","null","","1550005081812","14","","","","","",""
"null","","html-keyboard-response","154","3972427","0.0-6.0-15.7","13","<p><img class= 'stimulus' src='images/baseline/house6.jpg'></img></p>","null","","1550005081962","","","","","","",""
"null","","html-keyboard-response","155","3972577","0.0-6.0-16.7","13","<p><img class= 'stimulus' src='images/baseline/horse_statue.jpg'></img></p>","null","","1550005082112","","","","","","",""
"null","","html-keyboard-response","156","3972743","0.0-6.0-17.7","13","<p><img class= 'stimulus' src='images/baseline/pexels-photo-534164.jpeg'></img></p>","null","","1550005082261","","","","","","",""
"858.1999999997206","","html-button-response","157","3974604","0.0-6.0-18.7","13","<div class = ""response_question"">WAS THE IMAGE ROTATED...</div>","","0","","","6","8","bas","left","practice","true"
"766.7000000001863","","html-button-response","158","3975372","0.0-6.0-0.8","13","","","0","","","","","","","",""
"null","","html-keyboard-response","159","3975444","0.0-6.0-1.8","13","<p><img class= 'stimulus' src='images/baseline/Lake 4.jpg'></img></p>","null","","1550005085028","","","","","","",""
"null","","html-keyboard-response","160","3975543","0.0-6.0-2.8","13","<p><img class= 'stimulus' src='images/baseline/pexels-photo-1837621.jpeg'></img></p>","null","","1550005085128","","","","","","",""
"null","","html-keyboard-response","161","3975643","0.0-6.0-3.8","13","<p><img class= 'stimulus' src='images/baseline/Camping 10.jpg'></img></p>","null","","1550005085228","","","","","","",""
"null","","html-keyboard-response","162","3975745","0.0-6.0-4.8","13","<p><img class= 'stimulus' src='images/baseline/04284v.jpg'></img></p>","null","","1550005085329","4","","","","","",""
"null","","html-keyboard-response","163","3975843","0.0-6.0-5.8","13","<p><img class= 'stimulus' src='images/baseline/building9.jpg'></img></p>","null","","1550005085428","","","","","","",""
"null","","html-keyboard-response","164","3975943","0.0-6.0-6.8","13","<p><img class= 'stimulus' src='images/target/shotstash_0036-1-1100x734.jpg'></img></p>","null","","1550005085529","6","","","","","",""
"null","","html-keyboard-response","165","3976043","0.0-6.0-7.8","13","<p><img class= 'stimulus' src='images/baseline/Beach 3.jpg'></img></p>","null","","1550005085627","","","","","","",""
"null","","html-keyboard-response","166","3976143","0.0-6.0-8.8","13","<p><img class= 'stimulus' src='images/baseline/pexels-photo-808465.jpeg'></img></p>","null","","1550005085727","8","","","","","",""
"null","","html-keyboard-response","167","3976244","0.0-6.0-9.8","13","<p><img class= 'stimulus' src='images/baseline/architecture-956332_1280.jpg'></img></p>","null","","1550005085829","","","","","","",""
"null","","html-keyboard-response","168","3976343","0.0-6.0-10.8","13","<p><img class= 'stimulus' src='images/baseline/landscape16.jpg'></img></p>","null","","1550005085928","","","","","","",""
"null","","html-keyboard-response","169","3976444","0.0-6.0-11.8","13","<p><img class= 'stimulus' src='images/baseline/tennis-court-net-buried-in-snow.jpg'></img></p>","null","","1550005086029","","","","","","",""
"null","","html-keyboard-response","170","3976543","0.0-6.0-12.8","13","<p><img class= 'stimulus' src='images/baseline/05303v.jpg'></img></p>","null","","1550005086128","12","","","","","",""
"null","","html-keyboard-response","171","3976644","0.0-6.0-13.8","13","<p><img class= 'stimulus' src='images/baseline/03148v.jpg'></img></p>","null","","1550005086228","","","","","","",""
"null","","html-keyboard-response","172","3976744","0.0-6.0-14.8","13","<p><img class= 'stimulus' src='images/baseline/05252v.jpg'></img></p>","null","","1550005086328","14","","","","","",""
"null","","html-keyboard-response","173","3976844","0.0-6.0-15.8","13","<p><img class= 'stimulus' src='images/baseline/04085v.jpg'></img></p>","null","","1550005086428","","","","","","",""
"null","","html-keyboard-response","174","3976943","0.0-6.0-16.8","13","<p><img class= 'stimulus' src='images/baseline/03112v.jpg'></img></p>","null","","1550005086527","","","","","","",""
"null","","html-keyboard-response","175","3977060","0.0-6.0-17.8","13","<p><img class= 'stimulus' src='images/baseline/Niinsaare_jarv.jpg'></img></p>","null","","1550005086629","","","","","","",""
"548.3999999994412","","html-button-response","176","3978612","0.0-6.0-18.8","13","<div class = ""response_question"">WAS THE IMAGE ROTATED...</div>","","3","","","4","2","bas","right","practice","true"
"702.3999999994412","","html-button-response","177","3979315","0.0-6.0-0.9","13","","","0","","","","","","","",""
"null","","html-keyboard-response","178","3979394","0.0-6.0-1.9","13","<p><img class= 'stimulus' src='images/baseline/Peyto_Lake-Banff_NP-Canada.jpg'></img></p>","null","","1550005088978","","","","","","",""
"null","","html-keyboard-response","179","3979495","0.0-6.0-2.9","13","<p><img class= 'stimulus' src='images/baseline/pexels-photo-440731.jpeg'></img></p>","null","","1550005089078","","","","","","",""
"null","","html-keyboard-response","180","3979594","0.0-6.0-3.9","13","<p><img class= 'stimulus' src='images/baseline/Street 4.jpg'></img></p>","null","","1550005089178","","","","","","",""
"null","","html-keyboard-response","181","3979693","0.0-6.0-4.9","13","<p><img class= 'stimulus' src='images/baseline/Street 5.jpg'></img></p>","null","","1550005089279","4","","","","","",""
"null","","html-keyboard-response","182","3979793","0.0-6.0-5.9","13","<p><img class= 'stimulus' src='images/baseline/02977v.jpg'></img></p>","null","","1550005089378","","","","","","",""
"null","","html-keyboard-response","183","3979893","0.0-6.0-6.9","13","<p><img class= 'stimulus' src='images/baseline/04031v.jpg'></img></p>","null","","1550005089478","6","","","","","",""
"null","","html-keyboard-response","184","3979994","0.0-6.0-7.9","13","<p><img class= 'stimulus' src='images/baseline/Street 3.jpg'></img></p>","null","","1550005089578","","","","","","",""
"null","","html-keyboard-response","185","3980093","0.0-6.0-8.9","13","<p><img class= 'stimulus' src='images/baseline/snowy tree.jpg'></img></p>","null","","1550005089677","8","","","","","",""
"null","","html-keyboard-response","186","3980194","0.0-6.0-9.9","13","<p><img class= 'stimulus' src='images/baseline/landscape40.jpg'></img></p>","null","","1550005089777","","","","","","",""
"null","","html-keyboard-response","187","3980294","0.0-6.0-10.9","13","<p><img class= 'stimulus' src='images/baseline/landscape11.jpg'></img></p>","null","","1550005089877","","","","","","",""
"null","","html-keyboard-response","188","3980394","0.0-6.0-11.9","13","<p><img class= 'stimulus' src='images/baseline/pexels-photo-280222.jpeg'></img></p>","null","","1550005089978","","","","","","",""
"null","","html-keyboard-response","189","3980494","0.0-6.0-12.9","13","<p><img class= 'stimulus left-rotate' src='images/target/landscape32.jpg'></img></p>","null","","1550005090078","12","","","","","",""
"null","","html-keyboard-response","190","3980594","0.0-6.0-13.9","13","<p><img class= 'stimulus' src='images/baseline/__08_-_ITALY_-_Forli_under_snow_-_winter_landscape_of_city_(christmas).jpg'></img></p>","null","","1550005090178","","","","","","",""
"null","","html-keyboard-response","191","3980694","0.0-6.0-14.9","13","<p><img class= 'stimulus' src='images/baseline/04179v.jpg'></img></p>","null","","1550005090278","14","","","","","",""
"null","","html-keyboard-response","192","3980794","0.0-6.0-15.9","13","<p><img class= 'stimulus' src='images/baseline/building_at_national_conservation.jpg'></img></p>","null","","1550005090378","","","","","","",""
"null","","html-keyboard-response","193","3980894","0.0-6.0-16.9","13","<p><img class= 'stimulus' src='images/baseline/Street 1.jpg'></img></p>","null","","1550005090478","","","","","","",""
"null","","html-keyboard-response","194","3981010","0.0-6.0-17.9","13","<p><img class= 'stimulus' src='images/baseline/house3.jpg'></img></p>","null","","1550005090578","","","","","","",""
"760.4999999995343","","html-button-response","195","3982780","0.0-6.0-18.9","13","<div class = ""response_question"">WAS THE IMAGE ROTATED...</div>","","5","","","4","8","bas","left","practice","false"
"438.1999999997206","","html-button-response","196","3983220","0.0-6.0-0.10","13","","","0","","","","","","","",""
"null","","html-keyboard-response","197","3983294","0.0-6.0-1.10","13","<p><img class= 'stimulus' src='images/baseline/Lake 8.jpg'></img></p>","null","","1550005092878","","","","","","",""
"null","","html-keyboard-response","198","3983393","0.0-6.0-2.10","13","<p><img class= 'stimulus' src='images/baseline/field 4.jpg'></img></p>","null","","1550005092978","","","","","","",""
"null","","html-keyboard-response","199","3983494","0.0-6.0-3.10","13","<p><img class= 'stimulus' src='images/baseline/Nature 1.jpg'></img></p>","null","","1550005093078","","","","","","",""
"null","","html-keyboard-response","200","3983594","0.0-6.0-4.10","13","<p><img class= 'stimulus' src='images/baseline/03217v.jpg'></img></p>","null","","1550005093179","4","","","","","",""
"null","","html-keyboard-response","201","3983695","0.0-6.0-5.10","13","<p><img class= 'stimulus' src='images/baseline/agriculture-countryside-crop-259280.jpg'></img></p>","null","","1550005093278","","","","","","",""
"null","","html-keyboard-response","202","3983794","0.0-6.0-6.10","13","<p><img class= 'stimulus' src='images/baseline/Street 2.jpg'></img></p>","null","","1550005093378","6","","","","","",""
"null","","html-keyboard-response","203","3983893","0.0-6.0-7.10","13","<p><img class= 'stimulus' src='images/baseline/church-silhouette-8712964986014Kb.jpg'></img></p>","null","","1550005093478","","","","","","",""
"null","","html-keyboard-response","204","3983994","0.0-6.0-8.10","13","<p><img class= 'stimulus' src='images/baseline/pexels-photo-59321.jpeg'></img></p>","null","","1550005093578","8","","","","","",""
"null","","html-keyboard-response","205","3984094","0.0-6.0-9.10","13","<p><img class= 'stimulus' src='images/baseline/road.jpg'></img></p>","null","","1550005093678","","","","","","",""
"null","","html-keyboard-response","206","3984194","0.0-6.0-10.10","13","<p><img class= 'stimulus' src='images/baseline/03056v.jpg'></img></p>","null","","1550005093778","","","","","","",""
"null","","html-keyboard-response","207","3984293","0.0-6.0-11.10","13","<p><img class= 'stimulus' src='images/baseline/pexels-photo-427676.jpeg'></img></p>","null","","1550005093878","","","","","","",""
"null","","html-keyboard-response","208","3984394","0.0-6.0-12.10","13","<p><img class= 'stimulus' src='images/target/building3.jpg'></img></p>","null","","1550005093977","12","","","","","",""
"null","","html-keyboard-response","209","3984494","0.0-6.0-13.10","13","<p><img class= 'stimulus' src='images/baseline/05255v.jpg'></img></p>","null","","1550005094078","","","","","","",""
"null","","html-keyboard-response","210","3984594","0.0-6.0-14.10","13","<p><img class= 'stimulus' src='images/baseline/lone-old-cottonwood-tree.jpg'></img></p>","null","","1550005094178","14","","","","","",""
"null","","html-keyboard-response","211","3984694","0.0-6.0-15.10","13","<p><img class= 'stimulus' src='images/baseline/road 1(1).jpg'></img></p>","null","","1550005094278","","","","","","",""
"null","","html-keyboard-response","212","3984794","0.0-6.0-16.10","13","<p><img class= 'stimulus' src='images/baseline/valley 1.jpg'></img></p>","null","","1550005094378","","","","","","",""
"null","","html-keyboard-response","213","3984910","0.0-6.0-17.10","13","<p><img class= 'stimulus' src='images/baseline/05179v.jpg'></img></p>","null","","1550005094478","","","","","","",""
"1258.5999999991618","","html-button-response","214","3987172","0.0-6.0-18.10","13","<div class = ""response_question"">WAS THE IMAGE ROTATED...</div>","","3","","","4","8","bas","right","practice","true"
"758.2000000001863","","html-button-response","215","3987931","0.0-6.0-0.11","13","","","0","","","","","","","",""
"null","","html-keyboard-response","216","3988012","0.0-6.0-1.11","13","<p><img class= 'stimulus' src='images/baseline/farmhouse7.jpg'></img></p>","null","","1550005097594","","","","","","",""
"null","","html-keyboard-response","217","3988111","0.0-6.0-2.11","13","<p><img class= 'stimulus' src='images/baseline/pexels-photo-541101.jpeg'></img></p>","null","","1550005097695","","","","","","",""
"null","","html-keyboard-response","218","3988211","0.0-6.0-3.11","13","<p><img class= 'stimulus' src='images/baseline/farmhouse3.jpg'></img></p>","null","","1550005097794","","","","","","",""
"null","","html-keyboard-response","219","3988310","0.0-6.0-4.11","13","<p><img class= 'stimulus' src='images/baseline/pexels-photo-1840893.jpeg'></img></p>","null","","1550005097895","4","","","","","",""
"null","","html-keyboard-response","220","3988410","0.0-6.0-5.11","13","<p><img class= 'stimulus' src='images/baseline/building2.jpg'></img></p>","null","","1550005097995","","","","","","",""
"null","","html-keyboard-response","221","3988511","0.0-6.0-6.11","13","<p><img class= 'stimulus left-rotate' src='images/target/pexels-photo-1534411.jpeg'></img></p>","null","","1550005098095","6","","","","","",""
"null","","html-keyboard-response","222","3988611","0.0-6.0-7.11","13","<p><img class= 'stimulus' src='images/baseline/building3.jpg'></img></p>","null","","1550005098195","","","","","","",""
"null","","html-keyboard-response","223","3988711","0.0-6.0-8.11","13","<p><img class= 'stimulus' src='images/baseline/Lake 14.jpg'></img></p>","null","","1550005098296","8","","","","","",""
"null","","html-keyboard-response","224","3988811","0.0-6.0-9.11","13","<p><img class= 'stimulus' src='images/baseline/building12.jpg'></img></p>","null","","1550005098394","","","","","","",""
"null","","html-keyboard-response","225","3988912","0.0-6.0-10.11","13","<p><img class= 'stimulus' src='images/baseline/04014v.jpg'></img></p>","null","","1550005098494","","","","","","",""
"null","","html-keyboard-response","226","3989010","0.0-6.0-11.11","13","<p><img class= 'stimulus' src='images/baseline/05145v.jpg'></img></p>","null","","1550005098595","","","","","","",""
"null","","html-keyboard-response","227","3989111","0.0-6.0-12.11","13","<p><img class= 'stimulus' src='images/baseline/Lake 7.jpg'></img></p>","null","","1550005098695","12","","","","","",""
"null","","html-keyboard-response","228","3989210","0.0-6.0-13.11","13","<p><img class= 'stimulus' src='images/baseline/03041v.jpg'></img></p>","null","","1550005098796","","","","","","",""
"null","","html-keyboard-response","229","3989310","0.0-6.0-14.11","13","<p><img class= 'stimulus' src='images/baseline/landscape6.jpg'></img></p>","null","","1550005098895","14","","","","","",""
"null","","html-keyboard-response","230","3989411","0.0-6.0-15.11","13","<p><img class= 'stimulus' src='images/baseline/03220v.jpg'></img></p>","null","","1550005098996","","","","","","",""
"null","","html-keyboard-response","231","3989509","0.0-6.0-16.11","13","<p><img class= 'stimulus' src='images/baseline/02982v.jpg'></img></p>","null","","1550005099095","","","","","","",""
"null","","html-keyboard-response","232","3989626","0.0-6.0-17.11","13","<p><img class= 'stimulus' src='images/baseline/Sidewalk 4.jpg'></img></p>","null","","1550005099194","","","","","","",""
"989.2000000001863","","html-button-response","233","3991620","0.0-6.0-18.11","13","<div class = ""response_question"">WAS THE IMAGE ROTATED...</div>","","0","","","4","2","bas","left","practice","true"
"758.6000000000931","","html-button-response","234","3992379","0.0-6.0-0.12","13","","","0","","","","","","","",""
"null","","html-keyboard-response","235","3992461","0.0-6.0-1.12","13","<p><img class= 'stimulus' src='images/baseline/field 3.jpg'></img></p>","null","","1550005102044","","","","","","",""
"null","","html-keyboard-response","236","3992560","0.0-6.0-2.12","13","<p><img class= 'stimulus' src='images/baseline/04086v.jpg'></img></p>","null","","1550005102145","","","","","","",""
"null","","html-keyboard-response","237","3992660","0.0-6.0-3.12","13","<p><img class= 'stimulus' src='images/baseline/Sunset 6.jpg'></img></p>","null","","1550005102246","","","","","","",""
"null","","html-keyboard-response","238","3992760","0.0-6.0-4.12","13","<p><img class= 'stimulus' src='images/baseline/05279v.jpg'></img></p>","null","","1550005102345","4","","","","","",""
"null","","html-keyboard-response","239","3992861","0.0-6.0-5.12","13","<p><img class= 'stimulus' src='images/baseline/Lake 15.jpg'></img></p>","null","","1550005102446","","","","","","",""
"null","","html-keyboard-response","240","3992960","0.0-6.0-6.12","13","<p><img class= 'stimulus' src='images/baseline/04193v.jpg'></img></p>","null","","1550005102546","6","","","","","",""
"null","","html-keyboard-response","241","3993061","0.0-6.0-7.12","13","<p><img class= 'stimulus' src='images/baseline/03098v.jpg'></img></p>","null","","1550005102645","","","","","","",""
"null","","html-keyboard-response","242","3993160","0.0-6.0-8.12","13","<p><img class= 'stimulus left-rotate' src='images/target/cactus1.jpg'></img></p>","null","","1550005102745","8","","","","","",""
"null","","html-keyboard-response","243","3993261","0.0-6.0-9.12","13","<p><img class= 'stimulus' src='images/baseline/pexels-photo-351264.jpeg'></img></p>","null","","1550005102844","","","","","","",""
"null","","html-keyboard-response","244","3993360","0.0-6.0-10.12","13","<p><img class= 'stimulus' src='images/baseline/landscape35.jpg'></img></p>","null","","1550005102944","","","","","","",""
"null","","html-keyboard-response","245","3993460","0.0-6.0-11.12","13","<p><img class= 'stimulus' src='images/baseline/04300v.jpg'></img></p>","null","","1550005103044","","","","","","",""
"null","","html-keyboard-response","246","3993561","0.0-6.0-12.12","13","<p><img class= 'stimulus' src='images/baseline/town-square-in-wroclaw-1539098440MZy.jpg'></img></p>","null","","1550005103144","12","","","","","",""
"null","","html-keyboard-response","247","3993660","0.0-6.0-13.12","13","<p><img class= 'stimulus' src='images/baseline/Grass 6.jpg'></img></p>","null","","1550005103245","","","","","","",""
"null","","html-keyboard-response","248","3993761","0.0-6.0-14.12","13","<p><img class= 'stimulus' src='images/baseline/pexels-photo-1261728.jpeg'></img></p>","null","","1550005103344","14","","","","","",""
"null","","html-keyboard-response","249","3993860","0.0-6.0-15.12","13","<p><img class= 'stimulus' src='images/baseline/farmhouse9.jpg'></img></p>","null","","1550005103445","","","","","","",""
"null","","html-keyboard-response","250","3993961","0.0-6.0-16.12","13","<p><img class= 'stimulus' src='images/baseline/sunny-landscape-with-dry-brush-and-mountain-background.jpg'></img></p>","null","","1550005103545","","","","","","",""
"null","","html-keyboard-response","251","3994077","0.0-6.0-17.12","13","<p><img class= 'stimulus' src='images/baseline/landscape3.jpg'></img></p>","null","","1550005103646","","","","","","",""
"812.3000000007451","","html-button-response","252","3995891","0.0-6.0-18.12","13","<div class = ""response_question"">WAS THE IMAGE ROTATED...</div>","","0","","","6","2","bas","left","practice","true"
"630.6000000005588","","html-button-response","253","3996523","0.0-6.0-0.13","13","","","0","","","","","","","",""
"null","","html-keyboard-response","254","3996610","0.0-6.0-1.13","13","<p><img class= 'stimulus' src='images/baseline/Skyscraper 2.jpg'></img></p>","null","","1550005106195","","","","","","",""
"null","","html-keyboard-response","255","3996711","0.0-6.0-2.13","13","<p><img class= 'stimulus' src='images/baseline/04063v.jpg'></img></p>","null","","1550005106295","","","","","","",""
"null","","html-keyboard-response","256","3996810","0.0-6.0-3.13","13","<p><img class= 'stimulus' src='images/baseline/Sunset 3.jpg'></img></p>","null","","1550005106395","","","","","","",""
"null","","html-keyboard-response","257","3996911","0.0-6.0-4.13","13","<p><img class= 'stimulus' src='images/baseline/landscape7.jpg'></img></p>","null","","1550005106495","4","","","","","",""
"null","","html-keyboard-response","258","3997011","0.0-6.0-5.13","13","<p><img class= 'stimulus' src='images/baseline/Bridge 1.jpg'></img></p>","null","","1550005106595","","","","","","",""
"null","","html-keyboard-response","259","3997111","0.0-6.0-6.13","13","<p><img class= 'stimulus' src='images/baseline/Lake 13.jpg'></img></p>","null","","1550005106694","6","","","","","",""
"null","","html-keyboard-response","260","3997210","0.0-6.0-7.13","13","<p><img class= 'stimulus' src='images/baseline/04196v.jpg'></img></p>","null","","1550005106795","","","","","","",""
"null","","html-keyboard-response","261","3997311","0.0-6.0-8.13","13","<p><img class= 'stimulus' src='images/baseline/landscape36.jpg'></img></p>","null","","1550005106894","8","","","","","",""
"null","","html-keyboard-response","262","3997411","0.0-6.0-9.13","13","<p><img class= 'stimulus' src='images/baseline/Happy pose 3.jpg'></img></p>","null","","1550005106995","","","","","","",""
"null","","html-keyboard-response","263","3997510","0.0-6.0-10.13","13","<p><img class= 'stimulus' src='images/baseline/03114v.jpg'></img></p>","null","","1550005107095","","","","","","",""
"null","","html-keyboard-response","264","3997611","0.0-6.0-11.13","13","<p><img class= 'stimulus' src='images/baseline/lake 1.jpg'></img></p>","null","","1550005107194","","","","","","",""
"null","","html-keyboard-response","265","3997711","0.0-6.0-12.13","13","<p><img class= 'stimulus' src='images/baseline/Nature 2.jpg'></img></p>","null","","1550005107295","12","","","","","",""
"null","","html-keyboard-response","266","3997810","0.0-6.0-13.13","13","<p><img class= 'stimulus' src='images/baseline/lake 2.jpg'></img></p>","null","","1550005107395","","","","","","",""
"null","","html-keyboard-response","267","3997910","0.0-6.0-14.13","13","<p><img class= 'stimulus left-rotate' src='images/target/beach1.jpeg'></img></p>","null","","1550005107495","14","","","","","",""
"null","","html-keyboard-response","268","3998011","0.0-6.0-15.13","13","<p><img class= 'stimulus' src='images/baseline/building6.jpg'></img></p>","null","","1550005107595","","","","","","",""
"null","","html-keyboard-response","269","3998111","0.0-6.0-16.13","13","<p><img class= 'stimulus' src='images/baseline/Sunset 4.jpg'></img></p>","null","","1550005107696","","","","","","",""
"null","","html-keyboard-response","270","3998227","0.0-6.0-17.13","13","<p><img class= 'stimulus' src='images/baseline/foreclosed_home.jpg'></img></p>","null","","1550005107794","","","","","","",""
"573.5000000004657","","html-button-response","271","3999804","0.0-6.0-18.13","13","<div class = ""response_question"">WAS THE IMAGE ROTATED...</div>","","1","","","6","8","bas","left","practice","true"
"550.2000000006519","","html-button-response","272","4000355","0.0-6.0-0.14","13","","","0","","","","","","","",""
"null","","html-keyboard-response","273","4000443","0.0-6.0-1.14","13","<p><img class= 'stimulus' src='images/baseline/Cold 7.jpg'></img></p>","null","","1550005110029","","","","","","",""
"null","","html-keyboard-response","274","4000544","0.0-6.0-2.14","13","<p><img class= 'stimulus' src='images/baseline/meadow-with-mountain-in-background.jpg'></img></p>","null","","1550005110129","","","","","","",""
"null","","html-keyboard-response","275","4000644","0.0-6.0-3.14","13","<p><img class= 'stimulus' src='images/baseline/house11.jpg'></img></p>","null","","1550005110227","","","","","","",""
"null","","html-keyboard-response","276","4000744","0.0-6.0-4.14","13","<p><img class= 'stimulus' src='images/baseline/dirt-road-or-trail-through-park.jpg'></img></p>","null","","1550005110328","4","","","","","",""
"null","","html-keyboard-response","277","4000844","0.0-6.0-5.14","13","<p><img class= 'stimulus' src='images/baseline/landscape33.jpg'></img></p>","null","","1550005110429","","","","","","",""
"null","","html-keyboard-response","278","4000944","0.0-6.0-6.14","13","<p><img class= 'stimulus' src='images/baseline/architecture_modern_architecture_852928.jpg'></img></p>","null","","1550005110528","6","","","","","",""
"null","","html-keyboard-response","279","4001045","0.0-6.0-7.14","13","<p><img class= 'stimulus' src='images/baseline/farmhouse8.jpg'></img></p>","null","","1550005110628","","","","","","",""
"null","","html-keyboard-response","280","4001145","0.0-6.0-8.14","13","<p><img class= 'stimulus' src='images/baseline/04162v.jpg'></img></p>","null","","1550005110729","8","","","","","",""
"null","","html-keyboard-response","281","4001244","0.0-6.0-9.14","13","<p><img class= 'stimulus' src='images/baseline/landscape1.jpg'></img></p>","null","","1550005110828","","","","","","",""
"null","","html-keyboard-response","282","4001343","0.0-6.0-10.14","13","<p><img class= 'stimulus' src='images/baseline/autumn-landscape-with-lake-fall-trees-mountains.jpg'></img></p>","null","","1550005110929","","","","","","",""
"null","","html-keyboard-response","283","4001444","0.0-6.0-11.14","13","<p><img class= 'stimulus' src='images/baseline/landscape17.jpg'></img></p>","null","","1550005111028","","","","","","",""
"null","","html-keyboard-response","284","4001544","0.0-6.0-12.14","13","<p><img class= 'stimulus' src='images/baseline/geese-flying-over-lake-at-dusk.jpg'></img></p>","null","","1550005111127","12","","","","","",""
"null","","html-keyboard-response","285","4001644","0.0-6.0-13.14","13","<p><img class= 'stimulus' src='images/baseline/Bahia_Onelli_Parque_Nacional_Los_Glaciares_Patagonia_Argentina_Luca_Galuzzi_2005.jpg'></img></p>","null","","1550005111228","","","","","","",""
"null","","html-keyboard-response","286","4001743","0.0-6.0-14.14","13","<p><img class= 'stimulus' src='images/target/coconut-3396945_640.jpg'></img></p>","null","","1550005111327","14","","","","","",""
"null","","html-keyboard-response","287","4001844","0.0-6.0-15.14","13","<p><img class= 'stimulus' src='images/baseline/02960v.jpg'></img></p>","null","","1550005111428","","","","","","",""
"null","","html-keyboard-response","288","4001944","0.0-6.0-16.14","13","<p><img class= 'stimulus' src='images/baseline/03045v.jpg'></img></p>","null","","1550005111528","","","","","","",""
"null","","html-keyboard-response","289","4002060","0.0-6.0-17.14","13","<p><img class= 'stimulus' src='images/baseline/hiking-trail.jpg'></img></p>","null","","1550005111630","","","","","","",""
"468.5","","html-button-response","290","4003532","0.0-6.0-18.14","13","<div class = ""response_question"">WAS THE IMAGE ROTATED...</div>","","4","","","6","8","bas","right","practice","true"
"542.1999999997206","","html-button-response","291","4004075","0.0-6.0-0.15","13","","","0","","","","","","","",""
"null","","html-keyboard-response","292","4004162","0.0-6.0-1.15","13","<p><img class= 'stimulus' src='images/baseline/house10.jpg'></img></p>","null","","1550005113745","","","","","","",""
"null","","html-keyboard-response","293","4004261","0.0-6.0-2.15","13","<p><img class= 'stimulus' src='images/baseline/agriculture-cereal-clouds-175389.jpg'></img></p>","null","","1550005113845","","","","","","",""
"null","","html-keyboard-response","294","4004360","0.0-6.0-3.15","13","<p><img class= 'stimulus' src='images/baseline/farmhouse2.jpg'></img></p>","null","","1550005113945","","","","","","",""
"null","","html-keyboard-response","295","4004460","0.0-6.0-4.15","13","<p><img class= 'stimulus' src='images/baseline/02971v.jpg'></img></p>","null","","1550005114045","4","","","","","",""
"null","","html-keyboard-response","296","4004561","0.0-6.0-5.15","13","<p><img class= 'stimulus' src='images/baseline/Lake 5.jpg'></img></p>","null","","1550005114145","","","","","","",""
"null","","html-keyboard-response","297","4004660","0.0-6.0-6.15","13","<p><img class= 'stimulus' src='images/baseline/03063v.jpg'></img></p>","null","","1550005114245","6","","","","","",""
"null","","html-keyboard-response","298","4004761","0.0-6.0-7.15","13","<p><img class= 'stimulus' src='images/baseline/trees 23.jpg'></img></p>","null","","1550005114347","","","","","","",""
"null","","html-keyboard-response","299","4004860","0.0-6.0-8.15","13","<p><img class= 'stimulus' src='images/target/tree-in-desert-landscape.jpg'></img></p>","null","","1550005114445","8","","","","","",""
"null","","html-keyboard-response","300","4004960","0.0-6.0-9.15","13","<p><img class= 'stimulus' src='images/baseline/99_-_Machu_Picchu_-_Juin_2009.edit3.jpg'></img></p>","null","","1550005114544","","","","","","",""
"null","","html-keyboard-response","301","4005061","0.0-6.0-10.15","13","<p><img class= 'stimulus' src='images/baseline/05131v.jpg'></img></p>","null","","1550005114644","","","","","","",""
"null","","html-keyboard-response","302","4005160","0.0-6.0-11.15","13","<p><img class= 'stimulus' src='images/baseline/building16.jpg'></img></p>","null","","1550005114744","","","","","","",""
"null","","html-keyboard-response","303","4005261","0.0-6.0-12.15","13","<p><img class= 'stimulus' src='images/baseline/sun-through-winter-tree-branches1.jpg'></img></p>","null","","1550005114846","12","","","","","",""
"null","","html-keyboard-response","304","4005361","0.0-6.0-13.15","13","<p><img class= 'stimulus' src='images/baseline/house1.jpg'></img></p>","null","","1550005114945","","","","","","",""
"null","","html-keyboard-response","305","4005460","0.0-6.0-14.15","13","<p><img class= 'stimulus' src='images/baseline/road.jpg'></img></p>","null","","1550005115045","14","","","","","",""
"null","","html-keyboard-response","306","4005560","0.0-6.0-15.15","13","<p><img class= 'stimulus' src='images/baseline/pexels-photo-534164.jpeg'></img></p>","null","","1550005115145","","","","","","",""
"null","","html-keyboard-response","307","4005662","0.0-6.0-16.15","13","<p><img class= 'stimulus' src='images/baseline/flooded-bridge.jpg'></img></p>","null","","1550005115245","","","","","","",""
"null","","html-keyboard-response","308","4005777","0.0-6.0-17.15","13","<p><img class= 'stimulus' src='images/baseline/05186v.jpg'></img></p>","null","","1550005115345","","","","","","",""
"599.5000000004657","","html-button-response","309","4007380","0.0-6.0-18.15","13","<div class = ""response_question"">WAS THE IMAGE ROTATED...</div>","","4","","","6","2","bas","right","practice","true"
"81406.20000000019","","html-button-response","310","4088787","0.0-7.0","13","<p>You have now completed the practice phase. We will now begin the real trials.         This is a reminder that you will be searching for a rotated image among the series of upright images.</p>         <p>Remember, please do not blink or move your eyes while the images are on the screen.</p>         <p>At the end of the experiment, the experimenter will be able to show you how accurate you were.</p>","","0","","","","","","","",""
"1431.0000000004657","","html-button-response","311","4090219","0.0-8.0-0.0-0.0","13","","","0","","","","","","","",""
"null","","html-keyboard-response","312","4090294","0.0-8.0-0.0-1.0","13","<p><img class= 'stimulus' src='images/baseline/04064v.jpg'></img></p>","null","","1550005199879","","","","","","",""
"null","","html-keyboard-response","313","4090394","0.0-8.0-0.0-2.0","13","<p><img class= 'stimulus' src='images/baseline/pexels-photo-280222.jpeg'></img></p>","null","","1550005199978","","","","","","",""
"null","","html-keyboard-response","314","4090494","0.0-8.0-0.0-3.0","13","<p><img class= 'stimulus' src='images/baseline/05203v.jpg'></img></p>","null","","1550005200078","","","","","","",""
"null","","html-keyboard-response","315","4090594","0.0-8.0-0.0-4.0","13","<p><img class= 'stimulus' src='images/baseline/geese-flying-over-lake-at-dusk.jpg'></img></p>","null","","1550005200178","4","","","","","",""
"null","","html-keyboard-response","316","4090694","0.0-8.0-0.0-5.0","13","<p><img class= 'stimulus' src='images/baseline/lake3.jpg'></img></p>","null","","1550005200278","","","","","","",""
"null","","html-keyboard-response","317","4090794","0.0-8.0-0.0-6.0","13","<p><img class= 'stimulus' src='images/baseline/landscape23.jpg'></img></p>","null","","1550005200378","6","","","","","",""
"null","","html-keyboard-response","318","4090895","0.0-8.0-0.0-7.0","13","<p><img class= 'stimulus' src='images/baseline/landscape38.jpg'></img></p>","null","","1550005200478","","","","","","",""
"null","","html-keyboard-response","319","4090993","0.0-8.0-0.0-8.0","13","<p><img class= 'stimulus' src='images/baseline/lookout_tower.jpg'></img></p>","null","","1550005200579","8","","","","","",""
"null","","html-keyboard-response","320","4091094","0.0-8.0-0.0-9.0","13","<p><img class= 'stimulus' src='images/baseline/02977v.jpg'></img></p>","null","","1550005200678","","","","","","",""
"null","","html-keyboard-response","321","4091194","0.0-8.0-0.0-10.0","13","<p><img class= 'stimulus' src='images/baseline/landscape35.jpg'></img></p>","null","","1550005200778","","","","","","",""
"null","","html-keyboard-response","322","4091294","0.0-8.0-0.0-11.0","13","<p><img class= 'stimulus' src='images/baseline/05240v.jpg'></img></p>","null","","1550005200878","","","","","","",""
"null","","html-keyboard-response","323","4091394","0.0-8.0-0.0-12.0","13","<p><img class= 'stimulus' src='images/target/building15.jpg'></img></p>","null","","1550005200978","12","","","","","",""
"null","","html-keyboard-response","324","4091494","0.0-8.0-0.0-13.0","13","<p><img class= 'stimulus' src='images/baseline/05292v.jpg'></img></p>","null","","1550005201079","","","","","","",""
"null","","html-keyboard-response","325","4091594","0.0-8.0-0.0-14.0","13","<p><img class= 'stimulus' src='images/baseline/04130v.jpg'></img></p>","null","","1550005201178","14","","","","","",""
"null","","html-keyboard-response","326","4091694","0.0-8.0-0.0-15.0","13","<p><img class= 'stimulus' src='images/baseline/Lake 3.jpg'></img></p>","null","","1550005201278","","","","","","",""
"null","","html-keyboard-response","327","4091795","0.0-8.0-0.0-16.0","13","<p><img class= 'stimulus' src='images/baseline/trees 23.jpg'></img></p>","null","","1550005201379","","","","","","",""
"null","","html-keyboard-response","328","4091910","0.0-8.0-0.0-17.0","13","<p><img class= 'stimulus' src='images/baseline/sunny-landscape-with-dry-brush-and-mountain-background.jpg'></img></p>","null","","1550005201479","","","","","","",""
"793.4000000003725","","html-button-response","329","4093707","0.0-8.0-0.0-18.0","13","<div class = ""response_question"">WAS THE IMAGE ROTATED...</div>","","3","","","4","8","bas","right","test","true"
"726.6000000000931","","html-button-response","330","4094435","0.0-8.0-0.0-0.1","13","","","0","","","","","","","",""
"null","","html-keyboard-response","331","4094511","0.0-8.0-0.0-1.1","13","<p><img class= 'stimulus' src='images/baseline/99_-_Machu_Picchu_-_Juin_2009.edit3.jpg'></img></p>","null","","1550005204095","","","","","","",""
"null","","html-keyboard-response","332","4094611","0.0-8.0-0.0-2.1","13","<p><img class= 'stimulus' src='images/baseline/pexels-photo-459203.jpeg'></img></p>","null","","1550005204195","","","","","","",""
"null","","html-keyboard-response","333","4094711","0.0-8.0-0.0-3.1","13","<p><img class= 'stimulus' src='images/baseline/03148v.jpg'></img></p>","null","","1550005204296","","","","","","",""
"null","","html-keyboard-response","334","4094812","0.0-8.0-0.0-4.1","13","<p><img class= 'stimulus' src='images/neutral/Dancing 3.jpg'></img></p>","null","","1550005204395","4","","","","","",""
"null","","html-keyboard-response","335","4094911","0.0-8.0-0.0-5.1","13","<p><img class= 'stimulus' src='images/baseline/Happy pose 3.jpg'></img></p>","null","","1550005204495","","","","","","",""
"null","","html-keyboard-response","336","4095011","0.0-8.0-0.0-6.1","13","<p><img class= 'stimulus' src='images/baseline/05167v.jpg'></img></p>","null","","1550005204594","6","","","","","",""
"null","","html-keyboard-response","337","4095111","0.0-8.0-0.0-7.1","13","<p><img class= 'stimulus' src='images/baseline/04040v.jpg'></img></p>","null","","1550005204694","","","","","","",""
"null","","html-keyboard-response","338","4095211","0.0-8.0-0.0-8.1","13","<p><img class= 'stimulus' src='images/baseline/Sunset 3.jpg'></img></p>","null","","1550005204796","8","","","","","",""
"null","","html-keyboard-response","339","4095311","0.0-8.0-0.0-9.1","13","<p><img class= 'stimulus' src='images/baseline/cranes 1.jpg'></img></p>","null","","1550005204894","","","","","","",""
"null","","html-keyboard-response","340","4095411","0.0-8.0-0.0-10.1","13","<p><img class= 'stimulus' src='images/baseline/05189v.jpg'></img></p>","null","","1550005204994","","","","","","",""
"null","","html-keyboard-response","341","4095510","0.0-8.0-0.0-11.1","13","<p><img class= 'stimulus' src='images/baseline/Skyscraper 1.jpg'></img></p>","null","","1550005205095","","","","","","",""
"null","","html-keyboard-response","342","4095611","0.0-8.0-0.0-12.1","13","<p><img class= 'stimulus' src='images/target/landscape3.jpg'></img></p>","null","","1550005205195","12","","","","","",""
"null","","html-keyboard-response","343","4095711","0.0-8.0-0.0-13.1","13","<p><img class= 'stimulus' src='images/baseline/landscape22.jpg'></img></p>","null","","1550005205295","","","","","","",""
"null","","html-keyboard-response","344","4095810","0.0-8.0-0.0-14.1","13","<p><img class= 'stimulus' src='images/baseline/pexels-photo-808465.jpeg'></img></p>","null","","1550005205395","14","","","","","",""
"null","","html-keyboard-response","345","4095911","0.0-8.0-0.0-15.1","13","<p><img class= 'stimulus' src='images/baseline/Waterfall 1.jpg'></img></p>","null","","1550005205495","","","","","","",""
"null","","html-keyboard-response","346","4096011","0.0-8.0-0.0-16.1","13","<p><img class= 'stimulus' src='images/baseline/house10.jpg'></img></p>","null","","1550005205595","","","","","","",""
"null","","html-keyboard-response","347","4096127","0.0-8.0-0.0-17.1","13","<p><img class= 'stimulus' src='images/baseline/house7.jpg'></img></p>","null","","1550005205695","","","","","","",""
"1215.4000000008382","","html-button-response","348","4098347","0.0-8.0-0.0-18.1","13","<div class = ""response_question"">WAS THE IMAGE ROTATED...</div>","","3","","","4","8","neu","right","test","true"
"2078.1999999997206","","html-button-response","349","4100427","0.0-8.0-0.0-0.2","13","","","0","","","","","","","",""
"null","","html-keyboard-response","350","4100511","0.0-8.0-0.0-1.2","13","<p><img class= 'stimulus' src='images/baseline/03056v.jpg'></img></p>","null","","1550005210095","","","","","","",""
"null","","html-keyboard-response","351","4100611","0.0-8.0-0.0-2.2","13","<p><img class= 'stimulus' src='images/baseline/Beach 8.jpg'></img></p>","null","","1550005210195","","","","","","",""
"null","","html-keyboard-response","352","4100711","0.0-8.0-0.0-3.2","13","<p><img class= 'stimulus' src='images/baseline/05247v.jpg'></img></p>","null","","1550005210295","","","","","","",""
"null","","html-keyboard-response","353","4100812","0.0-8.0-0.0-4.2","13","<p><img class= 'stimulus' src='images/baseline/pexels-photo-750108.jpeg'></img></p>","null","","1550005210395","4","","","","","",""
"null","","html-keyboard-response","354","4100910","0.0-8.0-0.0-5.2","13","<p><img class= 'stimulus' src='images/baseline/field 2.jpg'></img></p>","null","","1550005210496","","","","","","",""
"null","","html-keyboard-response","355","4101011","0.0-8.0-0.0-6.2","13","<p><img class= 'stimulus' src='images/neutral/thailand-girl.jpg'></img></p>","null","","1550005210595","6","","","","","",""
"null","","html-keyboard-response","356","4101112","0.0-8.0-0.0-7.2","13","<p><img class= 'stimulus' src='images/baseline/sunset-over-the-lake.jpg'></img></p>","null","","1550005210695","","","","","","",""
"null","","html-keyboard-response","357","4101210","0.0-8.0-0.0-8.2","13","<p><img class= 'stimulus' src='images/target/skyscraper-3855012_640.jpg'></img></p>","null","","1550005210795","8","","","","","",""
"null","","html-keyboard-response","358","4101310","0.0-8.0-0.0-9.2","13","<p><img class= 'stimulus' src='images/baseline/04098v.jpg'></img></p>","null","","1550005210895","","","","","","",""
"null","","html-keyboard-response","359","4101410","0.0-8.0-0.0-10.2","13","<p><img class= 'stimulus' src='images/baseline/05303v.jpg'></img></p>","null","","1550005210995","","","","","","",""
"null","","html-keyboard-response","360","4101510","0.0-8.0-0.0-11.2","13","<p><img class= 'stimulus' src='images/baseline/02982v.jpg'></img></p>","null","","1550005211096","","","","","","",""
"null","","html-keyboard-response","361","4101611","0.0-8.0-0.0-12.2","13","<p><img class= 'stimulus' src='images/baseline/Street 2.jpg'></img></p>","null","","1550005211194","12","","","","","",""
"null","","html-keyboard-response","362","4101711","0.0-8.0-0.0-13.2","13","<p><img class= 'stimulus' src='images/baseline/pexels-photo-894312.jpeg'></img></p>","null","","1550005211295","","","","","","",""
"null","","html-keyboard-response","363","4101811","0.0-8.0-0.0-14.2","13","<p><img class= 'stimulus' src='images/baseline/landscape36.jpg'></img></p>","null","","1550005211396","14","","","","","",""
"null","","html-keyboard-response","364","4101911","0.0-8.0-0.0-15.2","13","<p><img class= 'stimulus' src='images/baseline/Sunset 5.jpg'></img></p>","null","","1550005211495","","","","","","",""
"null","","html-keyboard-response","365","4102010","0.0-8.0-0.0-16.2","13","<p><img class= 'stimulus' src='images/baseline/field 4.jpg'></img></p>","null","","1550005211595","","","","","","",""
"null","","html-keyboard-response","366","4102128","0.0-8.0-0.0-17.2","13","<p><img class= 'stimulus' src='images/baseline/04117v.jpg'></img></p>","null","","1550005211695","","","","","","",""
"1279.3000000002794","","html-button-response","367","4104411","0.0-8.0-0.0-18.2","13","<div class = ""response_question"">WAS THE IMAGE ROTATED...</div>","","2","","","6","2","neu","right","test","false"
"798.3999999994412","","html-button-response","368","4105210","0.0-8.0-0.0-0.3","13","","","0","","","","","","","",""
"null","","html-keyboard-response","369","4105293","0.0-8.0-0.0-1.3","13","<p><img class= 'stimulus' src='images/baseline/04060v.jpg'></img></p>","null","","1550005214879","","","","","","",""
"null","","html-keyboard-response","370","4105394","0.0-8.0-0.0-2.3","13","<p><img class= 'stimulus' src='images/baseline/03217v.jpg'></img></p>","null","","1550005214978","","","","","","",""
"null","","html-keyboard-response","371","4105494","0.0-8.0-0.0-3.3","13","<p><img class= 'stimulus' src='images/baseline/pexels-photo-59321.jpeg'></img></p>","null","","1550005215079","","","","","","",""
"null","","html-keyboard-response","372","4105594","0.0-8.0-0.0-4.3","13","<p><img class= 'stimulus' src='images/baseline/02960v.jpg'></img></p>","null","","1550005215178","4","","","","","",""
"null","","html-keyboard-response","373","4105694","0.0-8.0-0.0-5.3","13","<p><img class= 'stimulus' src='images/baseline/meadow-with-mountain-in-background.jpg'></img></p>","null","","1550005215278","","","","","","",""
"null","","html-keyboard-response","374","4105794","0.0-8.0-0.0-6.3","13","<p><img class= 'stimulus' src='images/baseline/farmhouse9.jpg'></img></p>","null","","1550005215379","6","","","","","",""
"null","","html-keyboard-response","375","4105894","0.0-8.0-0.0-7.3","13","<p><img class= 'stimulus' src='images/baseline/pexels-photo-1287089.jpeg'></img></p>","null","","1550005215479","","","","","","",""
"null","","html-keyboard-response","376","4105994","0.0-8.0-0.0-8.3","13","<p><img class= 'stimulus' src='images/baseline/03162v.jpg'></img></p>","null","","1550005215580","8","","","","","",""
"null","","html-keyboard-response","377","4106094","0.0-8.0-0.0-9.3","13","<p><img class= 'stimulus' src='images/baseline/architecture-1314416_1920.jpg'></img></p>","null","","1550005215679","","","","","","",""
"null","","html-keyboard-response","378","4106194","0.0-8.0-0.0-10.3","13","<p><img class= 'stimulus' src='images/baseline/church-silhouette-8712964986014Kb.jpg'></img></p>","null","","1550005215778","","","","","","",""
"null","","html-keyboard-response","379","4106294","0.0-8.0-0.0-11.3","13","<p><img class= 'stimulus' src='images/baseline/05145v.jpg'></img></p>","null","","1550005215879","","","","","","",""
"null","","html-keyboard-response","380","4106394","0.0-8.0-0.0-12.3","13","<p><img class= 'stimulus' src='images/baseline/landscape7.jpg'></img></p>","null","","1550005215980","12","","","","","",""
"null","","html-keyboard-response","381","4106494","0.0-8.0-0.0-13.3","13","<p><img class= 'stimulus' src='images/baseline/landscape6.jpg'></img></p>","null","","1550005216078","","","","","","",""
"null","","html-keyboard-response","382","4106594","0.0-8.0-0.0-14.3","13","<p><img class= 'stimulus' src='images/baseline/building16.jpg'></img></p>","null","","1550005216179","14","","","","","",""
"null","","html-keyboard-response","383","4106694","0.0-8.0-0.0-15.3","13","<p><img class= 'stimulus' src='images/baseline/05131v.jpg'></img></p>","null","","1550005216279","","","","","","",""
"null","","html-keyboard-response","384","4106794","0.0-8.0-0.0-16.3","13","<p><img class= 'stimulus' src='images/baseline/Niinsaare_jarv.jpg'></img></p>","null","","1550005216379","","","","","","",""
"null","","html-keyboard-response","385","4106911","0.0-8.0-0.0-17.3","13","<p><img class= 'stimulus' src='images/baseline/farmhouse3.jpg'></img></p>","null","","1550005216480","","","","","","",""
"496.39999999990687","","html-button-response","386","4108411","0.0-8.0-0.0-18.3","13","<div class = ""response_question"">WAS THE IMAGE ROTATED...</div>","","2","","","null","null","null","null","test","null"
"766.4999999995343","","html-button-response","387","4109179","0.0-8.0-0.0-0.4","13","","","0","","","","","","","",""
"null","","html-keyboard-response","388","4109261","0.0-8.0-0.0-1.4","13","<p><img class= 'stimulus' src='images/baseline/Bahia_Onelli_Parque_Nacional_Los_Glaciares_Patagonia_Argentina_Luca_Galuzzi_2005.jpg'></img></p>","null","","1550005218846","","","","","","",""
"null","","html-keyboard-response","389","4109363","0.0-8.0-0.0-2.4","13","<p><img class= 'stimulus' src='images/baseline/Street 4.jpg'></img></p>","null","","1550005218946","","","","","","",""
"null","","html-keyboard-response","390","4109462","0.0-8.0-0.0-3.4","13","<p><img class= 'stimulus' src='images/baseline/Beach 2.jpg'></img></p>","null","","1550005219046","","","","","","",""
"null","","html-keyboard-response","391","4109561","0.0-8.0-0.0-4.4","13","<p><img class= 'stimulus' src='images/neutral/Cat 2.jpg'></img></p>","null","","1550005219145","4","","","","","",""
"null","","html-keyboard-response","392","4109660","0.0-8.0-0.0-5.4","13","<p><img class= 'stimulus' src='images/baseline/house6.jpg'></img></p>","null","","1550005219245","","","","","","",""
"null","","html-keyboard-response","393","4109761","0.0-8.0-0.0-6.4","13","<p><img class= 'stimulus left-rotate' src='images/target/mexico_tower_latin_american.jpg'></img></p>","null","","1550005219346","6","","","","","",""
"null","","html-keyboard-response","394","4109861","0.0-8.0-0.0-7.4","13","<p><img class= 'stimulus' src='images/baseline/05252v.jpg'></img></p>","null","","1550005219446","","","","","","",""
"null","","html-keyboard-response","395","4109960","0.0-8.0-0.0-8.4","13","<p><img class= 'stimulus' src='images/baseline/pexels-photo-414491.jpeg'></img></p>","null","","1550005219546","8","","","","","",""
"null","","html-keyboard-response","396","4110060","0.0-8.0-0.0-9.4","13","<p><img class= 'stimulus' src='images/baseline/tennis-court-net-buried-in-snow.jpg'></img></p>","null","","1550005219645","","","","","","",""
"null","","html-keyboard-response","397","4110160","0.0-8.0-0.0-10.4","13","<p><img class= 'stimulus' src='images/baseline/03063v.jpg'></img></p>","null","","1550005219746","","","","","","",""
"null","","html-keyboard-response","398","4110261","0.0-8.0-0.0-11.4","13","<p><img class= 'stimulus' src='images/baseline/house8.jpg'></img></p>","null","","1550005219846","","","","","","",""
"null","","html-keyboard-response","399","4110361","0.0-8.0-0.0-12.4","13","<p><img class= 'stimulus' src='images/baseline/landscape39.jpg'></img></p>","null","","1550005219946","12","","","","","",""
"null","","html-keyboard-response","400","4110461","0.0-8.0-0.0-13.4","13","<p><img class= 'stimulus' src='images/baseline/road 1(1).jpg'></img></p>","null","","1550005220046","","","","","","",""
"null","","html-keyboard-response","401","4110561","0.0-8.0-0.0-14.4","13","<p><img class= 'stimulus' src='images/baseline/town-square-in-wroclaw-1539098440MZy.jpg'></img></p>","null","","1550005220145","14","","","","","",""
"null","","html-keyboard-response","402","4110662","0.0-8.0-0.0-15.4","13","<p><img class= 'stimulus' src='images/baseline/05242v.jpg'></img></p>","null","","1550005220245","","","","","","",""
"null","","html-keyboard-response","403","4110761","0.0-8.0-0.0-16.4","13","<p><img class= 'stimulus' src='images/baseline/field 1.jpg'></img></p>","null","","1550005220346","","","","","","",""
"null","","html-keyboard-response","404","4110877","0.0-8.0-0.0-17.4","13","<p><img class= 'stimulus' src='images/baseline/Kocherbaumwald-01.jpg'></img></p>","null","","1550005220446","","","","","","",""
"834.6999999992549","","html-button-response","405","4112715","0.0-8.0-0.0-18.4","13","<div class = ""response_question"">WAS THE IMAGE ROTATED...</div>","","0","","","4","2","neu","left","test","true"
"966.3000000002794","","html-button-response","406","4113683","0.0-8.0-0.0-0.5","13","","","0","","","","","","","",""
"null","","html-keyboard-response","407","4113762","0.0-8.0-0.0-1.5","13","<p><img class= 'stimulus' src='images/baseline/farmhouse1.jpg'></img></p>","null","","1550005223345","","","","","","",""
"null","","html-keyboard-response","408","4113861","0.0-8.0-0.0-2.5","13","<p><img class= 'stimulus' src='images/baseline/landscape31.jpg'></img></p>","null","","1550005223446","","","","","","",""
"null","","html-keyboard-response","409","4113961","0.0-8.0-0.0-3.5","13","<p><img class= 'stimulus' src='images/baseline/03066v.jpg'></img></p>","null","","1550005223546","","","","","","",""
"null","","html-keyboard-response","410","4114060","0.0-8.0-0.0-4.5","13","<p><img class= 'stimulus' src='images/neutral/duck-mallard.jpg'></img></p>","null","","1550005223645","4","","","","","",""
"null","","html-keyboard-response","411","4114161","0.0-8.0-0.0-5.5","13","<p><img class= 'stimulus' src='images/baseline/building6.jpg'></img></p>","null","","1550005223745","","","","","","",""
"null","","html-keyboard-response","412","4114262","0.0-8.0-0.0-6.5","13","<p><img class= 'stimulus' src='images/baseline/Freudenberg_sg_Switzerland.jpg'></img></p>","null","","1550005223845","6","","","","","",""
"null","","html-keyboard-response","413","4114361","0.0-8.0-0.0-7.5","13","<p><img class= 'stimulus' src='images/baseline/field 3.jpg'></img></p>","null","","1550005223946","","","","","","",""
"null","","html-keyboard-response","414","4114460","0.0-8.0-0.0-8.5","13","<p><img class= 'stimulus' src='images/baseline/Bridge 1.jpg'></img></p>","null","","1550005224045","8","","","","","",""
"null","","html-keyboard-response","415","4114561","0.0-8.0-0.0-9.5","13","<p><img class= 'stimulus' src='images/baseline/05280v.jpg'></img></p>","null","","1550005224145","","","","","","",""
"null","","html-keyboard-response","416","4114661","0.0-8.0-0.0-10.5","13","<p><img class= 'stimulus' src='images/baseline/Lake 16.jpg'></img></p>","null","","1550005224246","","","","","","",""
"null","","html-keyboard-response","417","4114761","0.0-8.0-0.0-11.5","13","<p><img class= 'stimulus' src='images/baseline/landscape8.jpg'></img></p>","null","","1550005224346","","","","","","",""
"null","","html-keyboard-response","418","4114861","0.0-8.0-0.0-12.5","13","<p><img class= 'stimulus' src='images/target/pexels-photo-932328.jpeg'></img></p>","null","","1550005224446","12","","","","","",""
"null","","html-keyboard-response","419","4114962","0.0-8.0-0.0-13.5","13","<p><img class= 'stimulus' src='images/baseline/architecture_modern_architecture_852928.jpg'></img></p>","null","","1550005224546","","","","","","",""
"null","","html-keyboard-response","420","4115061","0.0-8.0-0.0-14.5","13","<p><img class= 'stimulus' src='images/baseline/04222v.jpg'></img></p>","null","","1550005224645","14","","","","","",""
"null","","html-keyboard-response","421","4115161","0.0-8.0-0.0-15.5","13","<p><img class= 'stimulus' src='images/baseline/farmhouse8.jpg'></img></p>","null","","1550005224745","","","","","","",""
"null","","html-keyboard-response","422","4115260","0.0-8.0-0.0-16.5","13","<p><img class= 'stimulus' src='images/baseline/pexels-photo-1837621.jpeg'></img></p>","null","","1550005224847","","","","","","",""
"null","","html-keyboard-response","423","4115378","0.0-8.0-0.0-17.5","13","<p><img class= 'stimulus' src='images/baseline/04085v.jpg'></img></p>","null","","1550005224946","","","","","","",""
"558.1000000000931","","html-button-response","424","4116928","0.0-8.0-0.0-18.5","13","<div class = ""response_question"">WAS THE IMAGE ROTATED...</div>","","3","","","4","8","neu","right","test","true"
"1062.1999999983236","","html-button-response","425","4117993","0.0-8.0-0.0-0.6","13","","","0","","","","","","","",""
"null","","html-keyboard-response","426","4118067","0.0-8.0-0.0-1.6","13","<p><img class= 'stimulus' src='images/baseline/building12.jpg'></img></p>","null","","1550005227652","","","","","","",""
"null","","html-keyboard-response","427","4118168","0.0-8.0-0.0-2.6","13","<p><img class= 'stimulus' src='images/baseline/pexels-photo-1261728.jpeg'></img></p>","null","","1550005227751","","","","","","",""
"null","","html-keyboard-response","428","4118267","0.0-8.0-0.0-3.6","13","<p><img class= 'stimulus' src='images/baseline/scenic-mountain-landscape.jpg'></img></p>","null","","1550005227852","","","","","","",""
"null","","html-keyboard-response","429","4118367","0.0-8.0-0.0-4.6","13","<p><img class= 'stimulus' src='images/baseline/05198v.jpg'></img></p>","null","","1550005227951","4","","","","","",""
"null","","html-keyboard-response","430","4118468","0.0-8.0-0.0-5.6","13","<p><img class= 'stimulus' src='images/baseline/05139v.jpg'></img></p>","null","","1550005228052","","","","","","",""
"null","","html-keyboard-response","431","4118568","0.0-8.0-0.0-6.6","13","<p><img class= 'stimulus' src='images/baseline/Nature 2.jpg'></img></p>","null","","1550005228152","6","","","","","",""
"null","","html-keyboard-response","432","4118668","0.0-8.0-0.0-7.6","13","<p><img class= 'stimulus' src='images/baseline/vintage-art-deco-storefront.jpg'></img></p>","null","","1550005228253","","","","","","",""
"null","","html-keyboard-response","433","4118768","0.0-8.0-0.0-8.6","13","<p><img class= 'stimulus' src='images/baseline/05264v.jpg'></img></p>","null","","1550005228352","8","","","","","",""
"null","","html-keyboard-response","434","4118867","0.0-8.0-0.0-9.6","13","<p><img class= 'stimulus' src='images/baseline/Lake 15.jpg'></img></p>","null","","1550005228452","","","","","","",""
"null","","html-keyboard-response","435","4118967","0.0-8.0-0.0-10.6","13","<p><img class= 'stimulus' src='images/baseline/hills 4.jpg'></img></p>","null","","1550005228553","","","","","","",""
"null","","html-keyboard-response","436","4119068","0.0-8.0-0.0-11.6","13","<p><img class= 'stimulus' src='images/baseline/Street 1.jpg'></img></p>","null","","1550005228651","","","","","","",""
"null","","html-keyboard-response","437","4119167","0.0-8.0-0.0-12.6","13","<p><img class= 'stimulus' src='images/baseline/horse_statue.jpg'></img></p>","null","","1550005228752","12","","","","","",""
"null","","html-keyboard-response","438","4119267","0.0-8.0-0.0-13.6","13","<p><img class= 'stimulus' src='images/baseline/dirt-road-or-trail-through-park.jpg'></img></p>","null","","1550005228852","","","","","","",""
"null","","html-keyboard-response","439","4119367","0.0-8.0-0.0-14.6","13","<p><img class= 'stimulus left-rotate' src='images/target/lighthouse-843522_640.jpg'></img></p>","null","","1550005228951","14","","","","","",""
"null","","html-keyboard-response","440","4119468","0.0-8.0-0.0-15.6","13","<p><img class= 'stimulus' src='images/baseline/landscape29.jpg'></img></p>","null","","1550005229051","","","","","","",""
"null","","html-keyboard-response","441","4119568","0.0-8.0-0.0-16.6","13","<p><img class= 'stimulus' src='images/baseline/building8.jpg'></img></p>","null","","1550005229151","","","","","","",""
"null","","html-keyboard-response","442","4119684","0.0-8.0-0.0-17.6","13","<p><img class= 'stimulus' src='images/baseline/house1.jpg'></img></p>","null","","1550005229251","","","","","","",""
"610.5000000009313","","html-button-response","443","4121296","0.0-8.0-0.0-18.6","13","<div class = ""response_question"">WAS THE IMAGE ROTATED...</div>","","1","","","6","8","bas","left","test","true"
"710.4000000003725","","html-button-response","444","4122008","0.0-8.0-0.0-0.7","13","","","0","","","","","","","",""
"null","","html-keyboard-response","445","4122084","0.0-8.0-0.0-1.7","13","<p><img class= 'stimulus' src='images/baseline/Skijump 1.jpg'></img></p>","null","","1550005231668","","","","","","",""
"null","","html-keyboard-response","446","4122184","0.0-8.0-0.0-2.7","13","<p><img class= 'stimulus' src='images/baseline/pexels-photo-1840893.jpeg'></img></p>","null","","1550005231769","","","","","","",""
"null","","html-keyboard-response","447","4122285","0.0-8.0-0.0-3.7","13","<p><img class= 'stimulus' src='images/baseline/agriculture-bright-clouds-440731.jpg'></img></p>","null","","1550005231869","","","","","","",""
"null","","html-keyboard-response","448","4122384","0.0-8.0-0.0-4.7","13","<p><img class= 'stimulus' src='images/baseline/Linden,_paysage.jpg'></img></p>","null","","1550005231969","4","","","","","",""
"null","","html-keyboard-response","449","4122483","0.0-8.0-0.0-5.7","13","<p><img class= 'stimulus' src='images/baseline/Desert_View_Indian_Wells.jpg'></img></p>","null","","1550005232069","","","","","","",""
"null","","html-keyboard-response","450","4122584","0.0-8.0-0.0-6.7","13","<p><img class= 'stimulus' src='images/negative/War 2.jpg'></img></p>","null","","1550005232169","6","","","","","",""
"null","","html-keyboard-response","451","4122685","0.0-8.0-0.0-7.7","13","<p><img class= 'stimulus' src='images/baseline/4k-wallpaper-agriculture-clouds-842711.jpg'></img></p>","null","","1550005232268","","","","","","",""
"null","","html-keyboard-response","452","4122784","0.0-8.0-0.0-8.7","13","<p><img class= 'stimulus left-rotate' src='images/target/building4.jpg'></img></p>","null","","1550005232370","8","","","","","",""
"null","","html-keyboard-response","453","4122884","0.0-8.0-0.0-9.7","13","<p><img class= 'stimulus' src='images/baseline/landscape14.jpg'></img></p>","null","","1550005232468","","","","","","",""
"null","","html-keyboard-response","454","4122984","0.0-8.0-0.0-10.7","13","<p><img class= 'stimulus' src='images/baseline/architecture-956332_1280.jpg'></img></p>","null","","1550005232568","","","","","","",""
"null","","html-keyboard-response","455","4123084","0.0-8.0-0.0-11.7","13","<p><img class= 'stimulus' src='images/baseline/Lake 8.jpg'></img></p>","null","","1550005232669","","","","","","",""
"null","","html-keyboard-response","456","4123184","0.0-8.0-0.0-12.7","13","<p><img class= 'stimulus' src='images/baseline/03201v.jpg'></img></p>","null","","1550005232768","12","","","","","",""
"null","","html-keyboard-response","457","4123284","0.0-8.0-0.0-13.7","13","<p><img class= 'stimulus' src='images/baseline/03112v.jpg'></img></p>","null","","1550005232868","","","","","","",""
"null","","html-keyboard-response","458","4123384","0.0-8.0-0.0-14.7","13","<p><img class= 'stimulus' src='images/baseline/bird-flying-at-sunset.jpg'></img></p>","null","","1550005232969","14","","","","","",""
"null","","html-keyboard-response","459","4123485","0.0-8.0-0.0-15.7","13","<p><img class= 'stimulus' src='images/baseline/03180v.jpg'></img></p>","null","","1550005233069","","","","","","",""
"null","","html-keyboard-response","460","4123584","0.0-8.0-0.0-16.7","13","<p><img class= 'stimulus' src='images/baseline/Grass 6.jpg'></img></p>","null","","1550005233169","","","","","","",""
"null","","html-keyboard-response","461","4123701","0.0-8.0-0.0-17.7","13","<p><img class= 'stimulus' src='images/baseline/Lake 9.jpg'></img></p>","null","","1550005233269","","","","","","",""
"1400.0999999991618","","html-button-response","462","4126105","0.0-8.0-0.0-18.7","13","<div class = ""response_question"">WAS THE IMAGE ROTATED...</div>","","5","","","6","2","neg","left","test","false"
"542.1999999997206","","html-button-response","463","4126648","0.0-8.0-0.0-0.8","13","","","0","","","","","","","",""
"null","","html-keyboard-response","464","4126734","0.0-8.0-0.0-1.8","13","<p><img class= 'stimulus' src='images/baseline/Path 1.jpg'></img></p>","null","","1550005236319","","","","","","",""
"null","","html-keyboard-response","465","4126834","0.0-8.0-0.0-2.8","13","<p><img class= 'stimulus' src='images/baseline/04014v.jpg'></img></p>","null","","1550005236419","","","","","","",""
"null","","html-keyboard-response","466","4126934","0.0-8.0-0.0-3.8","13","<p><img class= 'stimulus' src='images/baseline/snowy tree.jpg'></img></p>","null","","1550005236518","","","","","","",""
"null","","html-keyboard-response","467","4127034","0.0-8.0-0.0-4.8","13","<p><img class= 'stimulus' src='images/baseline/pexels-photo-221125.jpeg'></img></p>","null","","1550005236618","4","","","","","",""
"null","","html-keyboard-response","468","4127134","0.0-8.0-0.0-5.8","13","<p><img class= 'stimulus' src='images/baseline/04063v.jpg'></img></p>","null","","1550005236718","","","","","","",""
"null","","html-keyboard-response","469","4127234","0.0-8.0-0.0-6.8","13","<p><img class= 'stimulus' src='images/neutral/Gazing 6.jpg'></img></p>","null","","1550005236818","6","","","","","",""
"null","","html-keyboard-response","470","4127334","0.0-8.0-0.0-7.8","13","<p><img class= 'stimulus' src='images/baseline/Sunset 6.jpg'></img></p>","null","","1550005236920","","","","","","",""
"null","","html-keyboard-response","471","4127434","0.0-8.0-0.0-8.8","13","<p><img class= 'stimulus' src='images/baseline/pexels-photo-427676.jpeg'></img></p>","null","","1550005237019","8","","","","","",""
"null","","html-keyboard-response","472","4127535","0.0-8.0-0.0-9.8","13","<p><img class= 'stimulus' src='images/baseline/landscape16.jpg'></img></p>","null","","1550005237119","","","","","","",""
"null","","html-keyboard-response","473","4127634","0.0-8.0-0.0-10.8","13","<p><img class= 'stimulus' src='images/baseline/04284v.jpg'></img></p>","null","","1550005237218","","","","","","",""
"null","","html-keyboard-response","474","4127735","0.0-8.0-0.0-11.8","13","<p><img class= 'stimulus' src='images/baseline/Nature 1.jpg'></img></p>","null","","1550005237319","","","","","","",""
"null","","html-keyboard-response","475","4127835","0.0-8.0-0.0-12.8","13","<p><img class= 'stimulus' src='images/baseline/farmhouse4.jpg'></img></p>","null","","1550005237419","12","","","","","",""
"null","","html-keyboard-response","476","4127934","0.0-8.0-0.0-13.8","13","<p><img class= 'stimulus' src='images/baseline/autumn-in-red-rocks-park.jpg'></img></p>","null","","1550005237520","","","","","","",""
"null","","html-keyboard-response","477","4128033","0.0-8.0-0.0-14.8","13","<p><img class= 'stimulus' src='images/target/petronas-towers-433081_1920.jpg'></img></p>","null","","1550005237619","14","","","","","",""
"null","","html-keyboard-response","478","4128134","0.0-8.0-0.0-15.8","13","<p><img class= 'stimulus' src='images/baseline/Sunset 4.jpg'></img></p>","null","","1550005237718","","","","","","",""
"null","","html-keyboard-response","479","4128234","0.0-8.0-0.0-16.8","13","<p><img class= 'stimulus' src='images/baseline/03075v.jpg'></img></p>","null","","1550005237818","","","","","","",""
"null","","html-keyboard-response","480","4128350","0.0-8.0-0.0-17.8","13","<p><img class= 'stimulus' src='images/baseline/landscape3.jpg'></img></p>","null","","1550005237918","","","","","","",""
"1831.4000000008382","","html-button-response","481","4131185","0.0-8.0-0.0-18.8","13","<div class = ""response_question"">WAS THE IMAGE ROTATED...</div>","","3","","","6","8","neu","right","test","true"
"686.2000000001863","","html-button-response","482","4131873","0.0-8.0-0.0-0.9","13","","","0","","","","","","","",""
"null","","html-keyboard-response","483","4131951","0.0-8.0-0.0-1.9","13","<p><img class= 'stimulus' src='images/baseline/Paysage_karabagh_02.jpg'></img></p>","null","","1550005241535","","","","","","",""
"null","","html-keyboard-response","484","4132051","0.0-8.0-0.0-2.9","13","<p><img class= 'stimulus' src='images/baseline/Lake 5.jpg'></img></p>","null","","1550005241635","","","","","","",""
"null","","html-keyboard-response","485","4132151","0.0-8.0-0.0-3.9","13","<p><img class= 'stimulus' src='images/baseline/building3.jpg'></img></p>","null","","1550005241735","","","","","","",""
"null","","html-keyboard-response","486","4132251","0.0-8.0-0.0-4.9","13","<p><img class= 'stimulus' src='images/baseline/landscape1.jpg'></img></p>","null","","1550005241836","4","","","","","",""
"null","","html-keyboard-response","487","4132351","0.0-8.0-0.0-5.9","13","<p><img class= 'stimulus' src='images/baseline/Skyscraper 2.jpg'></img></p>","null","","1550005241936","","","","","","",""
"null","","html-keyboard-response","488","4132451","0.0-8.0-0.0-6.9","13","<p><img class= 'stimulus left-rotate' src='images/target/1937-single-tree-at-the-top-of-stone-mountain-pv.jpg'></img></p>","null","","1550005242036","6","","","","","",""
"null","","html-keyboard-response","489","4132551","0.0-8.0-0.0-7.9","13","<p><img class= 'stimulus' src='images/baseline/building4.jpg'></img></p>","null","","1550005242135","","","","","","",""
"null","","html-keyboard-response","490","4132651","0.0-8.0-0.0-8.9","13","<p><img class= 'stimulus' src='images/baseline/autumn-landscape-with-lake-fall-trees-mountains.jpg'></img></p>","null","","1550005242235","8","","","","","",""
"null","","html-keyboard-response","491","4132751","0.0-8.0-0.0-9.9","13","<p><img class= 'stimulus' src='images/baseline/Dirt 2.jpg'></img></p>","null","","1550005242336","","","","","","",""
"null","","html-keyboard-response","492","4132851","0.0-8.0-0.0-10.9","13","<p><img class= 'stimulus' src='images/baseline/Lake 14.jpg'></img></p>","null","","1550005242436","","","","","","",""
"null","","html-keyboard-response","493","4132950","0.0-8.0-0.0-11.9","13","<p><img class= 'stimulus' src='images/baseline/Sailing 3.jpg'></img></p>","null","","1550005242535","","","","","","",""
"null","","html-keyboard-response","494","4133050","0.0-8.0-0.0-12.9","13","<p><img class= 'stimulus' src='images/baseline/landscape40.jpg'></img></p>","null","","1550005242635","12","","","","","",""
"null","","html-keyboard-response","495","4133151","0.0-8.0-0.0-13.9","13","<p><img class= 'stimulus' src='images/baseline/seoul-410266_1920.jpg'></img></p>","null","","1550005242735","","","","","","",""
"null","","html-keyboard-response","496","4133250","0.0-8.0-0.0-14.9","13","<p><img class= 'stimulus' src='images/baseline/04229v.jpg'></img></p>","null","","1550005242834","14","","","","","",""
"null","","html-keyboard-response","497","4133351","0.0-8.0-0.0-15.9","13","<p><img class= 'stimulus' src='images/baseline/foreclosed_home.jpg'></img></p>","null","","1550005242935","","","","","","",""
"null","","html-keyboard-response","498","4133451","0.0-8.0-0.0-16.9","13","<p><img class= 'stimulus' src='images/baseline/02971v.jpg'></img></p>","null","","1550005243035","","","","","","",""
"null","","html-keyboard-response","499","4133567","0.0-8.0-0.0-17.9","13","<p><img class= 'stimulus' src='images/baseline/Sky 1.jpg'></img></p>","null","","1550005243135","","","","","","",""
"2821.6000000010245","","html-button-response","500","4137393","0.0-8.0-0.0-18.9","13","<div class = ""response_question"">WAS THE IMAGE ROTATED...</div>","","0","","","4","2","bas","left","test","true"
"1870.4999999990687","","html-button-response","501","4139264","0.0-8.0-0.0-0.10","13","","","0","","","","","","","",""
"null","","html-keyboard-response","502","4139351","0.0-8.0-0.0-1.10","13","<p><img class= 'stimulus' src='images/baseline/05161v.jpg'></img></p>","null","","1550005248935","","","","","","",""
"null","","html-keyboard-response","503","4139451","0.0-8.0-0.0-2.10","13","<p><img class= 'stimulus' src='images/baseline/04031v.jpg'></img></p>","null","","1550005249036","","","","","","",""
"null","","html-keyboard-response","504","4139551","0.0-8.0-0.0-3.10","13","<p><img class= 'stimulus' src='images/baseline/pexels-photo-1048039.jpeg'></img></p>","null","","1550005249136","","","","","","",""
"null","","html-keyboard-response","505","4139651","0.0-8.0-0.0-4.10","13","<p><img class= 'stimulus' src='images/neutral/Horse 1.jpg'></img></p>","null","","1550005249236","4","","","","","",""
"null","","html-keyboard-response","506","4139752","0.0-8.0-0.0-5.10","13","<p><img class= 'stimulus' src='images/baseline/red rocks from afar.jpg'></img></p>","null","","1550005249336","","","","","","",""
"null","","html-keyboard-response","507","4139851","0.0-8.0-0.0-6.10","13","<p><img class= 'stimulus' src='images/baseline/Dock 1.jpg'></img></p>","null","","1550005249435","6","","","","","",""
