"rt","responses","trial_type","trial_index","time_elapsed","internal_node_id","participant_id","stimulus","key_press","button_pressed","stim_onset","sequence_position","distractor_position","target_lag","distractor_type","target_orientation","phase","correct"
"4150.200000003679","{""Q0"":""28""}","survey-text","0","4156","0.0-0.0","28","","","","","","","","","","",""
"1603504.8000000243","","html-keyboard-response","1","1607671","0.0-1.0","28","Welcome to the experiment.","67","","","","","","","","",""
"22512.60000001639","","html-button-response","2","1630190","0.0-2.0","28","<p>Several images will be presented sequentially.        Each image will only be on the screen for about 100 milliseconds.</p>        <p> One of the images may be rotated 90 degrees right or left.        Watch for this image and remember if it is rotated right or left.</p>               <p>Images of people and animals will appear, and sometimes they will be unpleasant.        These will never be the rotated target image.</p>","","0","","","","","","","",""
"66661.69999999693","","html-button-response","3","1696853","0.0-3.0","28","<p><img class=""stimulus left-rotate"" src=""images/target/mitre peak.jpg""></img></p><p>This is an example of an image rotated to the left.</p>","","0","","","","","","","",""
"1734.8000000056345","","html-button-response","4","1698589","0.0-4.0","28","<p><img class=""stimulus"" src=""images/target/pexels-photo-1534411.jpeg""></img></p><p>This is an example of an image rotated to the right.</p>","","0","","","","","","","",""
"19430.80000000191","","html-button-response","5","1718015","0.0-5.0","28","<p>We will now begin a short practice session.</p>         <p>A + symbol will appear in the middle of the screen. Please fix your gaze on the center of the +, and then click the mouse button to begin the image sequence.</p>         <p>Please avoid blinking or eye movements while the images are on the screen.</p>        <p>The image sequence will start relatively slow. After a few sequences, it will speed up.</p>","","0","","","","","","","",""
"5414.59999998915","","html-button-response","6","1723431","0.0-6.0-0.0","28","","","0","","","","","","","",""
"null","","html-keyboard-response","7","1723620","0.0-6.0-1.0","28","<p><img class= 'stimulus' src='images/baseline/04010v.jpg'></img></p>","null","","1550712631733","","","","","","",""
"null","","html-keyboard-response","8","1723821","0.0-6.0-2.0","28","<p><img class= 'stimulus' src='images/baseline/Lake 9.jpg'></img></p>","null","","1550712631933","","","","","","",""
"null","","html-keyboard-response","9","1724020","0.0-6.0-3.0","28","<p><img class= 'stimulus' src='images/baseline/05247v.jpg'></img></p>","null","","1550712632134","","","","","","",""
"null","","html-keyboard-response","10","1724220","0.0-6.0-4.0","28","<p><img class= 'stimulus' src='images/baseline/Beach 3.jpg'></img></p>","null","","1550712632334","4","","","","","",""
"null","","html-keyboard-response","11","1724421","0.0-6.0-5.0","28","<p><img class= 'stimulus' src='images/baseline/Freudenberg_sg_Switzerland.jpg'></img></p>","null","","1550712632535","","","","","","",""
"null","","html-keyboard-response","12","1724621","0.0-6.0-6.0","28","<p><img class= 'stimulus' src='images/baseline/Lake 15.jpg'></img></p>","null","","1550712632733","6","","","","","",""
"null","","html-keyboard-response","13","1724822","0.0-6.0-7.0","28","<p><img class= 'stimulus' src='images/baseline/farmhouse11.jpg'></img></p>","null","","1550712632934","","","","","","",""
"null","","html-keyboard-response","14","1725020","0.0-6.0-8.0","28","<p><img class= 'stimulus' src='images/target/buildin.png'></img></p>","null","","1550712633133","8","","","","","",""
"null","","html-keyboard-response","15","1725220","0.0-6.0-9.0","28","<p><img class= 'stimulus' src='images/baseline/02947v.jpg'></img></p>","null","","1550712633334","","","","","","",""
"null","","html-keyboard-response","16","1725420","0.0-6.0-10.0","28","<p><img class= 'stimulus' src='images/baseline/05167v.jpg'></img></p>","null","","1550712633534","","","","","","",""
"null","","html-keyboard-response","17","1725621","0.0-6.0-11.0","28","<p><img class= 'stimulus' src='images/baseline/hiking-trail.jpg'></img></p>","null","","1550712633734","","","","","","",""
"null","","html-keyboard-response","18","1725821","0.0-6.0-12.0","28","<p><img class= 'stimulus' src='images/baseline/05179v.jpg'></img></p>","null","","1550712633933","12","","","","","",""
"null","","html-keyboard-response","19","1726020","0.0-6.0-13.0","28","<p><img class= 'stimulus' src='images/baseline/farmhouse8.jpg'></img></p>","null","","1550712634133","","","","","","",""
"null","","html-keyboard-response","20","1726223","0.0-6.0-14.0","28","<p><img class= 'stimulus' src='images/baseline/03041v.jpg'></img></p>","null","","1550712634334","14","","","","","",""
"null","","html-keyboard-response","21","1726421","0.0-6.0-15.0","28","<p><img class= 'stimulus' src='images/baseline/05242v.jpg'></img></p>","null","","1550712634535","","","","","","",""
"null","","html-keyboard-response","22","1726621","0.0-6.0-16.0","28","<p><img class= 'stimulus' src='images/baseline/farmhouse7.jpg'></img></p>","null","","1550712634734","","","","","","",""
"null","","html-keyboard-response","23","1726838","0.0-6.0-17.0","28","<p><img class= 'stimulus' src='images/baseline/lake 2.jpg'></img></p>","null","","1550712634935","","","","","","",""
"7671.300000016345","","html-button-response","24","1735520","0.0-6.0-18.0","28","<div class = ""response_question"">WAS THE IMAGE ROTATED...</div>","","2","","","6","2","bas","right","practice","false"
"3037.6999999862164","","html-button-response","25","1738559","0.0-6.0-0.1","28","","","0","","","","","","","",""
"null","","html-keyboard-response","26","1738737","0.0-6.0-1.1","28","<p><img class= 'stimulus' src='images/baseline/trees 23.jpg'></img></p>","null","","1550712646850","","","","","","",""
"null","","html-keyboard-response","27","1738937","0.0-6.0-2.1","28","<p><img class= 'stimulus' src='images/baseline/landscape36.jpg'></img></p>","null","","1550712647051","","","","","","",""
"null","","html-keyboard-response","28","1739137","0.0-6.0-3.1","28","<p><img class= 'stimulus' src='images/baseline/farmhouse2.jpg'></img></p>","null","","1550712647250","","","","","","",""
"null","","html-keyboard-response","29","1739337","0.0-6.0-4.1","28","<p><img class= 'stimulus' src='images/baseline/pexels-photo-427676.jpeg'></img></p>","null","","1550712647450","4","","","","","",""
"null","","html-keyboard-response","30","1739537","0.0-6.0-5.1","28","<p><img class= 'stimulus' src='images/baseline/pexels-photo-808465.jpeg'></img></p>","null","","1550712647650","","","","","","",""
"null","","html-keyboard-response","31","1739737","0.0-6.0-6.1","28","<p><img class= 'stimulus' src='images/baseline/farmhouse6.jpg'></img></p>","null","","1550712647851","6","","","","","",""
"null","","html-keyboard-response","32","1739938","0.0-6.0-7.1","28","<p><img class= 'stimulus' src='images/baseline/04064v.jpg'></img></p>","null","","1550712648051","","","","","","",""
"null","","html-keyboard-response","33","1740137","0.0-6.0-8.1","28","<p><img class= 'stimulus left-rotate' src='images/target/tree-740901_1280.jpg'></img></p>","null","","1550712648251","8","","","","","",""
"null","","html-keyboard-response","34","1740337","0.0-6.0-9.1","28","<p><img class= 'stimulus' src='images/baseline/autumn-in-red-rocks-park.jpg'></img></p>","null","","1550712648452","","","","","","",""
"null","","html-keyboard-response","35","1740538","0.0-6.0-10.1","28","<p><img class= 'stimulus' src='images/baseline/architecture-956332_1280.jpg'></img></p>","null","","1550712648652","","","","","","",""
"null","","html-keyboard-response","36","1740738","0.0-6.0-11.1","28","<p><img class= 'stimulus' src='images/baseline/Bridge 1.jpg'></img></p>","null","","1550712648853","","","","","","",""
"null","","html-keyboard-response","37","1740938","0.0-6.0-12.1","28","<p><img class= 'stimulus' src='images/baseline/valley 1.jpg'></img></p>","null","","1550712649051","12","","","","","",""
"null","","html-keyboard-response","38","1741138","0.0-6.0-13.1","28","<p><img class= 'stimulus' src='images/baseline/Beach 2.jpg'></img></p>","null","","1550712649251","","","","","","",""
"null","","html-keyboard-response","39","1741338","0.0-6.0-14.1","28","<p><img class= 'stimulus' src='images/baseline/kokkari-1523011968Xfr.jpg'></img></p>","null","","1550712649451","14","","","","","",""
"null","","html-keyboard-response","40","1741538","0.0-6.0-15.1","28","<p><img class= 'stimulus' src='images/baseline/04300v.jpg'></img></p>","null","","1550712649652","","","","","","",""
"null","","html-keyboard-response","41","1741738","0.0-6.0-16.1","28","<p><img class= 'stimulus' src='images/baseline/04031v.jpg'></img></p>","null","","1550712649853","","","","","","",""
"null","","html-keyboard-response","42","1741955","0.0-6.0-17.1","28","<p><img class= 'stimulus' src='images/baseline/Skyscraper 1.jpg'></img></p>","null","","1550712650051","","","","","","",""
"1791.4000000164378","","html-button-response","43","1744752","0.0-6.0-18.1","28","<div class = ""response_question"">WAS THE IMAGE ROTATED...</div>","","0","","","6","2","bas","left","practice","true"
"3590.300000010757","","html-button-response","44","1748343","0.0-6.0-0.2","28","","","0","","","","","","","",""
"null","","html-keyboard-response","45","1748522","0.0-6.0-1.2","28","<p><img class= 'stimulus' src='images/baseline/05303v.jpg'></img></p>","null","","1550712656635","","","","","","",""
"null","","html-keyboard-response","46","1748722","0.0-6.0-2.2","28","<p><img class= 'stimulus' src='images/baseline/Camping 10.jpg'></img></p>","null","","1550712656835","","","","","","",""
"null","","html-keyboard-response","47","1748922","0.0-6.0-3.2","28","<p><img class= 'stimulus' src='images/baseline/town-square-in-wroclaw-1539098440MZy.jpg'></img></p>","null","","1550712657035","","","","","","",""
"null","","html-keyboard-response","48","1749121","0.0-6.0-4.2","28","<p><img class= 'stimulus' src='images/baseline/Path 1.jpg'></img></p>","null","","1550712657235","4","","","","","",""
"null","","html-keyboard-response","49","1749323","0.0-6.0-5.2","28","<p><img class= 'stimulus' src='images/baseline/05139v.jpg'></img></p>","null","","1550712657435","","","","","","",""
"null","","html-keyboard-response","50","1749522","0.0-6.0-6.2","28","<p><img class= 'stimulus' src='images/baseline/building6.jpg'></img></p>","null","","1550712657636","6","","","","","",""
"null","","html-keyboard-response","51","1749723","0.0-6.0-7.2","28","<p><img class= 'stimulus' src='images/baseline/Linden,_paysage.jpg'></img></p>","null","","1550712657835","","","","","","",""
"null","","html-keyboard-response","52","1749921","0.0-6.0-8.2","28","<p><img class= 'stimulus' src='images/baseline/landscape2.jpg'></img></p>","null","","1550712658036","8","","","","","",""
"null","","html-keyboard-response","53","1750123","0.0-6.0-9.2","28","<p><img class= 'stimulus' src='images/baseline/04062v.jpg'></img></p>","null","","1550712658235","","","","","","",""
"null","","html-keyboard-response","54","1750322","0.0-6.0-10.2","28","<p><img class= 'stimulus' src='images/baseline/03056v.jpg'></img></p>","null","","1550712658435","","","","","","",""
"null","","html-keyboard-response","55","1750521","0.0-6.0-11.2","28","<p><img class= 'stimulus' src='images/baseline/pexels-photo-1054289.jpeg'></img></p>","null","","1550712658636","","","","","","",""
"null","","html-keyboard-response","56","1750722","0.0-6.0-12.2","28","<p><img class= 'stimulus' src='images/target/shotstash_0036-1-1100x734.jpg'></img></p>","null","","1550712658835","12","","","","","",""
"null","","html-keyboard-response","57","1750921","0.0-6.0-13.2","28","<p><img class= 'stimulus' src='images/baseline/building_at_national_conservation.jpg'></img></p>","null","","1550712659036","","","","","","",""
"null","","html-keyboard-response","58","1751122","0.0-6.0-14.2","28","<p><img class= 'stimulus' src='images/baseline/tennis-court-net-buried-in-snow.jpg'></img></p>","null","","1550712659236","14","","","","","",""
"null","","html-keyboard-response","59","1751322","0.0-6.0-15.2","28","<p><img class= 'stimulus' src='images/baseline/landscape23.jpg'></img></p>","null","","1550712659435","","","","","","",""
"null","","html-keyboard-response","60","1751521","0.0-6.0-16.2","28","<p><img class= 'stimulus' src='images/baseline/03063v.jpg'></img></p>","null","","1550712659635","","","","","","",""
"null","","html-keyboard-response","61","1751739","0.0-6.0-17.2","28","<p><img class= 'stimulus' src='images/baseline/05252v.jpg'></img></p>","null","","1550712659835","","","","","","",""
"1410.0000000034925","","html-button-response","62","1754167","0.0-6.0-18.2","28","<div class = ""response_question"">WAS THE IMAGE ROTATED...</div>","","3","","","4","8","bas","right","practice","true"
"2126.4000000082888","","html-button-response","63","1756296","0.0-6.0-0.3","28","","","0","","","","","","","",""
"null","","html-keyboard-response","64","1756471","0.0-6.0-1.3","28","<p><img class= 'stimulus' src='images/baseline/snowy tree.jpg'></img></p>","null","","1550712664585","","","","","","",""
"null","","html-keyboard-response","65","1756672","0.0-6.0-2.3","28","<p><img class= 'stimulus' src='images/baseline/building5.jpg'></img></p>","null","","1550712664785","","","","","","",""
"null","","html-keyboard-response","66","1756871","0.0-6.0-3.3","28","<p><img class= 'stimulus' src='images/baseline/04179v.jpg'></img></p>","null","","1550712664984","","","","","","",""
"null","","html-keyboard-response","67","1757071","0.0-6.0-4.3","28","<p><img class= 'stimulus' src='images/baseline/hills 4.jpg'></img></p>","null","","1550712665186","4","","","","","",""
"null","","html-keyboard-response","68","1757271","0.0-6.0-5.3","28","<p><img class= 'stimulus' src='images/baseline/landscape7.jpg'></img></p>","null","","1550712665384","","","","","","",""
"null","","html-keyboard-response","69","1757471","0.0-6.0-6.3","28","<p><img class= 'stimulus' src='images/baseline/pexels-photo-351264.jpeg'></img></p>","null","","1550712665586","6","","","","","",""
"null","","html-keyboard-response","70","1757671","0.0-6.0-7.3","28","<p><img class= 'stimulus' src='images/baseline/pexels-photo-534164.jpeg'></img></p>","null","","1550712665784","","","","","","",""
"null","","html-keyboard-response","71","1757872","0.0-6.0-8.3","28","<p><img class= 'stimulus' src='images/baseline/landscape17.jpg'></img></p>","null","","1550712665986","8","","","","","",""
"null","","html-keyboard-response","72","1758071","0.0-6.0-9.3","28","<p><img class= 'stimulus' src='images/baseline/Desert_View_Indian_Wells.jpg'></img></p>","null","","1550712666185","","","","","","",""
"null","","html-keyboard-response","73","1758271","0.0-6.0-10.3","28","<p><img class= 'stimulus' src='images/baseline/02971v.jpg'></img></p>","null","","1550712666386","","","","","","",""
"null","","html-keyboard-response","74","1758472","0.0-6.0-11.3","28","<p><img class= 'stimulus' src='images/baseline/pexels-photo-280222.jpeg'></img></p>","null","","1550712666584","","","","","","",""
"null","","html-keyboard-response","75","1758672","0.0-6.0-12.3","28","<p><img class= 'stimulus' src='images/baseline/farmhouse9.jpg'></img></p>","null","","1550712666785","12","","","","","",""
"null","","html-keyboard-response","76","1758871","0.0-6.0-13.3","28","<p><img class= 'stimulus' src='images/baseline/valley 2.jpg'></img></p>","null","","1550712666984","","","","","","",""
"null","","html-keyboard-response","77","1759072","0.0-6.0-14.3","28","<p><img class= 'stimulus left-rotate' src='images/target/pexels-photo-1102846.jpeg'></img></p>","null","","1550712667186","14","","","","","",""
"null","","html-keyboard-response","78","1759272","0.0-6.0-15.3","28","<p><img class= 'stimulus' src='images/baseline/lake3.jpg'></img></p>","null","","1550712667385","","","","","","",""
"null","","html-keyboard-response","79","1759472","0.0-6.0-16.3","28","<p><img class= 'stimulus' src='images/baseline/05255v.jpg'></img></p>","null","","1550712667585","","","","","","",""
"null","","html-keyboard-response","80","1759689","0.0-6.0-17.3","28","<p><img class= 'stimulus' src='images/baseline/empire-state-building.jpg'></img></p>","null","","1550712667786","","","","","","",""
"1566.499999986263","","html-button-response","81","1762263","0.0-6.0-18.3","28","<div class = ""response_question"">WAS THE IMAGE ROTATED...</div>","","1","","","6","8","bas","left","practice","true"
"2278.3999999810476","","html-button-response","82","1764543","0.0-6.0-0.4","28","","","0","","","","","","","",""
"null","","html-keyboard-response","83","1764672","0.0-6.0-1.4","28","<p><img class= 'stimulus' src='images/baseline/pexels-photo-414491.jpeg'></img></p>","null","","1550712672835","","","","","","",""
"null","","html-keyboard-response","84","1764822","0.0-6.0-2.4","28","<p><img class= 'stimulus' src='images/baseline/05280v.jpg'></img></p>","null","","1550712672987","","","","","","",""
"null","","html-keyboard-response","85","1764972","0.0-6.0-3.4","28","<p><img class= 'stimulus' src='images/baseline/Street 3.jpg'></img></p>","null","","1550712673135","","","","","","",""
"null","","html-keyboard-response","86","1765121","0.0-6.0-4.4","28","<p><img class= 'stimulus' src='images/baseline/Paysage_enneige_02.jpg'></img></p>","null","","1550712673285","4","","","","","",""
"null","","html-keyboard-response","87","1765273","0.0-6.0-5.4","28","<p><img class= 'stimulus' src='images/baseline/pexels-photo-568236.jpeg'></img></p>","null","","1550712673435","","","","","","",""
"null","","html-keyboard-response","88","1765422","0.0-6.0-6.4","28","<p><img class= 'stimulus left-rotate' src='images/target/9525-a-lonely-single-tree-in-a-field-pv.jpg'></img></p>","null","","1550712673585","6","","","","","",""
"null","","html-keyboard-response","89","1765572","0.0-6.0-7.4","28","<p><img class= 'stimulus' src='images/baseline/red-rocks-park.jpg'></img></p>","null","","1550712673736","","","","","","",""
"null","","html-keyboard-response","90","1765722","0.0-6.0-8.4","28","<p><img class= 'stimulus' src='images/baseline/04117v.jpg'></img></p>","null","","1550712673885","8","","","","","",""
"null","","html-keyboard-response","91","1765872","0.0-6.0-9.4","28","<p><img class= 'stimulus' src='images/baseline/building12.jpg'></img></p>","null","","1550712674035","","","","","","",""
"null","","html-keyboard-response","92","1766022","0.0-6.0-10.4","28","<p><img class= 'stimulus' src='images/baseline/scenic-mountain-landscape.jpg'></img></p>","null","","1550712674185","","","","","","",""
"null","","html-keyboard-response","93","1766171","0.0-6.0-11.4","28","<p><img class= 'stimulus' src='images/baseline/Sunset 3.jpg'></img></p>","null","","1550712674335","","","","","","",""
"null","","html-keyboard-response","94","1766321","0.0-6.0-12.4","28","<p><img class= 'stimulus' src='images/baseline/field 1.jpg'></img></p>","null","","1550712674485","12","","","","","",""
"null","","html-keyboard-response","95","1766471","0.0-6.0-13.4","28","<p><img class= 'stimulus' src='images/baseline/Sunset 6.jpg'></img></p>","null","","1550712674634","","","","","","",""
"null","","html-keyboard-response","96","1766621","0.0-6.0-14.4","28","<p><img class= 'stimulus' src='images/baseline/lookout_tower.jpg'></img></p>","null","","1550712674784","14","","","","","",""
"null","","html-keyboard-response","97","1766772","0.0-6.0-15.4","28","<p><img class= 'stimulus' src='images/baseline/landscape6.jpg'></img></p>","null","","1550712674935","","","","","","",""
"null","","html-keyboard-response","98","1766920","0.0-6.0-16.4","28","<p><img class= 'stimulus' src='images/baseline/Skyscraper 2.jpg'></img></p>","null","","1550712675085","","","","","","",""
"null","","html-keyboard-response","99","1767088","0.0-6.0-17.4","28","<p><img class= 'stimulus' src='images/baseline/Street 2.jpg'></img></p>","null","","1550712675235","","","","","","",""
"868.6999999918044","","html-button-response","100","1768959","0.0-6.0-18.4","28","<div class = ""response_question"">WAS THE IMAGE ROTATED...</div>","","0","","","4","2","bas","left","practice","true"
"1566.5999999910127","","html-button-response","101","1770527","0.0-6.0-0.5","28","","","0","","","","","","","",""
"null","","html-keyboard-response","102","1770655","0.0-6.0-1.5","28","<p><img class= 'stimulus' src='images/baseline/03217v.jpg'></img></p>","null","","1550712678818","","","","","","",""
"null","","html-keyboard-response","103","1770804","0.0-6.0-2.5","28","<p><img class= 'stimulus' src='images/baseline/05279v.jpg'></img></p>","null","","1550712678968","","","","","","",""
"null","","html-keyboard-response","104","1770954","0.0-6.0-3.5","28","<p><img class= 'stimulus' src='images/baseline/05131v.jpg'></img></p>","null","","1550712679118","","","","","","",""
"null","","html-keyboard-response","105","1771104","0.0-6.0-4.5","28","<p><img class= 'stimulus' src='images/baseline/sunset-over-the-lake.jpg'></img></p>","null","","1550712679268","4","","","","","",""
"null","","html-keyboard-response","106","1771254","0.0-6.0-5.5","28","<p><img class= 'stimulus' src='images/baseline/Street 4.jpg'></img></p>","null","","1550712679418","","","","","","",""
"null","","html-keyboard-response","107","1771404","0.0-6.0-6.5","28","<p><img class= 'stimulus' src='images/target/tree-197536_640.jpg'></img></p>","null","","1550712679567","6","","","","","",""
"null","","html-keyboard-response","108","1771554","0.0-6.0-7.5","28","<p><img class= 'stimulus' src='images/baseline/04060v.jpg'></img></p>","null","","1550712679718","","","","","","",""
"null","","html-keyboard-response","109","1771705","0.0-6.0-8.5","28","<p><img class= 'stimulus' src='images/baseline/Lake 13.jpg'></img></p>","null","","1550712679867","8","","","","","",""
"null","","html-keyboard-response","110","1771853","0.0-6.0-9.5","28","<p><img class= 'stimulus' src='images/baseline/landscape13.jpg'></img></p>","null","","1550712680017","","","","","","",""
"null","","html-keyboard-response","111","1772004","0.0-6.0-10.5","28","<p><img class= 'stimulus' src='images/baseline/Sky 1.jpg'></img></p>","null","","1550712680168","","","","","","",""
"null","","html-keyboard-response","112","1772153","0.0-6.0-11.5","28","<p><img class= 'stimulus' src='images/baseline/02962v.jpg'></img></p>","null","","1550712680317","","","","","","",""
"null","","html-keyboard-response","113","1772304","0.0-6.0-12.5","28","<p><img class= 'stimulus' src='images/baseline/02977v.jpg'></img></p>","null","","1550712680468","12","","","","","",""
"null","","html-keyboard-response","114","1772454","0.0-6.0-13.5","28","<p><img class= 'stimulus' src='images/baseline/04201v.jpg'></img></p>","null","","1550712680617","","","","","","",""
"null","","html-keyboard-response","115","1772605","0.0-6.0-14.5","28","<p><img class= 'stimulus' src='images/baseline/Lake 7.jpg'></img></p>","null","","1550712680768","14","","","","","",""
"null","","html-keyboard-response","116","1772755","0.0-6.0-15.5","28","<p><img class= 'stimulus' src='images/baseline/cyrillic.jpg'></img></p>","null","","1550712680918","","","","","","",""
"null","","html-keyboard-response","117","1772904","0.0-6.0-16.5","28","<p><img class= 'stimulus' src='images/baseline/building2.jpg'></img></p>","null","","1550712681067","","","","","","",""
"null","","html-keyboard-response","118","1773071","0.0-6.0-17.5","28","<p><img class= 'stimulus' src='images/baseline/04014v.jpg'></img></p>","null","","1550712681219","","","","","","",""
"1173.1999999901745","","html-button-response","119","1775247","0.0-6.0-18.5","28","<div class = ""response_question"">WAS THE IMAGE ROTATED...</div>","","3","","","4","2","bas","right","practice","true"
"1342.3000000184402","","html-button-response","120","1776592","0.0-6.0-0.6","28","","","0","","","","","","","",""
"null","","html-keyboard-response","121","1776720","0.0-6.0-1.6","28","<p><img class= 'stimulus' src='images/baseline/04284v.jpg'></img></p>","null","","1550712684884","","","","","","",""
"null","","html-keyboard-response","122","1776871","0.0-6.0-2.6","28","<p><img class= 'stimulus' src='images/baseline/farmhouse4.jpg'></img></p>","null","","1550712685033","","","","","","",""
"null","","html-keyboard-response","123","1777021","0.0-6.0-3.6","28","<p><img class= 'stimulus' src='images/baseline/landscape4.jpg'></img></p>","null","","1550712685184","","","","","","",""
"null","","html-keyboard-response","124","1777170","0.0-6.0-4.6","28","<p><img class= 'stimulus' src='images/baseline/city-silhouette-at-sunset-871291580819Esw.jpg'></img></p>","null","","1550712685335","4","","","","","",""
"null","","html-keyboard-response","125","1777321","0.0-6.0-5.6","28","<p><img class= 'stimulus' src='images/baseline/05186v.jpg'></img></p>","null","","1550712685485","","","","","","",""
"null","","html-keyboard-response","126","1777471","0.0-6.0-6.6","28","<p><img class= 'stimulus' src='images/baseline/seoul-410266_1920.jpg'></img></p>","null","","1550712685635","6","","","","","",""
"null","","html-keyboard-response","127","1777620","0.0-6.0-7.6","28","<p><img class= 'stimulus' src='images/baseline/03212v.jpg'></img></p>","null","","1550712685784","","","","","","",""
"null","","html-keyboard-response","128","1777770","0.0-6.0-8.6","28","<p><img class= 'stimulus' src='images/baseline/02945v.jpg'></img></p>","null","","1550712685934","8","","","","","",""
"null","","html-keyboard-response","129","1777928","0.0-6.0-9.6","28","<p><img class= 'stimulus' src='images/baseline/Nature 2.jpg'></img></p>","null","","1550712686083","","","","","","",""
"null","","html-keyboard-response","130","1778078","0.0-6.0-10.6","28","<p><img class= 'stimulus' src='images/baseline/Street 5.jpg'></img></p>","null","","1550712686241","","","","","","",""
"null","","html-keyboard-response","131","1778227","0.0-6.0-11.6","28","<p><img class= 'stimulus' src='images/baseline/pexels-photo-440731.jpeg'></img></p>","null","","1550712686392","","","","","","",""
"null","","html-keyboard-response","132","1778378","0.0-6.0-12.6","28","<p><img class= 'stimulus' src='images/baseline/agriculture-cereal-clouds-175389.jpg'></img></p>","null","","1550712686542","12","","","","","",""
"null","","html-keyboard-response","133","1778527","0.0-6.0-13.6","28","<p><img class= 'stimulus' src='images/baseline/road.jpg'></img></p>","null","","1550712686692","","","","","","",""
"null","","html-keyboard-response","134","1778678","0.0-6.0-14.6","28","<p><img class= 'stimulus' src='images/target/building5.jpg'></img></p>","null","","1550712686841","14","","","","","",""
"null","","html-keyboard-response","135","1778828","0.0-6.0-15.6","28","<p><img class= 'stimulus' src='images/baseline/03180v.jpg'></img></p>","null","","1550712686991","","","","","","",""
"null","","html-keyboard-response","136","1778978","0.0-6.0-16.6","28","<p><img class= 'stimulus' src='images/baseline/foreclosed_home.jpg'></img></p>","null","","1550712687141","","","","","","",""
"null","","html-keyboard-response","137","1779145","0.0-6.0-17.6","28","<p><img class= 'stimulus' src='images/baseline/03114v.jpg'></img></p>","null","","1550712687291","","","","","","",""
"1050.0000000174623","","html-button-response","138","1781199","0.0-6.0-18.6","28","<div class = ""response_question"">WAS THE IMAGE ROTATED...</div>","","3","","","6","8","bas","right","practice","true"
"3022.399999987101","","html-button-response","139","1784222","0.0-6.0-0.7","28","","","0","","","","","","","",""
"null","","html-keyboard-response","140","1784345","0.0-6.0-1.7","28","<p><img class= 'stimulus' src='images/baseline/03112v.jpg'></img></p>","null","","1550712692508","","","","","","",""
"null","","html-keyboard-response","141","1784494","0.0-6.0-2.7","28","<p><img class= 'stimulus' src='images/baseline/landscape12.jpg'></img></p>","null","","1550712692658","","","","","","",""
"null","","html-keyboard-response","142","1784645","0.0-6.0-3.7","28","<p><img class= 'stimulus' src='images/baseline/road 1(1).jpg'></img></p>","null","","1550712692808","","","","","","",""
"null","","html-keyboard-response","143","1784794","0.0-6.0-4.7","28","<p><img class= 'stimulus' src='images/baseline/red rocks from afar.jpg'></img></p>","null","","1550712692958","4","","","","","",""
"null","","html-keyboard-response","144","1784944","0.0-6.0-5.7","28","<p><img class= 'stimulus' src='images/baseline/05198v.jpg'></img></p>","null","","1550712693108","","","","","","",""
"null","","html-keyboard-response","145","1785094","0.0-6.0-6.7","28","<p><img class= 'stimulus' src='images/baseline/vintage-art-deco-storefront.jpg'></img></p>","null","","1550712693258","6","","","","","",""
"null","","html-keyboard-response","146","1785245","0.0-6.0-7.7","28","<p><img class= 'stimulus' src='images/baseline/field 2.jpg'></img></p>","null","","1550712693408","","","","","","",""
"null","","html-keyboard-response","147","1785395","0.0-6.0-8.7","28","<p><img class= 'stimulus' src='images/baseline/03148v.jpg'></img></p>","null","","1550712693559","8","","","","","",""
"null","","html-keyboard-response","148","1785546","0.0-6.0-9.7","28","<p><img class= 'stimulus' src='images/baseline/lake 1.jpg'></img></p>","null","","1550712693708","","","","","","",""
"null","","html-keyboard-response","149","1785694","0.0-6.0-10.7","28","<p><img class= 'stimulus' src='images/baseline/99_-_Machu_Picchu_-_Juin_2009.edit3.jpg'></img></p>","null","","1550712693858","","","","","","",""
"null","","html-keyboard-response","150","1785845","0.0-6.0-11.7","28","<p><img class= 'stimulus' src='images/baseline/pexels-photo-541101.jpeg'></img></p>","null","","1550712694008","","","","","","",""
"null","","html-keyboard-response","151","1785994","0.0-6.0-12.7","28","<p><img class= 'stimulus left-rotate' src='images/target/tree.jpeg'></img></p>","null","","1550712694158","12","","","","","",""
"null","","html-keyboard-response","152","1786145","0.0-6.0-13.7","28","<p><img class= 'stimulus' src='images/baseline/pexels-photo-1840893.jpeg'></img></p>","null","","1550712694308","","","","","","",""
"null","","html-keyboard-response","153","1786295","0.0-6.0-14.7","28","<p><img class= 'stimulus' src='images/baseline/house7.jpg'></img></p>","null","","1550712694457","14","","","","","",""
"null","","html-keyboard-response","154","1786445","0.0-6.0-15.7","28","<p><img class= 'stimulus' src='images/baseline/landscape14.jpg'></img></p>","null","","1550712694608","","","","","","",""
"null","","html-keyboard-response","155","1786595","0.0-6.0-16.7","28","<p><img class= 'stimulus' src='images/baseline/flooded-bridge.jpg'></img></p>","null","","1550712694757","","","","","","",""
"null","","html-keyboard-response","156","1786761","0.0-6.0-17.7","28","<p><img class= 'stimulus' src='images/baseline/landscape8.jpg'></img></p>","null","","1550712694908","","","","","","",""
"1551.3000000210013","","html-button-response","157","1789327","0.0-6.0-18.7","28","<div class = ""response_question"">WAS THE IMAGE ROTATED...</div>","","0","","","4","8","bas","left","practice","true"
"1013.9999999955762","","html-button-response","158","1790343","0.0-6.0-0.8","28","","","0","","","","","","","",""
"null","","html-keyboard-response","159","1790427","0.0-6.0-1.8","28","<p><img class= 'stimulus' src='images/baseline/04229v.jpg'></img></p>","null","","1550712698643","","","","","","",""
"null","","html-keyboard-response","160","1790528","0.0-6.0-2.8","28","<p><img class= 'stimulus' src='images/baseline/house10.jpg'></img></p>","null","","1550712698741","","","","","","",""
"null","","html-keyboard-response","161","1790628","0.0-6.0-3.8","28","<p><img class= 'stimulus' src='images/baseline/landscape33.jpg'></img></p>","null","","1550712698840","","","","","","",""
"null","","html-keyboard-response","162","1790728","0.0-6.0-4.8","28","<p><img class= 'stimulus' src='images/baseline/house2.jpg'></img></p>","null","","1550712698941","4","","","","","",""
"null","","html-keyboard-response","163","1790828","0.0-6.0-5.8","28","<p><img class= 'stimulus' src='images/baseline/Peyto_Lake-Banff_NP-Canada.jpg'></img></p>","null","","1550712699041","","","","","","",""
"null","","html-keyboard-response","164","1790928","0.0-6.0-6.8","28","<p><img class= 'stimulus' src='images/baseline/landscape37.jpg'></img></p>","null","","1550712699141","6","","","","","",""
"null","","html-keyboard-response","165","1791028","0.0-6.0-7.8","28","<p><img class= 'stimulus' src='images/baseline/pexels-photo-1837621.jpeg'></img></p>","null","","1550712699241","","","","","","",""
"null","","html-keyboard-response","166","1791128","0.0-6.0-8.8","28","<p><img class= 'stimulus' src='images/baseline/05161v.jpg'></img></p>","null","","1550712699342","8","","","","","",""
"null","","html-keyboard-response","167","1791228","0.0-6.0-9.8","28","<p><img class= 'stimulus' src='images/baseline/pexels-photo-210617.jpeg'></img></p>","null","","1550712699442","","","","","","",""
"null","","html-keyboard-response","168","1791328","0.0-6.0-10.8","28","<p><img class= 'stimulus' src='images/baseline/Niinsaare_jarv.jpg'></img></p>","null","","1550712699542","","","","","","",""
"null","","html-keyboard-response","169","1791427","0.0-6.0-11.8","28","<p><img class= 'stimulus' src='images/baseline/pexels-photo-221125.jpeg'></img></p>","null","","1550712699642","","","","","","",""
"null","","html-keyboard-response","170","1791528","0.0-6.0-12.8","28","<p><img class= 'stimulus' src='images/baseline/Skijump 1.jpg'></img></p>","null","","1550712699743","12","","","","","",""
"null","","html-keyboard-response","171","1791628","0.0-6.0-13.8","28","<p><img class= 'stimulus' src='images/baseline/Waterfall 1.jpg'></img></p>","null","","1550712699842","","","","","","",""
"null","","html-keyboard-response","172","1791728","0.0-6.0-14.8","28","<p><img class= 'stimulus left-rotate' src='images/target/tree-3563269_640.jpg'></img></p>","null","","1550712699941","14","","","","","",""
"null","","html-keyboard-response","173","1791828","0.0-6.0-15.8","28","<p><img class= 'stimulus' src='images/baseline/agriculture-countryside-crop-259280.jpg'></img></p>","null","","1550712700042","","","","","","",""
"null","","html-keyboard-response","174","1791928","0.0-6.0-16.8","28","<p><img class= 'stimulus' src='images/baseline/04193v.jpg'></img></p>","null","","1550712700142","","","","","","",""
"null","","html-keyboard-response","175","1792044","0.0-6.0-17.8","28","<p><img class= 'stimulus' src='images/baseline/Street 1.jpg'></img></p>","null","","1550712700241","","","","","","",""
"1387.0999999926426","","html-button-response","176","1794446","0.0-6.0-18.8","28","<div class = ""response_question"">WAS THE IMAGE ROTATED...</div>","","0","","","6","8","bas","left","practice","true"
"2894.4999999948777","","html-button-response","177","1797342","0.0-6.0-0.9","28","","","0","","","","","","","",""
"null","","html-keyboard-response","178","1797428","0.0-6.0-1.9","28","<p><img class= 'stimulus' src='images/baseline/03220v.jpg'></img></p>","null","","1550712705642","","","","","","",""
"null","","html-keyboard-response","179","1797528","0.0-6.0-2.9","28","<p><img class= 'stimulus' src='images/baseline/05145v.jpg'></img></p>","null","","1550712705742","","","","","","",""
"null","","html-keyboard-response","180","1797628","0.0-6.0-3.9","28","<p><img class= 'stimulus' src='images/baseline/sun-through-winter-tree-branches1.jpg'></img></p>","null","","1550712705842","","","","","","",""
"null","","html-keyboard-response","181","1797728","0.0-6.0-4.9","28","<p><img class= 'stimulus' src='images/baseline/05189v.jpg'></img></p>","null","","1550712705942","4","","","","","",""
"null","","html-keyboard-response","182","1797828","0.0-6.0-5.9","28","<p><img class= 'stimulus' src='images/baseline/house8.jpg'></img></p>","null","","1550712706041","","","","","","",""
"null","","html-keyboard-response","183","1797928","0.0-6.0-6.9","28","<p><img class= 'stimulus' src='images/baseline/04085v.jpg'></img></p>","null","","1550712706142","6","","","","","",""
"null","","html-keyboard-response","184","1798028","0.0-6.0-7.9","28","<p><img class= 'stimulus' src='images/baseline/04130v.jpg'></img></p>","null","","1550712706242","","","","","","",""
"null","","html-keyboard-response","185","1798130","0.0-6.0-8.9","28","<p><img class= 'stimulus' src='images/baseline/04196v.jpg'></img></p>","null","","1550712706342","8","","","","","",""
"null","","html-keyboard-response","186","1798229","0.0-6.0-9.9","28","<p><img class= 'stimulus' src='images/baseline/landscape11.jpg'></img></p>","null","","1550712706441","","","","","","",""
"null","","html-keyboard-response","187","1798329","0.0-6.0-10.9","28","<p><img class= 'stimulus' src='images/baseline/building16.jpg'></img></p>","null","","1550712706541","","","","","","",""
"null","","html-keyboard-response","188","1798429","0.0-6.0-11.9","28","<p><img class= 'stimulus' src='images/baseline/05264v.jpg'></img></p>","null","","1550712706642","","","","","","",""
"null","","html-keyboard-response","189","1798528","0.0-6.0-12.9","28","<p><img class= 'stimulus left-rotate' src='images/target/lone-tree-1934897_640.jpg'></img></p>","null","","1550712706742","12","","","","","",""
"null","","html-keyboard-response","190","1798628","0.0-6.0-13.9","28","<p><img class= 'stimulus' src='images/baseline/hills 1.jpg'></img></p>","null","","1550712706842","","","","","","",""
"null","","html-keyboard-response","191","1798728","0.0-6.0-14.9","28","<p><img class= 'stimulus' src='images/baseline/pexels-photo-459203.jpeg'></img></p>","null","","1550712706942","14","","","","","",""
"null","","html-keyboard-response","192","1798828","0.0-6.0-15.9","28","<p><img class= 'stimulus' src='images/baseline/pexels-photo-59321.jpeg'></img></p>","null","","1550712707041","","","","","","",""
"null","","html-keyboard-response","193","1798928","0.0-6.0-16.9","28","<p><img class= 'stimulus' src='images/baseline/05158v.jpg'></img></p>","null","","1550712707141","","","","","","",""
"null","","html-keyboard-response","194","1799044","0.0-6.0-17.9","28","<p><img class= 'stimulus' src='images/baseline/sunny-landscape-with-dry-brush-and-mountain-background.jpg'></img></p>","null","","1550712707241","","","","","","",""
"999.0999999863561","","html-button-response","195","1801046","0.0-6.0-18.9","28","<div class = ""response_question"">WAS THE IMAGE ROTATED...</div>","","0","","","4","8","bas","left","practice","true"
"1078.799999988405","","html-button-response","196","1802126","0.0-6.0-0.10","28","","","0","","","","","","","",""
"null","","html-keyboard-response","197","1802212","0.0-6.0-1.10","28","<p><img class= 'stimulus' src='images/baseline/03162v.jpg'></img></p>","null","","1550712710424","","","","","","",""
"null","","html-keyboard-response","198","1802312","0.0-6.0-2.10","28","<p><img class= 'stimulus' src='images/baseline/04021v.jpg'></img></p>","null","","1550712710525","","","","","","",""
"null","","html-keyboard-response","199","1802412","0.0-6.0-3.10","28","<p><img class= 'stimulus' src='images/baseline/hills 3.jpg'></img></p>","null","","1550712710625","","","","","","",""
"null","","html-keyboard-response","200","1802512","0.0-6.0-4.10","28","<p><img class= 'stimulus' src='images/baseline/Beach 8.jpg'></img></p>","null","","1550712710725","4","","","","","",""
"null","","html-keyboard-response","201","1802612","0.0-6.0-5.10","28","<p><img class= 'stimulus' src='images/baseline/05203v.jpg'></img></p>","null","","1550712710825","","","","","","",""
"null","","html-keyboard-response","202","1802712","0.0-6.0-6.10","28","<p><img class= 'stimulus' src='images/baseline/Kocherbaumwald-01.jpg'></img></p>","null","","1550712710925","6","","","","","",""
"null","","html-keyboard-response","203","1802811","0.0-6.0-7.10","28","<p><img class= 'stimulus' src='images/baseline/landscape35.jpg'></img></p>","null","","1550712711025","","","","","","",""
"null","","html-keyboard-response","204","1802912","0.0-6.0-8.10","28","<p><img class= 'stimulus' src='images/baseline/landscape1.jpg'></img></p>","null","","1550712711125","8","","","","","",""
"null","","html-keyboard-response","205","1803011","0.0-6.0-9.10","28","<p><img class= 'stimulus' src='images/baseline/Happy pose 3.jpg'></img></p>","null","","1550712711225","","","","","","",""
"null","","html-keyboard-response","206","1803111","0.0-6.0-10.10","28","<p><img class= 'stimulus' src='images/baseline/pexels-photo-1261728.jpeg'></img></p>","null","","1550712711325","","","","","","",""
"null","","html-keyboard-response","207","1803212","0.0-6.0-11.10","28","<p><img class= 'stimulus' src='images/baseline/landscape16.jpg'></img></p>","null","","1550712711425","","","","","","",""
"null","","html-keyboard-response","208","1803312","0.0-6.0-12.10","28","<p><img class= 'stimulus' src='images/target/1937-single-tree-at-the-top-of-stone-mountain-pv.jpg'></img></p>","null","","1550712711525","12","","","","","",""
"null","","html-keyboard-response","209","1803412","0.0-6.0-13.10","28","<p><img class= 'stimulus' src='images/baseline/Dock 1.jpg'></img></p>","null","","1550712711625","","","","","","",""
"null","","html-keyboard-response","210","1803512","0.0-6.0-14.10","28","<p><img class= 'stimulus' src='images/baseline/Aletschgletscher-Eggishorn.jpg'></img></p>","null","","1550712711725","14","","","","","",""
"null","","html-keyboard-response","211","1803612","0.0-6.0-15.10","28","<p><img class= 'stimulus' src='images/baseline/house6.jpg'></img></p>","null","","1550712711826","","","","","","",""
"null","","html-keyboard-response","212","1803711","0.0-6.0-16.10","28","<p><img class= 'stimulus' src='images/baseline/4k-wallpaper-agriculture-clouds-842711.jpg'></img></p>","null","","1550712711926","","","","","","",""
"null","","html-keyboard-response","213","1803829","0.0-6.0-17.10","28","<p><img class= 'stimulus' src='images/baseline/05240v.jpg'></img></p>","null","","1550712712025","","","","","","",""
"1349.000000016531","","html-button-response","214","1806183","0.0-6.0-18.10","28","<div class = ""response_question"">WAS THE IMAGE ROTATED...</div>","","3","","","4","8","bas","right","practice","true"
"1534.4000000040978","","html-button-response","215","1807719","0.0-6.0-0.11","28","","","0","","","","","","","",""
"null","","html-keyboard-response","216","1807795","0.0-6.0-1.11","28","<p><img class= 'stimulus' src='images/baseline/landscape29.jpg'></img></p>","null","","1550712716008","","","","","","",""
"null","","html-keyboard-response","217","1807895","0.0-6.0-2.11","28","<p><img class= 'stimulus' src='images/baseline/Lake 4.jpg'></img></p>","null","","1550712716109","","","","","","",""
"null","","html-keyboard-response","218","1807995","0.0-6.0-3.11","28","<p><img class= 'stimulus' src='images/baseline/landscape34.jpg'></img></p>","null","","1550712716208","","","","","","",""
"null","","html-keyboard-response","219","1808095","0.0-6.0-4.11","28","<p><img class= 'stimulus' src='images/baseline/Lake 16.jpg'></img></p>","null","","1550712716308","4","","","","","",""
"null","","html-keyboard-response","220","1808195","0.0-6.0-5.11","28","<p><img class= 'stimulus' src='images/baseline/Sunset 5.jpg'></img></p>","null","","1550712716409","","","","","","",""
"null","","html-keyboard-response","221","1808296","0.0-6.0-6.11","28","<p><img class= 'stimulus' src='images/target/pexels-photo-236294.jpeg'></img></p>","null","","1550712716508","6","","","","","",""
"null","","html-keyboard-response","222","1808395","0.0-6.0-7.11","28","<p><img class= 'stimulus' src='images/baseline/architecture_modern_architecture_852928.jpg'></img></p>","null","","1550712716609","","","","","","",""
"null","","html-keyboard-response","223","1808494","0.0-6.0-8.11","28","<p><img class= 'stimulus' src='images/baseline/cranes 1.jpg'></img></p>","null","","1550712716709","8","","","","","",""
"null","","html-keyboard-response","224","1808595","0.0-6.0-9.11","28","<p><img class= 'stimulus' src='images/baseline/03204v.jpg'></img></p>","null","","1550712716810","","","","","","",""
"null","","html-keyboard-response","225","1808694","0.0-6.0-10.11","28","<p><img class= 'stimulus' src='images/baseline/03098v.jpg'></img></p>","null","","1550712716909","","","","","","",""
"null","","html-keyboard-response","226","1808794","0.0-6.0-11.11","28","<p><img class= 'stimulus' src='images/baseline/04040v.jpg'></img></p>","null","","1550712717009","","","","","","",""
"null","","html-keyboard-response","227","1808895","0.0-6.0-12.11","28","<p><img class= 'stimulus' src='images/baseline/03075v.jpg'></img></p>","null","","1550712717108","12","","","","","",""
"null","","html-keyboard-response","228","1808995","0.0-6.0-13.11","28","<p><img class= 'stimulus' src='images/baseline/04222v.jpg'></img></p>","null","","1550712717209","","","","","","",""
"null","","html-keyboard-response","229","1809095","0.0-6.0-14.11","28","<p><img class= 'stimulus' src='images/baseline/river 1.jpg'></img></p>","null","","1550712717308","14","","","","","",""
"null","","html-keyboard-response","230","1809195","0.0-6.0-15.11","28","<p><img class= 'stimulus' src='images/baseline/04158v.jpg'></img></p>","null","","1550712717408","","","","","","",""
"null","","html-keyboard-response","231","1809295","0.0-6.0-16.11","28","<p><img class= 'stimulus' src='images/baseline/02988v.jpg'></img></p>","null","","1550712717509","","","","","","",""
"null","","html-keyboard-response","232","1809412","0.0-6.0-17.11","28","<p><img class= 'stimulus' src='images/baseline/dirt-road-or-trail-through-park.jpg'></img></p>","null","","1550712717610","","","","","","",""
"943.200000008801","","html-button-response","233","1811359","0.0-6.0-18.11","28","<div class = ""response_question"">WAS THE IMAGE ROTATED...</div>","","3","","","4","2","bas","right","practice","true"
"1102.500000008149","","html-button-response","234","1812463","0.0-6.0-0.12","28","","","0","","","","","","","",""
"null","","html-keyboard-response","235","1812545","0.0-6.0-1.12","28","<p><img class= 'stimulus' src='images/baseline/building8.jpg'></img></p>","null","","1550712720759","","","","","","",""
"null","","html-keyboard-response","236","1812644","0.0-6.0-2.12","28","<p><img class= 'stimulus' src='images/baseline/Lake 14.jpg'></img></p>","null","","1550712720858","","","","","","",""
"null","","html-keyboard-response","237","1812745","0.0-6.0-3.12","28","<p><img class= 'stimulus' src='images/baseline/Nature 1.jpg'></img></p>","null","","1550712720959","","","","","","",""
"null","","html-keyboard-response","238","1812846","0.0-6.0-4.12","28","<p><img class= 'stimulus' src='images/baseline/agriculture-bright-clouds-440731.jpg'></img></p>","null","","1550712721058","4","","","","","",""
"null","","html-keyboard-response","239","1812945","0.0-6.0-5.12","28","<p><img class= 'stimulus' src='images/baseline/landscape22.jpg'></img></p>","null","","1550712721158","","","","","","",""
"null","","html-keyboard-response","240","1813045","0.0-6.0-6.12","28","<p><img class= 'stimulus left-rotate' src='images/target/cactus1.jpg'></img></p>","null","","1550712721259","6","","","","","",""
"null","","html-keyboard-response","241","1813146","0.0-6.0-7.12","28","<p><img class= 'stimulus' src='images/baseline/landscape15.jpg'></img></p>","null","","1550712721358","","","","","","",""
"null","","html-keyboard-response","242","1813245","0.0-6.0-8.12","28","<p><img class= 'stimulus' src='images/baseline/03066v.jpg'></img></p>","null","","1550712721459","8","","","","","",""
"null","","html-keyboard-response","243","1813347","0.0-6.0-9.12","28","<p><img class= 'stimulus' src='images/baseline/building4.jpg'></img></p>","null","","1550712721558","","","","","","",""
"null","","html-keyboard-response","244","1813446","0.0-6.0-10.12","28","<p><img class= 'stimulus' src='images/baseline/Lake 5.jpg'></img></p>","null","","1550712721658","","","","","","",""
"null","","html-keyboard-response","245","1813545","0.0-6.0-11.12","28","<p><img class= 'stimulus' src='images/baseline/pexels-photo-894312.jpeg'></img></p>","null","","1550712721759","","","","","","",""
"null","","html-keyboard-response","246","1813645","0.0-6.0-12.12","28","<p><img class= 'stimulus' src='images/baseline/landscape40.jpg'></img></p>","null","","1550712721859","12","","","","","",""
"null","","html-keyboard-response","247","1813745","0.0-6.0-13.12","28","<p><img class= 'stimulus' src='images/baseline/field 3.jpg'></img></p>","null","","1550712721958","","","","","","",""
"null","","html-keyboard-response","248","1813845","0.0-6.0-14.12","28","<p><img class= 'stimulus' src='images/baseline/farmhouse3.jpg'></img></p>","null","","1550712722058","14","","","","","",""
"null","","html-keyboard-response","249","1813945","0.0-6.0-15.12","28","<p><img class= 'stimulus' src='images/baseline/bird-flying-at-sunset.jpg'></img></p>","null","","1550712722158","","","","","","",""
"null","","html-keyboard-response","250","1814045","0.0-6.0-16.12","28","<p><img class= 'stimulus' src='images/baseline/building3.jpg'></img></p>","null","","1550712722258","","","","","","",""
"null","","html-keyboard-response","251","1814162","0.0-6.0-17.12","28","<p><img class= 'stimulus' src='images/baseline/church-silhouette-8712964986014Kb.jpg'></img></p>","null","","1550712722358","","","","","","",""
"1137.6000000163913","","html-button-response","252","1816303","0.0-6.0-18.12","28","<div class = ""response_question"">WAS THE IMAGE ROTATED...</div>","","0","","","4","2","bas","left","practice","true"
"2022.3000000114553","","html-button-response","253","1818326","0.0-6.0-0.13","28","","","0","","","","","","","",""
"null","","html-keyboard-response","254","1818412","0.0-6.0-1.13","28","<p><img class= 'stimulus' src='images/baseline/02960v.jpg'></img></p>","null","","1550712726625","","","","","","",""
"null","","html-keyboard-response","255","1818512","0.0-6.0-2.13","28","<p><img class= 'stimulus' src='images/baseline/meadow-with-mountain-in-background.jpg'></img></p>","null","","1550712726725","","","","","","",""
"null","","html-keyboard-response","256","1818612","0.0-6.0-3.13","28","<p><img class= 'stimulus' src='images/baseline/horse_statue.jpg'></img></p>","null","","1550712726825","","","","","","",""
"null","","html-keyboard-response","257","1818712","0.0-6.0-4.13","28","<p><img class= 'stimulus' src='images/baseline/Sunset 4.jpg'></img></p>","null","","1550712726925","4","","","","","",""
"null","","html-keyboard-response","258","1818812","0.0-6.0-5.13","28","<p><img class= 'stimulus' src='images/baseline/Lake 3.jpg'></img></p>","null","","1550712727025","","","","","","",""
"null","","html-keyboard-response","259","1818911","0.0-6.0-6.13","28","<p><img class= 'stimulus' src='images/baseline/landscape3.jpg'></img></p>","null","","1550712727125","6","","","","","",""
"null","","html-keyboard-response","260","1819011","0.0-6.0-7.13","28","<p><img class= 'stimulus' src='images/baseline/farmhouse1.jpg'></img></p>","null","","1550712727225","","","","","","",""
"null","","html-keyboard-response","261","1819112","0.0-6.0-8.13","28","<p><img class= 'stimulus' src='images/target/building4.jpg'></img></p>","null","","1550712727325","8","","","","","",""
"null","","html-keyboard-response","262","1819212","0.0-6.0-9.13","28","<p><img class= 'stimulus' src='images/baseline/Bahia_Onelli_Parque_Nacional_Los_Glaciares_Patagonia_Argentina_Luca_Galuzzi_2005.jpg'></img></p>","null","","1550712727425","","","","","","",""
"null","","html-keyboard-response","263","1819312","0.0-6.0-10.13","28","<p><img class= 'stimulus' src='images/baseline/geese-flying-over-lake-at-dusk.jpg'></img></p>","null","","1550712727526","","","","","","",""
"null","","html-keyboard-response","264","1819412","0.0-6.0-11.13","28","<p><img class= 'stimulus' src='images/baseline/landscape19.jpg'></img></p>","null","","1550712727626","","","","","","",""
"null","","html-keyboard-response","265","1819512","0.0-6.0-12.13","28","<p><img class= 'stimulus' src='images/baseline/grand-teton-mountains.jpg'></img></p>","null","","1550712727725","12","","","","","",""
"null","","html-keyboard-response","266","1819612","0.0-6.0-13.13","28","<p><img class= 'stimulus' src='images/baseline/landscape39.jpg'></img></p>","null","","1550712727825","","","","","","",""
"null","","html-keyboard-response","267","1819712","0.0-6.0-14.13","28","<p><img class= 'stimulus' src='images/baseline/Sidewalk 4.jpg'></img></p>","null","","1550712727927","14","","","","","",""
"null","","html-keyboard-response","268","1819812","0.0-6.0-15.13","28","<p><img class= 'stimulus' src='images/baseline/lone-old-cottonwood-tree.jpg'></img></p>","null","","1550712728026","","","","","","",""
"null","","html-keyboard-response","269","1819913","0.0-6.0-16.13","28","<p><img class= 'stimulus' src='images/baseline/landscape38.jpg'></img></p>","null","","1550712728126","","","","","","",""
"null","","html-keyboard-response","270","1820029","0.0-6.0-17.13","28","<p><img class= 'stimulus' src='images/baseline/landscape31.jpg'></img></p>","null","","1550712728226","","","","","","",""
"1046.7000000062399","","html-button-response","271","1822079","0.0-6.0-18.13","28","<div class = ""response_question"">WAS THE IMAGE ROTATED...</div>","","3","","","6","2","bas","right","practice","true"
"1126.4000000082888","","html-button-response","272","1823207","0.0-6.0-0.14","28","","","0","","","","","","","",""
"null","","html-keyboard-response","273","1823278","0.0-6.0-1.14","28","<p><img class= 'stimulus' src='images/baseline/Paysage_karabagh_02.jpg'></img></p>","null","","1550712731491","","","","","","",""
"null","","html-keyboard-response","274","1823378","0.0-6.0-2.14","28","<p><img class= 'stimulus' src='images/baseline/building9.jpg'></img></p>","null","","1550712731592","","","","","","",""
"null","","html-keyboard-response","275","1823479","0.0-6.0-3.14","28","<p><img class= 'stimulus' src='images/baseline/field 4.jpg'></img></p>","null","","1550712731692","","","","","","",""
"null","","html-keyboard-response","276","1823578","0.0-6.0-4.14","28","<p><img class= 'stimulus' src='images/baseline/04063v.jpg'></img></p>","null","","1550712731792","4","","","","","",""
"null","","html-keyboard-response","277","1823678","0.0-6.0-5.14","28","<p><img class= 'stimulus' src='images/baseline/architecture-1314416_1920.jpg'></img></p>","null","","1550712731892","","","","","","",""
"null","","html-keyboard-response","278","1823778","0.0-6.0-6.14","28","<p><img class= 'stimulus' src='images/baseline/03045v.jpg'></img></p>","null","","1550712731992","6","","","","","",""
"null","","html-keyboard-response","279","1823878","0.0-6.0-7.14","28","<p><img class= 'stimulus' src='images/baseline/05292v.jpg'></img></p>","null","","1550712732091","","","","","","",""
"null","","html-keyboard-response","280","1823979","0.0-6.0-8.14","28","<p><img class= 'stimulus' src='images/baseline/Grass 6.jpg'></img></p>","null","","1550712732191","8","","","","","",""
"null","","html-keyboard-response","281","1824079","0.0-6.0-9.14","28","<p><img class= 'stimulus' src='images/baseline/Cold 7.jpg'></img></p>","null","","1550712732292","","","","","","",""
"null","","html-keyboard-response","282","1824178","0.0-6.0-10.14","28","<p><img class= 'stimulus' src='images/baseline/autumn-landscape-with-lake-fall-trees-mountains.jpg'></img></p>","null","","1550712732392","","","","","","",""
"null","","html-keyboard-response","283","1824279","0.0-6.0-11.14","28","<p><img class= 'stimulus' src='images/baseline/__08_-_ITALY_-_Forli_under_snow_-_winter_landscape_of_city_(christmas).jpg'></img></p>","null","","1550712732491","","","","","","",""
"null","","html-keyboard-response","284","1824379","0.0-6.0-12.14","28","<p><img class= 'stimulus' src='images/baseline/04098v.jpg'></img></p>","null","","1550712732592","12","","","","","",""
"null","","html-keyboard-response","285","1824478","0.0-6.0-13.14","28","<p><img class= 'stimulus' src='images/baseline/chicago-skyline-at-night-1476869511p8U.jpg'></img></p>","null","","1550712732692","","","","","","",""
"null","","html-keyboard-response","286","1824579","0.0-6.0-14.14","28","<p><img class= 'stimulus' src='images/target/building15.jpg'></img></p>","null","","1550712732792","14","","","","","",""
"null","","html-keyboard-response","287","1824679","0.0-6.0-15.14","28","<p><img class= 'stimulus' src='images/baseline/pexels-photo-1287089.jpeg'></img></p>","null","","1550712732893","","","","","","",""
"null","","html-keyboard-response","288","1824778","0.0-6.0-16.14","28","<p><img class= 'stimulus' src='images/baseline/Sailing 3.jpg'></img></p>","null","","1550712732992","","","","","","",""
"null","","html-keyboard-response","289","1824896","0.0-6.0-17.14","28","<p><img class= 'stimulus' src='images/baseline/pexels-photo-1048039.jpeg'></img></p>","null","","1550712733092","","","","","","",""
"1004.5000000100117","","html-button-response","290","1826903","0.0-6.0-18.14","28","<div class = ""response_question"">WAS THE IMAGE ROTATED...</div>","","3","","","6","8","bas","right","practice","true"
"1022.2000000067055","","html-button-response","291","1827926","0.0-6.0-0.15","28","","","0","","","","","","","",""
"null","","html-keyboard-response","292","1828012","0.0-6.0-1.15","28","<p><img class= 'stimulus' src='images/baseline/02982v.jpg'></img></p>","null","","1550712736225","","","","","","",""
"null","","html-keyboard-response","293","1828112","0.0-6.0-2.15","28","<p><img class= 'stimulus' src='images/baseline/04162v.jpg'></img></p>","null","","1550712736325","","","","","","",""
"null","","html-keyboard-response","294","1828212","0.0-6.0-3.15","28","<p><img class= 'stimulus' src='images/baseline/Lake 8.jpg'></img></p>","null","","1550712736425","","","","","","",""
"null","","html-keyboard-response","295","1828312","0.0-6.0-4.15","28","<p><img class= 'stimulus' src='images/baseline/Dirt 2.jpg'></img></p>","null","","1550712736525","4","","","","","",""
"null","","html-keyboard-response","296","1828412","0.0-6.0-5.15","28","<p><img class= 'stimulus' src='images/baseline/pexels-photo-259280.jpeg'></img></p>","null","","1550712736625","","","","","","",""
"null","","html-keyboard-response","297","1828512","0.0-6.0-6.15","28","<p><img class= 'stimulus' src='images/baseline/03201v.jpg'></img></p>","null","","1550712736726","6","","","","","",""
"null","","html-keyboard-response","298","1828613","0.0-6.0-7.15","28","<p><img class= 'stimulus' src='images/baseline/04086v.jpg'></img></p>","null","","1550712736825","","","","","","",""
"null","","html-keyboard-response","299","1828711","0.0-6.0-8.15","28","<p><img class= 'stimulus left-rotate' src='images/target/transamerica-pyramid-530061_640.jpg'></img></p>","null","","1550712736926","8","","","","","",""
"null","","html-keyboard-response","300","1828812","0.0-6.0-9.15","28","<p><img class= 'stimulus' src='images/baseline/house3.jpg'></img></p>","null","","1550712737026","","","","","","",""
"null","","html-keyboard-response","301","1828912","0.0-6.0-10.15","28","<p><img class= 'stimulus' src='images/baseline/pexels-photo-750108.jpeg'></img></p>","null","","1550712737125","","","","","","",""
"null","","html-keyboard-response","302","1829012","0.0-6.0-11.15","28","<p><img class= 'stimulus' src='images/baseline/house11.jpg'></img></p>","null","","1550712737225","","","","","","",""
"null","","html-keyboard-response","303","1829112","0.0-6.0-12.15","28","<p><img class= 'stimulus' src='images/baseline/Road 1.jpg'></img></p>","null","","1550712737325","12","","","","","",""
"null","","html-keyboard-response","304","1829212","0.0-6.0-13.15","28","<p><img class= 'stimulus' src='images/baseline/house1.jpg'></img></p>","null","","1550712737425","","","","","","",""
"null","","html-keyboard-response","305","1829312","0.0-6.0-14.15","28","<p><img class= 'stimulus' src='images/baseline/farmhouse8.jpg'></img></p>","null","","1550712737525","14","","","","","",""
"null","","html-keyboard-response","306","1829412","0.0-6.0-15.15","28","<p><img class= 'stimulus' src='images/baseline/03041v.jpg'></img></p>","null","","1550712737626","","","","","","",""
"null","","html-keyboard-response","307","1829513","0.0-6.0-16.15","28","<p><img class= 'stimulus' src='images/baseline/Happy pose 3.jpg'></img></p>","null","","1550712737726","","","","","","",""
"null","","html-keyboard-response","308","1829628","0.0-6.0-17.15","28","<p><img class= 'stimulus' src='images/baseline/house7.jpg'></img></p>","null","","1550712737826","","","","","","",""
"1076.3999999908265","","html-button-response","309","1831718","0.0-6.0-18.15","28","<div class = ""response_question"">WAS THE IMAGE ROTATED...</div>","","0","","","6","2","bas","left","practice","true"
"92262.59999998729","","html-button-response","310","1923974","0.0-7.0","28","<p>You have now completed the practice phase. We will now begin the real trials.         This is a reminder that you will be searching for a rotated image among the series of upright images.</p>         <p>Remember, please do not blink or move your eyes while the images are on the screen.</p>         <p>At the end of the experiment, the experimenter will be able to show you how accurate you were.</p>","","0","","","","","","","",""
"2998.9000000059605","","html-button-response","311","1926974","0.0-8.0-0.0-0.0","28","","","0","","","","","","","",""
"null","","html-keyboard-response","312","1927055","0.0-8.0-0.0-1.0","28","<p><img class= 'stimulus' src='images/baseline/building9.jpg'></img></p>","null","","1550712835268","","","","","","",""
"null","","html-keyboard-response","313","1927155","0.0-8.0-0.0-2.0","28","<p><img class= 'stimulus' src='images/baseline/05240v.jpg'></img></p>","null","","1550712835367","","","","","","",""
"null","","html-keyboard-response","314","1927255","0.0-8.0-0.0-3.0","28","<p><img class= 'stimulus' src='images/baseline/hiking-trail.jpg'></img></p>","null","","1550712835468","","","","","","",""
"null","","html-keyboard-response","315","1927355","0.0-8.0-0.0-4.0","28","<p><img class= 'stimulus' src='images/baseline/04040v.jpg'></img></p>","null","","1550712835568","4","","","","","",""
"null","","html-keyboard-response","316","1927454","0.0-8.0-0.0-5.0","28","<p><img class= 'stimulus' src='images/baseline/landscape35.jpg'></img></p>","null","","1550712835668","","","","","","",""
"null","","html-keyboard-response","317","1927555","0.0-8.0-0.0-6.0","28","<p><img class= 'stimulus' src='images/negative/Snake 3.jpg'></img></p>","null","","1550712835768","6","","","","","",""
"null","","html-keyboard-response","318","1927655","0.0-8.0-0.0-7.0","28","<p><img class= 'stimulus' src='images/baseline/Path 1.jpg'></img></p>","null","","1550712835868","","","","","","",""
"null","","html-keyboard-response","319","1927754","0.0-8.0-0.0-8.0","28","<p><img class= 'stimulus' src='images/target/palm-trees-1209125_640.jpg'></img></p>","null","","1550712835968","8","","","","","",""
"null","","html-keyboard-response","320","1927854","0.0-8.0-0.0-9.0","28","<p><img class= 'stimulus' src='images/baseline/landscape1.jpg'></img></p>","null","","1550712836067","","","","","","",""
"null","","html-keyboard-response","321","1927954","0.0-8.0-0.0-10.0","28","<p><img class= 'stimulus' src='images/baseline/house11.jpg'></img></p>","null","","1550712836168","","","","","","",""
"null","","html-keyboard-response","322","1928054","0.0-8.0-0.0-11.0","28","<p><img class= 'stimulus' src='images/baseline/Street 4.jpg'></img></p>","null","","1550712836267","","","","","","",""
"null","","html-keyboard-response","323","1928154","0.0-8.0-0.0-12.0","28","<p><img class= 'stimulus' src='images/baseline/landscape29.jpg'></img></p>","null","","1550712836367","12","","","","","",""
"null","","html-keyboard-response","324","1928255","0.0-8.0-0.0-13.0","28","<p><img class= 'stimulus' src='images/baseline/04031v.jpg'></img></p>","null","","1550712836468","","","","","","",""
"null","","html-keyboard-response","325","1928355","0.0-8.0-0.0-14.0","28","<p><img class= 'stimulus' src='images/baseline/pexels-photo-1287089.jpeg'></img></p>","null","","1550712836567","14","","","","","",""
"null","","html-keyboard-response","326","1928456","0.0-8.0-0.0-15.0","28","<p><img class= 'stimulus' src='images/baseline/Street 5.jpg'></img></p>","null","","1550712836668","","","","","","",""
"null","","html-keyboard-response","327","1928554","0.0-8.0-0.0-16.0","28","<p><img class= 'stimulus' src='images/baseline/house10.jpg'></img></p>","null","","1550712836768","","","","","","",""
"null","","html-keyboard-response","328","1928671","0.0-8.0-0.0-17.0","28","<p><img class= 'stimulus' src='images/baseline/sun-through-winter-tree-branches1.jpg'></img></p>","null","","1550712836869","","","","","","",""
"1267.6999999966938","","html-button-response","329","1930943","0.0-8.0-0.0-18.0","28","<div class = ""response_question"">WAS THE IMAGE ROTATED...</div>","","3","","","6","2","neg","right","test","true"
"1974.2000000260305","","html-button-response","330","1932918","0.0-8.0-0.0-0.1","28","","","0","","","","","","","",""
"null","","html-keyboard-response","331","1933005","0.0-8.0-0.0-1.1","28","<p><img class= 'stimulus' src='images/baseline/Skyscraper 1.jpg'></img></p>","null","","1550712841218","","","","","","",""
"null","","html-keyboard-response","332","1933105","0.0-8.0-0.0-2.1","28","<p><img class= 'stimulus' src='images/baseline/Sailing 3.jpg'></img></p>","null","","1550712841318","","","","","","",""
"null","","html-keyboard-response","333","1933204","0.0-8.0-0.0-3.1","28","<p><img class= 'stimulus' src='images/baseline/Beach 2.jpg'></img></p>","null","","1550712841417","","","","","","",""
"null","","html-keyboard-response","334","1933306","0.0-8.0-0.0-4.1","28","<p><img class= 'stimulus' src='images/negative/Shot 3.jpg'></img></p>","null","","1550712841519","4","","","","","",""
"null","","html-keyboard-response","335","1933405","0.0-8.0-0.0-5.1","28","<p><img class= 'stimulus' src='images/baseline/05242v.jpg'></img></p>","null","","1550712841618","","","","","","",""
"null","","html-keyboard-response","336","1933504","0.0-8.0-0.0-6.1","28","<p><img class= 'stimulus' src='images/baseline/02982v.jpg'></img></p>","null","","1550712841718","6","","","","","",""
"null","","html-keyboard-response","337","1933605","0.0-8.0-0.0-7.1","28","<p><img class= 'stimulus' src='images/baseline/Beach 3.jpg'></img></p>","null","","1550712841818","","","","","","",""
"null","","html-keyboard-response","338","1933705","0.0-8.0-0.0-8.1","28","<p><img class= 'stimulus' src='images/baseline/agriculture-cereal-clouds-175389.jpg'></img></p>","null","","1550712841918","8","","","","","",""
"null","","html-keyboard-response","339","1933804","0.0-8.0-0.0-9.1","28","<p><img class= 'stimulus' src='images/baseline/architecture_modern_architecture_852928.jpg'></img></p>","null","","1550712842020","","","","","","",""
"null","","html-keyboard-response","340","1933904","0.0-8.0-0.0-10.1","28","<p><img class= 'stimulus' src='images/baseline/Lake 4.jpg'></img></p>","null","","1550712842117","","","","","","",""
"null","","html-keyboard-response","341","1934005","0.0-8.0-0.0-11.1","28","<p><img class= 'stimulus' src='images/baseline/landscape33.jpg'></img></p>","null","","1550712842217","","","","","","",""
"null","","html-keyboard-response","342","1934104","0.0-8.0-0.0-12.1","28","<p><img class= 'stimulus left-rotate' src='images/target/Tree-Landscape-Winter-Nature-Winter-Trees-Snow-2117951.jpg'></img></p>","null","","1550712842318","12","","","","","",""
"null","","html-keyboard-response","343","1934205","0.0-8.0-0.0-13.1","28","<p><img class= 'stimulus' src='images/baseline/field 2.jpg'></img></p>","null","","1550712842418","","","","","","",""
"null","","html-keyboard-response","344","1934305","0.0-8.0-0.0-14.1","28","<p><img class= 'stimulus' src='images/baseline/05203v.jpg'></img></p>","null","","1550712842518","14","","","","","",""
"null","","html-keyboard-response","345","1934405","0.0-8.0-0.0-15.1","28","<p><img class= 'stimulus' src='images/baseline/building8.jpg'></img></p>","null","","1550712842617","","","","","","",""
"null","","html-keyboard-response","346","1934504","0.0-8.0-0.0-16.1","28","<p><img class= 'stimulus' src='images/baseline/foreclosed_home.jpg'></img></p>","null","","1550712842719","","","","","","",""
"null","","html-keyboard-response","347","1934620","0.0-8.0-0.0-17.1","28","<p><img class= 'stimulus' src='images/baseline/Nature 2.jpg'></img></p>","null","","1550712842818","","","","","","",""
"948.900000017602","","html-button-response","348","1936582","0.0-8.0-0.0-18.1","28","<div class = ""response_question"">WAS THE IMAGE ROTATED...</div>","","0","","","4","8","neg","left","test","true"
"2406.4000000071246","","html-button-response","349","1938990","0.0-8.0-0.0-0.2","28","","","0","","","","","","","",""
"null","","html-keyboard-response","350","1939071","0.0-8.0-0.0-1.2","28","<p><img class= 'stimulus' src='images/baseline/horse_statue.jpg'></img></p>","null","","1550712847284","","","","","","",""
"null","","html-keyboard-response","351","1939171","0.0-8.0-0.0-2.2","28","<p><img class= 'stimulus' src='images/baseline/05158v.jpg'></img></p>","null","","1550712847385","","","","","","",""
"null","","html-keyboard-response","352","1939270","0.0-8.0-0.0-3.2","28","<p><img class= 'stimulus' src='images/baseline/04085v.jpg'></img></p>","null","","1550712847486","","","","","","",""
"null","","html-keyboard-response","353","1939371","0.0-8.0-0.0-4.2","28","<p><img class= 'stimulus' src='images/baseline/landscape14.jpg'></img></p>","null","","1550712847585","4","","","","","",""
"null","","html-keyboard-response","354","1939472","0.0-8.0-0.0-5.2","28","<p><img class= 'stimulus' src='images/baseline/03075v.jpg'></img></p>","null","","1550712847685","","","","","","",""
"null","","html-keyboard-response","355","1939572","0.0-8.0-0.0-6.2","28","<p><img class= 'stimulus left-rotate' src='images/target/pexels-photo-210683.jpeg'></img></p>","null","","1550712847785","6","","","","","",""
"null","","html-keyboard-response","356","1939670","0.0-8.0-0.0-7.2","28","<p><img class= 'stimulus' src='images/baseline/04130v.jpg'></img></p>","null","","1550712847886","","","","","","",""
"null","","html-keyboard-response","357","1939771","0.0-8.0-0.0-8.2","28","<p><img class= 'stimulus' src='images/baseline/house2.jpg'></img></p>","null","","1550712847984","8","","","","","",""
"null","","html-keyboard-response","358","1939871","0.0-8.0-0.0-9.2","28","<p><img class= 'stimulus' src='images/baseline/river 1.jpg'></img></p>","null","","1550712848084","","","","","","",""
"null","","html-keyboard-response","359","1939971","0.0-8.0-0.0-10.2","28","<p><img class= 'stimulus' src='images/baseline/landscape22.jpg'></img></p>","null","","1550712848184","","","","","","",""
"null","","html-keyboard-response","360","1940072","0.0-8.0-0.0-11.2","28","<p><img class= 'stimulus' src='images/baseline/snowy tree.jpg'></img></p>","null","","1550712848285","","","","","","",""
"null","","html-keyboard-response","361","1940171","0.0-8.0-0.0-12.2","28","<p><img class= 'stimulus' src='images/baseline/landscape37.jpg'></img></p>","null","","1550712848385","12","","","","","",""
"null","","html-keyboard-response","362","1940271","0.0-8.0-0.0-13.2","28","<p><img class= 'stimulus' src='images/baseline/landscape40.jpg'></img></p>","null","","1550712848484","","","","","","",""
"null","","html-keyboard-response","363","1940370","0.0-8.0-0.0-14.2","28","<p><img class= 'stimulus' src='images/baseline/04021v.jpg'></img></p>","null","","1550712848584","14","","","","","",""
"null","","html-keyboard-response","364","1940471","0.0-8.0-0.0-15.2","28","<p><img class= 'stimulus' src='images/baseline/pexels-photo-1054289.jpeg'></img></p>","null","","1550712848685","","","","","","",""
"null","","html-keyboard-response","365","1940572","0.0-8.0-0.0-16.2","28","<p><img class= 'stimulus' src='images/baseline/landscape19.jpg'></img></p>","null","","1550712848785","","","","","","",""
"null","","html-keyboard-response","366","1940687","0.0-8.0-0.0-17.2","28","<p><img class= 'stimulus' src='images/baseline/house1.jpg'></img></p>","null","","1550712848886","","","","","","",""
"1253.2000000064727","","html-button-response","367","1942959","0.0-8.0-0.0-18.2","28","<div class = ""response_question"">WAS THE IMAGE ROTATED...</div>","","1","","","4","2","bas","left","test","true"
"1438.3000000088941","","html-button-response","368","1944398","0.0-8.0-0.0-0.3","28","","","0","","","","","","","",""
"null","","html-keyboard-response","369","1944472","0.0-8.0-0.0-1.3","28","<p><img class= 'stimulus' src='images/baseline/bird-flying-at-sunset.jpg'></img></p>","null","","1550712852684","","","","","","",""
"null","","html-keyboard-response","370","1944571","0.0-8.0-0.0-2.3","28","<p><img class= 'stimulus' src='images/baseline/Street 2.jpg'></img></p>","null","","1550712852784","","","","","","",""
"null","","html-keyboard-response","371","1944672","0.0-8.0-0.0-3.3","28","<p><img class= 'stimulus' src='images/baseline/road.jpg'></img></p>","null","","1550712852885","","","","","","",""
"null","","html-keyboard-response","372","1944771","0.0-8.0-0.0-4.3","28","<p><img class= 'stimulus' src='images/baseline/lake 1.jpg'></img></p>","null","","1550712852984","4","","","","","",""
"null","","html-keyboard-response","373","1944870","0.0-8.0-0.0-5.3","28","<p><img class= 'stimulus' src='images/baseline/Nature 1.jpg'></img></p>","null","","1550712853085","","","","","","",""
"null","","html-keyboard-response","374","1944971","0.0-8.0-0.0-6.3","28","<p><img class= 'stimulus' src='images/negative/Boxing 1.jpg'></img></p>","null","","1550712853185","6","","","","","",""
"null","","html-keyboard-response","375","1945071","0.0-8.0-0.0-7.3","28","<p><img class= 'stimulus' src='images/baseline/Paysage_enneige_02.jpg'></img></p>","null","","1550712853285","","","","","","",""
"null","","html-keyboard-response","376","1945171","0.0-8.0-0.0-8.3","28","<p><img class= 'stimulus' src='images/baseline/05145v.jpg'></img></p>","null","","1550712853385","8","","","","","",""
"null","","html-keyboard-response","377","1945271","0.0-8.0-0.0-9.3","28","<p><img class= 'stimulus' src='images/baseline/landscape4.jpg'></img></p>","null","","1550712853484","","","","","","",""
"null","","html-keyboard-response","378","1945371","0.0-8.0-0.0-10.3","28","<p><img class= 'stimulus' src='images/baseline/04117v.jpg'></img></p>","null","","1550712853585","","","","","","",""
"null","","html-keyboard-response","379","1945471","0.0-8.0-0.0-11.3","28","<p><img class= 'stimulus' src='images/baseline/field 3.jpg'></img></p>","null","","1550712853684","","","","","","",""
"null","","html-keyboard-response","380","1945571","0.0-8.0-0.0-12.3","28","<p><img class= 'stimulus' src='images/baseline/pexels-photo-541101.jpeg'></img></p>","null","","1550712853785","12","","","","","",""
"null","","html-keyboard-response","381","1945671","0.0-8.0-0.0-13.3","28","<p><img class= 'stimulus' src='images/baseline/Bridge 1.jpg'></img></p>","null","","1550712853885","","","","","","",""
"null","","html-keyboard-response","382","1945771","0.0-8.0-0.0-14.3","28","<p><img class= 'stimulus' src='images/target/church-2306128_640.jpg'></img></p>","null","","1550712853985","14","","","","","",""
"null","","html-keyboard-response","383","1945872","0.0-8.0-0.0-15.3","28","<p><img class= 'stimulus' src='images/baseline/pexels-photo-427676.jpeg'></img></p>","null","","1550712854085","","","","","","",""
"null","","html-keyboard-response","384","1945971","0.0-8.0-0.0-16.3","28","<p><img class= 'stimulus' src='images/baseline/pexels-photo-59321.jpeg'></img></p>","null","","1550712854185","","","","","","",""
"null","","html-keyboard-response","385","1946087","0.0-8.0-0.0-17.3","28","<p><img class= 'stimulus' src='images/baseline/03217v.jpg'></img></p>","null","","1550712854285","","","","","","",""
"1317.0999999856576","","html-button-response","386","1948423","0.0-8.0-0.0-18.3","28","<div class = ""response_question"">WAS THE IMAGE ROTATED...</div>","","3","","","6","8","neg","right","test","true"
"1853.7000000069384","","html-button-response","387","1950278","0.0-8.0-0.0-0.4","28","","","0","","","","","","","",""
"null","","html-keyboard-response","388","1950355","0.0-8.0-0.0-1.4","28","<p><img class= 'stimulus' src='images/baseline/Lake 5.jpg'></img></p>","null","","1550712858569","","","","","","",""
"null","","html-keyboard-response","389","1950455","0.0-8.0-0.0-2.4","28","<p><img class= 'stimulus' src='images/baseline/agriculture-countryside-crop-259280.jpg'></img></p>","null","","1550712858669","","","","","","",""
"null","","html-keyboard-response","390","1950556","0.0-8.0-0.0-3.4","28","<p><img class= 'stimulus' src='images/baseline/landscape31.jpg'></img></p>","null","","1550712858769","","","","","","",""
"null","","html-keyboard-response","391","1950654","0.0-8.0-0.0-4.4","28","<p><img class= 'stimulus' src='images/baseline/pexels-photo-351264.jpeg'></img></p>","null","","1550712858869","4","","","","","",""
"null","","html-keyboard-response","392","1950755","0.0-8.0-0.0-5.4","28","<p><img class= 'stimulus' src='images/baseline/Sidewalk 4.jpg'></img></p>","null","","1550712858969","","","","","","",""
"null","","html-keyboard-response","393","1950855","0.0-8.0-0.0-6.4","28","<p><img class= 'stimulus' src='images/neutral/Picnic 4.jpg'></img></p>","null","","1550712859070","6","","","","","",""
"null","","html-keyboard-response","394","1950955","0.0-8.0-0.0-7.4","28","<p><img class= 'stimulus' src='images/baseline/building5.jpg'></img></p>","null","","1550712859168","","","","","","",""
"null","","html-keyboard-response","395","1951055","0.0-8.0-0.0-8.4","28","<p><img class= 'stimulus' src='images/baseline/04158v.jpg'></img></p>","null","","1550712859269","8","","","","","",""
"null","","html-keyboard-response","396","1951155","0.0-8.0-0.0-9.4","28","<p><img class= 'stimulus' src='images/baseline/building6.jpg'></img></p>","null","","1550712859368","","","","","","",""
"null","","html-keyboard-response","397","1951255","0.0-8.0-0.0-10.4","28","<p><img class= 'stimulus' src='images/baseline/pexels-photo-221125.jpeg'></img></p>","null","","1550712859469","","","","","","",""
"null","","html-keyboard-response","398","1951354","0.0-8.0-0.0-11.4","28","<p><img class= 'stimulus' src='images/baseline/cranes 1.jpg'></img></p>","null","","1550712859568","","","","","","",""
"null","","html-keyboard-response","399","1951455","0.0-8.0-0.0-12.4","28","<p><img class= 'stimulus' src='images/baseline/05255v.jpg'></img></p>","null","","1550712859668","12","","","","","",""
"null","","html-keyboard-response","400","1951555","0.0-8.0-0.0-13.4","28","<p><img class= 'stimulus' src='images/baseline/05280v.jpg'></img></p>","null","","1550712859768","","","","","","",""
"null","","html-keyboard-response","401","1951655","0.0-8.0-0.0-14.4","28","<p><img class= 'stimulus' src='images/target/chicago-673558_640.jpg'></img></p>","null","","1550712859869","14","","","","","",""
"null","","html-keyboard-response","402","1951755","0.0-8.0-0.0-15.4","28","<p><img class= 'stimulus' src='images/baseline/Sunset 5.jpg'></img></p>","null","","1550712859968","","","","","","",""
"null","","html-keyboard-response","403","1951855","0.0-8.0-0.0-16.4","28","<p><img class= 'stimulus' src='images/baseline/03045v.jpg'></img></p>","null","","1550712860069","","","","","","",""
"null","","html-keyboard-response","404","1951971","0.0-8.0-0.0-17.4","28","<p><img class= 'stimulus' src='images/baseline/02962v.jpg'></img></p>","null","","1550712860168","","","","","","",""
"800.5000000121072","","html-button-response","405","1953774","0.0-8.0-0.0-18.4","28","<div class = ""response_question"">WAS THE IMAGE ROTATED...</div>","","3","","","6","8","neu","right","test","true"
"726.20000000461","","html-button-response","406","1954502","0.0-8.0-0.0-0.5","28","","","0","","","","","","","",""
"null","","html-keyboard-response","407","1954588","0.0-8.0-0.0-1.5","28","<p><img class= 'stimulus' src='images/baseline/church-silhouette-8712964986014Kb.jpg'></img></p>","null","","1550712862802","","","","","","",""
"null","","html-keyboard-response","408","1954688","0.0-8.0-0.0-2.5","28","<p><img class= 'stimulus' src='images/baseline/farmhouse11.jpg'></img></p>","null","","1550712862902","","","","","","",""
"null","","html-keyboard-response","409","1954789","0.0-8.0-0.0-3.5","28","<p><img class= 'stimulus' src='images/baseline/farmhouse1.jpg'></img></p>","null","","1550712863001","","","","","","",""
"null","","html-keyboard-response","410","1954889","0.0-8.0-0.0-4.5","28","<p><img class= 'stimulus' src='images/neutral/School 4.jpg'></img></p>","null","","1550712863102","4","","","","","",""
"null","","html-keyboard-response","411","1954987","0.0-8.0-0.0-5.5","28","<p><img class= 'stimulus' src='images/baseline/landscape13.jpg'></img></p>","null","","1550712863201","","","","","","",""
"null","","html-keyboard-response","412","1955088","0.0-8.0-0.0-6.5","28","<p><img class= 'stimulus left-rotate' src='images/target/italy-building-1206128_1280.jpg'></img></p>","null","","1550712863301","6","","","","","",""
"null","","html-keyboard-response","413","1955188","0.0-8.0-0.0-7.5","28","<p><img class= 'stimulus' src='images/baseline/03066v.jpg'></img></p>","null","","1550712863402","","","","","","",""
"null","","html-keyboard-response","414","1955287","0.0-8.0-0.0-8.5","28","<p><img class= 'stimulus' src='images/baseline/Lake 13.jpg'></img></p>","null","","1550712863502","8","","","","","",""
"null","","html-keyboard-response","415","1955388","0.0-8.0-0.0-9.5","28","<p><img class= 'stimulus' src='images/baseline/04284v.jpg'></img></p>","null","","1550712863601","","","","","","",""
"null","","html-keyboard-response","416","1955489","0.0-8.0-0.0-10.5","28","<p><img class= 'stimulus' src='images/baseline/Aletschgletscher-Eggishorn.jpg'></img></p>","null","","1550712863702","","","","","","",""
"null","","html-keyboard-response","417","1955588","0.0-8.0-0.0-11.5","28","<p><img class= 'stimulus' src='images/baseline/Skyscraper 2.jpg'></img></p>","null","","1550712863801","","","","","","",""
"null","","html-keyboard-response","418","1955688","0.0-8.0-0.0-12.5","28","<p><img class= 'stimulus' src='images/baseline/03220v.jpg'></img></p>","null","","1550712863901","12","","","","","",""
"null","","html-keyboard-response","419","1955789","0.0-8.0-0.0-13.5","28","<p><img class= 'stimulus' src='images/baseline/99_-_Machu_Picchu_-_Juin_2009.edit3.jpg'></img></p>","null","","1550712864001","","","","","","",""
"null","","html-keyboard-response","420","1955887","0.0-8.0-0.0-14.5","28","<p><img class= 'stimulus' src='images/baseline/04193v.jpg'></img></p>","null","","1550712864101","14","","","","","",""
"null","","html-keyboard-response","421","1955987","0.0-8.0-0.0-15.5","28","<p><img class= 'stimulus' src='images/baseline/04162v.jpg'></img></p>","null","","1550712864202","","","","","","",""
"null","","html-keyboard-response","422","1956088","0.0-8.0-0.0-16.5","28","<p><img class= 'stimulus' src='images/baseline/pexels-photo-808465.jpeg'></img></p>","null","","1550712864301","","","","","","",""
"null","","html-keyboard-response","423","1956205","0.0-8.0-0.0-17.5","28","<p><img class= 'stimulus' src='images/baseline/Sunset 4.jpg'></img></p>","null","","1550712864403","","","","","","",""
"1041.1000000021886","","html-button-response","424","1958262","0.0-8.0-0.0-18.5","28","<div class = ""response_question"">WAS THE IMAGE ROTATED...</div>","","0","","","4","2","neu","left","test","true"
"718.0999999982305","","html-button-response","425","1958982","0.0-8.0-0.0-0.6","28","","","0","","","","","","","",""
"null","","html-keyboard-response","426","1959054","0.0-8.0-0.0-1.6","28","<p><img class= 'stimulus' src='images/baseline/Freudenberg_sg_Switzerland.jpg'></img></p>","null","","1550712867268","","","","","","",""
"null","","html-keyboard-response","427","1959154","0.0-8.0-0.0-2.6","28","<p><img class= 'stimulus' src='images/baseline/Niinsaare_jarv.jpg'></img></p>","null","","1550712867367","","","","","","",""
"null","","html-keyboard-response","428","1959255","0.0-8.0-0.0-3.6","28","<p><img class= 'stimulus' src='images/baseline/04196v.jpg'></img></p>","null","","1550712867468","","","","","","",""
"null","","html-keyboard-response","429","1959354","0.0-8.0-0.0-4.6","28","<p><img class= 'stimulus' src='images/baseline/03201v.jpg'></img></p>","null","","1550712867569","4","","","","","",""
"null","","html-keyboard-response","430","1959455","0.0-8.0-0.0-5.6","28","<p><img class= 'stimulus' src='images/baseline/pexels-photo-280222.jpeg'></img></p>","null","","1550712867668","","","","","","",""
"null","","html-keyboard-response","431","1959555","0.0-8.0-0.0-6.6","28","<p><img class= 'stimulus' src='images/target/tree_1.jpg'></img></p>","null","","1550712867768","6","","","","","",""
"null","","html-keyboard-response","432","1959656","0.0-8.0-0.0-7.6","28","<p><img class= 'stimulus' src='images/baseline/04064v.jpg'></img></p>","null","","1550712867869","","","","","","",""
"null","","html-keyboard-response","433","1959755","0.0-8.0-0.0-8.6","28","<p><img class= 'stimulus' src='images/baseline/04060v.jpg'></img></p>","null","","1550712867968","8","","","","","",""
"null","","html-keyboard-response","434","1959855","0.0-8.0-0.0-9.6","28","<p><img class= 'stimulus' src='images/baseline/Sunset 6.jpg'></img></p>","null","","1550712868068","","","","","","",""
"null","","html-keyboard-response","435","1959955","0.0-8.0-0.0-10.6","28","<p><img class= 'stimulus' src='images/baseline/05264v.jpg'></img></p>","null","","1550712868168","","","","","","",""
"null","","html-keyboard-response","436","1960054","0.0-8.0-0.0-11.6","28","<p><img class= 'stimulus' src='images/baseline/lone-old-cottonwood-tree.jpg'></img></p>","null","","1550712868269","","","","","","",""
"null","","html-keyboard-response","437","1960154","0.0-8.0-0.0-12.6","28","<p><img class= 'stimulus' src='images/baseline/03180v.jpg'></img></p>","null","","1550712868369","12","","","","","",""
"null","","html-keyboard-response","438","1960256","0.0-8.0-0.0-13.6","28","<p><img class= 'stimulus' src='images/baseline/03114v.jpg'></img></p>","null","","1550712868468","","","","","","",""
"null","","html-keyboard-response","439","1960355","0.0-8.0-0.0-14.6","28","<p><img class= 'stimulus' src='images/baseline/autumn-in-red-rocks-park.jpg'></img></p>","null","","1550712868568","14","","","","","",""
"null","","html-keyboard-response","440","1960454","0.0-8.0-0.0-15.6","28","<p><img class= 'stimulus' src='images/baseline/vintage-art-deco-storefront.jpg'></img></p>","null","","1550712868668","","","","","","",""
"null","","html-keyboard-response","441","1960555","0.0-8.0-0.0-16.6","28","<p><img class= 'stimulus' src='images/baseline/pexels-photo-534164.jpeg'></img></p>","null","","1550712868767","","","","","","",""
"null","","html-keyboard-response","442","1960672","0.0-8.0-0.0-17.6","28","<p><img class= 'stimulus' src='images/baseline/building_at_national_conservation.jpg'></img></p>","null","","1550712868869","","","","","","",""
"1209.499999997206","","html-button-response","443","1962894","0.0-8.0-0.0-18.6","28","<div class = ""response_question"">WAS THE IMAGE ROTATED...</div>","","3","","","4","2","bas","right","test","true"
"782.2999999916647","","html-button-response","444","1963679","0.0-8.0-0.0-0.7","28","","","0","","","","","","","",""
"null","","html-keyboard-response","445","1963755","0.0-8.0-0.0-1.7","28","<p><img class= 'stimulus' src='images/baseline/4k-wallpaper-agriculture-clouds-842711.jpg'></img></p>","null","","1550712871969","","","","","","",""
"null","","html-keyboard-response","446","1963854","0.0-8.0-0.0-2.7","28","<p><img class= 'stimulus' src='images/baseline/landscape12.jpg'></img></p>","null","","1550712872069","","","","","","",""
"null","","html-keyboard-response","447","1963955","0.0-8.0-0.0-3.7","28","<p><img class= 'stimulus' src='images/baseline/landscape6.jpg'></img></p>","null","","1550712872168","","","","","","",""
"null","","html-keyboard-response","448","1964054","0.0-8.0-0.0-4.7","28","<p><img class= 'stimulus' src='images/baseline/farmhouse7.jpg'></img></p>","null","","1550712872269","4","","","","","",""
"null","","html-keyboard-response","449","1964154","0.0-8.0-0.0-5.7","28","<p><img class= 'stimulus' src='images/baseline/sunset-over-the-lake.jpg'></img></p>","null","","1550712872368","","","","","","",""
"null","","html-keyboard-response","450","1964256","0.0-8.0-0.0-6.7","28","<p><img class= 'stimulus' src='images/baseline/seoul-410266_1920.jpg'></img></p>","null","","1550712872468","6","","","","","",""
"null","","html-keyboard-response","451","1964354","0.0-8.0-0.0-7.7","28","<p><img class= 'stimulus' src='images/baseline/__08_-_ITALY_-_Forli_under_snow_-_winter_landscape_of_city_(christmas).jpg'></img></p>","null","","1550712872568","","","","","","",""
"null","","html-keyboard-response","452","1964455","0.0-8.0-0.0-8.7","28","<p><img class= 'stimulus' src='images/baseline/02971v.jpg'></img></p>","null","","1550712872668","8","","","","","",""
"null","","html-keyboard-response","453","1964556","0.0-8.0-0.0-9.7","28","<p><img class= 'stimulus' src='images/baseline/04010v.jpg'></img></p>","null","","1550712872768","","","","","","",""
"null","","html-keyboard-response","454","1964654","0.0-8.0-0.0-10.7","28","<p><img class= 'stimulus' src='images/baseline/landscape8.jpg'></img></p>","null","","1550712872869","","","","","","",""
"null","","html-keyboard-response","455","1964755","0.0-8.0-0.0-11.7","28","<p><img class= 'stimulus' src='images/baseline/Peyto_Lake-Banff_NP-Canada.jpg'></img></p>","null","","1550712872969","","","","","","",""
"null","","html-keyboard-response","456","1964854","0.0-8.0-0.0-12.7","28","<p><img class= 'stimulus' src='images/baseline/scenic-mountain-landscape.jpg'></img></p>","null","","1550712873068","12","","","","","",""
"null","","html-keyboard-response","457","1964954","0.0-8.0-0.0-13.7","28","<p><img class= 'stimulus' src='images/baseline/empire-state-building.jpg'></img></p>","null","","1550712873169","","","","","","",""
"null","","html-keyboard-response","458","1965055","0.0-8.0-0.0-14.7","28","<p><img class= 'stimulus left-rotate' src='images/target/tree_2.jpg'></img></p>","null","","1550712873268","14","","","","","",""
"null","","html-keyboard-response","459","1965154","0.0-8.0-0.0-15.7","28","<p><img class= 'stimulus' src='images/baseline/tennis-court-net-buried-in-snow.jpg'></img></p>","null","","1550712873368","","","","","","",""
"null","","html-keyboard-response","460","1965255","0.0-8.0-0.0-16.7","28","<p><img class= 'stimulus' src='images/baseline/building16.jpg'></img></p>","null","","1550712873468","","","","","","",""
"null","","html-keyboard-response","461","1965371","0.0-8.0-0.0-17.7","28","<p><img class= 'stimulus' src='images/baseline/Bahia_Onelli_Parque_Nacional_Los_Glaciares_Patagonia_Argentina_Luca_Galuzzi_2005.jpg'></img></p>","null","","1550712873569","","","","","","",""
"1109.8000000056345","","html-button-response","462","1967486","0.0-8.0-0.0-18.7","28","<div class = ""response_question"">WAS THE IMAGE ROTATED...</div>","","0","","","6","8","bas","left","test","true"
"2174.399999988964","","html-button-response","463","1969663","0.0-8.0-0.0-0.8","28","","","0","","","","","","","",""
"null","","html-keyboard-response","464","1969740","0.0-8.0-0.0-1.8","28","<p><img class= 'stimulus' src='images/baseline/05198v.jpg'></img></p>","null","","1550712877952","","","","","","",""
"null","","html-keyboard-response","465","1969839","0.0-8.0-0.0-2.8","28","<p><img class= 'stimulus' src='images/baseline/pexels-photo-1840893.jpeg'></img></p>","null","","1550712878051","","","","","","",""
"null","","html-keyboard-response","466","1969939","0.0-8.0-0.0-3.8","28","<p><img class= 'stimulus' src='images/baseline/pexels-photo-1261728.jpeg'></img></p>","null","","1550712878151","","","","","","",""
"null","","html-keyboard-response","467","1970039","0.0-8.0-0.0-4.8","28","<p><img class= 'stimulus' src='images/neutral/Yoga 3.jpg'></img></p>","null","","1550712878252","4","","","","","",""
"null","","html-keyboard-response","468","1970139","0.0-8.0-0.0-5.8","28","<p><img class= 'stimulus' src='images/baseline/architecture-956332_1280.jpg'></img></p>","null","","1550712878352","","","","","","",""
"null","","html-keyboard-response","469","1970238","0.0-8.0-0.0-6.8","28","<p><img class= 'stimulus' src='images/baseline/lake3.jpg'></img></p>","null","","1550712878452","6","","","","","",""
"null","","html-keyboard-response","470","1970338","0.0-8.0-0.0-7.8","28","<p><img class= 'stimulus' src='images/baseline/Street 3.jpg'></img></p>","null","","1550712878552","","","","","","",""
"null","","html-keyboard-response","471","1970438","0.0-8.0-0.0-8.8","28","<p><img class= 'stimulus' src='images/baseline/city-silhouette-at-sunset-871291580819Esw.jpg'></img></p>","null","","1550712878652","8","","","","","",""
"null","","html-keyboard-response","472","1970538","0.0-8.0-0.0-9.8","28","<p><img class= 'stimulus' src='images/baseline/hills 1.jpg'></img></p>","null","","1550712878752","","","","","","",""
"null","","html-keyboard-response","473","1970638","0.0-8.0-0.0-10.8","28","<p><img class= 'stimulus' src='images/baseline/valley 1.jpg'></img></p>","null","","1550712878851","","","","","","",""
"null","","html-keyboard-response","474","1970739","0.0-8.0-0.0-11.8","28","<p><img class= 'stimulus' src='images/baseline/Kocherbaumwald-01.jpg'></img></p>","null","","1550712878953","","","","","","",""
"null","","html-keyboard-response","475","1970839","0.0-8.0-0.0-12.8","28","<p><img class= 'stimulus' src='images/target/mitre peak.jpg'></img></p>","null","","1550712879052","12","","","","","",""
"null","","html-keyboard-response","476","1970938","0.0-8.0-0.0-13.8","28","<p><img class= 'stimulus' src='images/baseline/03098v.jpg'></img></p>","null","","1550712879153","","","","","","",""
"null","","html-keyboard-response","477","1971039","0.0-8.0-0.0-14.8","28","<p><img class= 'stimulus' src='images/baseline/Lake 9.jpg'></img></p>","null","","1550712879251","14","","","","","",""
"null","","html-keyboard-response","478","1971138","0.0-8.0-0.0-15.8","28","<p><img class= 'stimulus' src='images/baseline/04086v.jpg'></img></p>","null","","1550712879352","","","","","","",""
"null","","html-keyboard-response","479","1971239","0.0-8.0-0.0-16.8","28","<p><img class= 'stimulus' src='images/baseline/landscape7.jpg'></img></p>","null","","1550712879452","","","","","","",""
"null","","html-keyboard-response","480","1971355","0.0-8.0-0.0-17.8","28","<p><img class= 'stimulus' src='images/baseline/05252v.jpg'></img></p>","null","","1550712879551","","","","","","",""
"1027.3999999917578","","html-button-response","481","1973398","0.0-8.0-0.0-18.8","28","<div class = ""response_question"">WAS THE IMAGE ROTATED...</div>","","3","","","4","8","neu","right","test","true"
"4982.199999998556","","html-button-response","482","1978383","0.0-8.0-0.0-0.9","28","","","0","","","","","","","",""
"null","","html-keyboard-response","483","1978456","0.0-8.0-0.0-1.9","28","<p><img class= 'stimulus' src='images/baseline/Sunset 3.jpg'></img></p>","null","","1550712886668","","","","","","",""
"null","","html-keyboard-response","484","1978555","0.0-8.0-0.0-2.9","28","<p><img class= 'stimulus' src='images/baseline/04014v.jpg'></img></p>","null","","1550712886768","","","","","","",""
"null","","html-keyboard-response","485","1978654","0.0-8.0-0.0-3.9","28","<p><img class= 'stimulus' src='images/baseline/Beach 8.jpg'></img></p>","null","","1550712886869","","","","","","",""
"null","","html-keyboard-response","486","1978755","0.0-8.0-0.0-4.9","28","<p><img class= 'stimulus' src='images/neutral/cattle.jpg'></img></p>","null","","1550712886968","4","","","","","",""
"null","","html-keyboard-response","487","1978854","0.0-8.0-0.0-5.9","28","<p><img class= 'stimulus' src='images/baseline/Lake 3.jpg'></img></p>","null","","1550712887070","","","","","","",""
"null","","html-keyboard-response","488","1978955","0.0-8.0-0.0-6.9","28","<p><img class= 'stimulus left-rotate' src='images/target/fishhouse.jpg'></img></p>","null","","1550712887168","6","","","","","",""
"null","","html-keyboard-response","489","1979055","0.0-8.0-0.0-7.9","28","<p><img class= 'stimulus' src='images/baseline/farmhouse9.jpg'></img></p>","null","","1550712887268","","","","","","",""
"null","","html-keyboard-response","490","1979154","0.0-8.0-0.0-8.9","28","<p><img class= 'stimulus' src='images/baseline/05292v.jpg'></img></p>","null","","1550712887367","8","","","","","",""
"null","","html-keyboard-response","491","1979255","0.0-8.0-0.0-9.9","28","<p><img class= 'stimulus' src='images/baseline/Lake 7.jpg'></img></p>","null","","1550712887468","","","","","","",""
"null","","html-keyboard-response","492","1979355","0.0-8.0-0.0-10.9","28","<p><img class= 'stimulus' src='images/baseline/04098v.jpg'></img></p>","null","","1550712887568","","","","","","",""
"null","","html-keyboard-response","493","1979456","0.0-8.0-0.0-11.9","28","<p><img class= 'stimulus' src='images/baseline/pexels-photo-210617.jpeg'></img></p>","null","","1550712887668","","","","","","",""
"null","","html-keyboard-response","494","1979556","0.0-8.0-0.0-12.9","28","<p><img class= 'stimulus' src='images/baseline/03056v.jpg'></img></p>","null","","1550712887768","12","","","","","",""
"null","","html-keyboard-response","495","1979655","0.0-8.0-0.0-13.9","28","<p><img class= 'stimulus' src='images/baseline/meadow-with-mountain-in-background.jpg'></img></p>","null","","1550712887869","","","","","","",""
"null","","html-keyboard-response","496","1979755","0.0-8.0-0.0-14.9","28","<p><img class= 'stimulus' src='images/baseline/cyrillic.jpg'></img></p>","null","","1550712887968","14","","","","","",""
"null","","html-keyboard-response","497","1979856","0.0-8.0-0.0-15.9","28","<p><img class= 'stimulus' src='images/baseline/field 1.jpg'></img></p>","null","","1550712888068","","","","","","",""
"null","","html-keyboard-response","498","1979955","0.0-8.0-0.0-16.9","28","<p><img class= 'stimulus' src='images/baseline/farmhouse3.jpg'></img></p>","null","","1550712888169","","","","","","",""
"null","","html-keyboard-response","499","1980072","0.0-8.0-0.0-17.9","28","<p><img class= 'stimulus' src='images/baseline/sunny-landscape-with-dry-brush-and-mountain-background.jpg'></img></p>","null","","1550712888269","","","","","","",""
"1186.9000000006054","","html-button-response","500","1982263","0.0-8.0-0.0-18.9","28","<div class = ""response_question"">WAS THE IMAGE ROTATED...</div>","","0","","","4","2","neu","left","test","true"
"1125.5999999993946","","html-button-response","501","1983390","0.0-8.0-0.0-0.10","28","","","0","","","","","","","",""
"null","","html-keyboard-response","502","1983472","0.0-8.0-0.0-1.10","28","<p><img class= 'stimulus' src='images/baseline/lake 2.jpg'></img></p>","null","","1550712891686","","","","","","",""
"null","","html-keyboard-response","503","1983572","0.0-8.0-0.0-2.10","28","<p><img class= 'stimulus' src='images/baseline/05186v.jpg'></img></p>","null","","1550712891785","","","","","","",""
"null","","html-keyboard-response","504","1983671","0.0-8.0-0.0-3.10","28","<p><img class= 'stimulus' src='images/baseline/03063v.jpg'></img></p>","null","","1550712891885","","","","","","",""
"null","","html-keyboard-response","505","1983771","0.0-8.0-0.0-4.10","28","<p><img class= 'stimulus' src='images/neutral/Goat 1.jpg'></img></p>","null","","1550712891985","4","","","","","",""
"null","","html-keyboard-response","506","1983880","0.0-8.0-0.0-5.10","28","<p><img class= 'stimulus' src='images/baseline/Dock 1.jpg'></img></p>","null","","1550712892086","","","","","","",""
