"rt","responses","trial_type","trial_index","time_elapsed","internal_node_id","participant_id","stimulus","key_press","button_pressed","stim_onset","sequence_position","distractor_position","target_lag","distractor_type","target_orientation","phase","correct"
"14192.600000009406","{""Q0"":""20""}","survey-text","0","14198","0.0-0.0","20","","","","","","","","","","",""
"3129250.699999975","","html-keyboard-response","1","3143456","0.0-1.0","20","Welcome to the experiment.","67","","","","","","","","",""
"56063.59999999404","","html-button-response","2","3199525","0.0-2.0","20","<p>Several images will be presented sequentially.        Each image will only be on the screen for about 100 milliseconds.</p>        <p> One of the images may be rotated 90 degrees right or left.        Watch for this image and remember if it is rotated right or left.</p>               <p>Images of people and animals will appear, and sometimes they will be unpleasant.        These will never be the rotated target image.</p>","","0","","","","","","","",""
"2766.1999999545515","","html-button-response","3","3202294","0.0-3.0","20","<p><img class=""stimulus left-rotate"" src=""images/target/lone-tree.png""></img></p><p>This is an example of an image rotated to the left.</p>","","0","","","","","","","",""
"1902.8000000398606","","html-button-response","4","3204198","0.0-4.0","20","<p><img class=""stimulus"" src=""images/target/coconut-3396945_640.jpg""></img></p><p>This is an example of an image rotated to the right.</p>","","0","","","","","","","",""
"10167.100000020582","","html-button-response","5","3214366","0.0-5.0","20","<p>We will now begin a short practice session.</p>         <p>A + symbol will appear in the middle of the screen. Please fix your gaze on the center of the +, and then click the mouse button to begin the image sequence.</p>         <p>Please avoid blinking or eye movements while the images are on the screen.</p>        <p>The image sequence will start relatively slow. After a few sequences, it will speed up.</p>","","0","","","","","","","",""
"64278.40000001015","","html-button-response","6","3278645","0.0-6.0-0.0","20","","","0","","","","","","","",""
"null","","html-keyboard-response","7","3278834","0.0-6.0-1.0","20","<p><img class= 'stimulus' src='images/baseline/03114v.jpg'></img></p>","null","","1550357602176","","","","","","",""
"null","","html-keyboard-response","8","3279035","0.0-6.0-2.0","20","<p><img class= 'stimulus' src='images/baseline/Desert_View_Indian_Wells.jpg'></img></p>","null","","1550357602375","","","","","","",""
"null","","html-keyboard-response","9","3279234","0.0-6.0-3.0","20","<p><img class= 'stimulus' src='images/baseline/03201v.jpg'></img></p>","null","","1550357602575","","","","","","",""
"null","","html-keyboard-response","10","3279434","0.0-6.0-4.0","20","<p><img class= 'stimulus' src='images/baseline/05252v.jpg'></img></p>","null","","1550357602777","4","","","","","",""
"null","","html-keyboard-response","11","3279634","0.0-6.0-5.0","20","<p><img class= 'stimulus' src='images/baseline/snowy tree.jpg'></img></p>","null","","1550357602976","","","","","","",""
"null","","html-keyboard-response","12","3279834","0.0-6.0-6.0","20","<p><img class= 'stimulus' src='images/baseline/agriculture-cereal-clouds-175389.jpg'></img></p>","null","","1550357603175","6","","","","","",""
"null","","html-keyboard-response","13","3280034","0.0-6.0-7.0","20","<p><img class= 'stimulus' src='images/baseline/pexels-photo-259280.jpeg'></img></p>","null","","1550357603375","","","","","","",""
"null","","html-keyboard-response","14","3280234","0.0-6.0-8.0","20","<p><img class= 'stimulus' src='images/baseline/02971v.jpg'></img></p>","null","","1550357603576","8","","","","","",""
"null","","html-keyboard-response","15","3280434","0.0-6.0-9.0","20","<p><img class= 'stimulus' src='images/baseline/pexels-photo-568236.jpeg'></img></p>","null","","1550357603777","","","","","","",""
"null","","html-keyboard-response","16","3280635","0.0-6.0-10.0","20","<p><img class= 'stimulus' src='images/baseline/pexels-photo-59321.jpeg'></img></p>","null","","1550357603976","","","","","","",""
"null","","html-keyboard-response","17","3280835","0.0-6.0-11.0","20","<p><img class= 'stimulus' src='images/baseline/grand-teton-mountains.jpg'></img></p>","null","","1550357604175","","","","","","",""
"null","","html-keyboard-response","18","3281034","0.0-6.0-12.0","20","<p><img class= 'stimulus' src='images/baseline/landscape38.jpg'></img></p>","null","","1550357604376","12","","","","","",""
"null","","html-keyboard-response","19","3281234","0.0-6.0-13.0","20","<p><img class= 'stimulus' src='images/baseline/__08_-_ITALY_-_Forli_under_snow_-_winter_landscape_of_city_(christmas).jpg'></img></p>","null","","1550357604576","","","","","","",""
"null","","html-keyboard-response","20","3281435","0.0-6.0-14.0","20","<p><img class= 'stimulus left-rotate' src='images/target/fishhouse.jpg'></img></p>","null","","1550357604777","14","","","","","",""
"null","","html-keyboard-response","21","3281634","0.0-6.0-15.0","20","<p><img class= 'stimulus' src='images/baseline/town-square-in-wroclaw-1539098440MZy.jpg'></img></p>","null","","1550357604977","","","","","","",""
"null","","html-keyboard-response","22","3281835","0.0-6.0-16.0","20","<p><img class= 'stimulus' src='images/baseline/red rocks from afar.jpg'></img></p>","null","","1550357605176","","","","","","",""
"null","","html-keyboard-response","23","3282051","0.0-6.0-17.0","20","<p><img class= 'stimulus' src='images/baseline/Sky 1.jpg'></img></p>","null","","1550357605377","","","","","","",""
"3020.4000000376254","","html-button-response","24","3286078","0.0-6.0-18.0","20","<div class = ""response_question"">WAS THE IMAGE ROTATED...</div>","","0","","","6","8","bas","left","practice","true"
"8997.90000001667","","html-button-response","25","3295078","0.0-6.0-0.1","20","","","0","","","","","","","",""
"null","","html-keyboard-response","26","3295252","0.0-6.0-1.1","20","<p><img class= 'stimulus' src='images/baseline/02945v.jpg'></img></p>","null","","1550357618592","","","","","","",""
"null","","html-keyboard-response","27","3295451","0.0-6.0-2.1","20","<p><img class= 'stimulus' src='images/baseline/99_-_Machu_Picchu_-_Juin_2009.edit3.jpg'></img></p>","null","","1550357618792","","","","","","",""
"null","","html-keyboard-response","28","3295652","0.0-6.0-3.1","20","<p><img class= 'stimulus' src='images/baseline/04229v.jpg'></img></p>","null","","1550357618994","","","","","","",""
"null","","html-keyboard-response","29","3295852","0.0-6.0-4.1","20","<p><img class= 'stimulus' src='images/baseline/building4.jpg'></img></p>","null","","1550357619193","4","","","","","",""
"null","","html-keyboard-response","30","3296052","0.0-6.0-5.1","20","<p><img class= 'stimulus' src='images/baseline/05292v.jpg'></img></p>","null","","1550357619393","","","","","","",""
"null","","html-keyboard-response","31","3296252","0.0-6.0-6.1","20","<p><img class= 'stimulus left-rotate' src='images/target/tree-740901_1280.jpg'></img></p>","null","","1550357619593","6","","","","","",""
"null","","html-keyboard-response","32","3296452","0.0-6.0-7.1","20","<p><img class= 'stimulus' src='images/baseline/hills 3.jpg'></img></p>","null","","1550357619793","","","","","","",""
"null","","html-keyboard-response","33","3296652","0.0-6.0-8.1","20","<p><img class= 'stimulus' src='images/baseline/03098v.jpg'></img></p>","null","","1550357619993","8","","","","","",""
"null","","html-keyboard-response","34","3296852","0.0-6.0-9.1","20","<p><img class= 'stimulus' src='images/baseline/landscape14.jpg'></img></p>","null","","1550357620193","","","","","","",""
"null","","html-keyboard-response","35","3297052","0.0-6.0-10.1","20","<p><img class= 'stimulus' src='images/baseline/landscape23.jpg'></img></p>","null","","1550357620394","","","","","","",""
"null","","html-keyboard-response","36","3297252","0.0-6.0-11.1","20","<p><img class= 'stimulus' src='images/baseline/lake 1.jpg'></img></p>","null","","1550357620593","","","","","","",""
"null","","html-keyboard-response","37","3297453","0.0-6.0-12.1","20","<p><img class= 'stimulus' src='images/baseline/landscape1.jpg'></img></p>","null","","1550357620793","12","","","","","",""
"null","","html-keyboard-response","38","3297653","0.0-6.0-13.1","20","<p><img class= 'stimulus' src='images/baseline/03063v.jpg'></img></p>","null","","1550357620995","","","","","","",""
"null","","html-keyboard-response","39","3297852","0.0-6.0-14.1","20","<p><img class= 'stimulus' src='images/baseline/vintage-art-deco-storefront.jpg'></img></p>","null","","1550357621194","14","","","","","",""
"null","","html-keyboard-response","40","3298053","0.0-6.0-15.1","20","<p><img class= 'stimulus' src='images/baseline/house6.jpg'></img></p>","null","","1550357621394","","","","","","",""
"null","","html-keyboard-response","41","3298253","0.0-6.0-16.1","20","<p><img class= 'stimulus' src='images/baseline/04063v.jpg'></img></p>","null","","1550357621594","","","","","","",""
"null","","html-keyboard-response","42","3298471","0.0-6.0-17.1","20","<p><img class= 'stimulus' src='images/baseline/dirt-road-or-trail-through-park.jpg'></img></p>","null","","1550357621795","","","","","","",""
"986.7000000085682","","html-button-response","43","3300462","0.0-6.0-18.1","20","<div class = ""response_question"">WAS THE IMAGE ROTATED...</div>","","0","","","4","2","bas","left","practice","true"
"1094.19999999227","","html-button-response","44","3301558","0.0-6.0-0.2","20","","","0","","","","","","","",""
"null","","html-keyboard-response","45","3301736","0.0-6.0-1.2","20","<p><img class= 'stimulus' src='images/baseline/pexels-photo-440731.jpeg'></img></p>","null","","1550357625077","","","","","","",""
"null","","html-keyboard-response","46","3301935","0.0-6.0-2.2","20","<p><img class= 'stimulus' src='images/baseline/field 4.jpg'></img></p>","null","","1550357625276","","","","","","",""
"null","","html-keyboard-response","47","3302136","0.0-6.0-3.2","20","<p><img class= 'stimulus' src='images/baseline/Bahia_Onelli_Parque_Nacional_Los_Glaciares_Patagonia_Argentina_Luca_Galuzzi_2005.jpg'></img></p>","null","","1550357625477","","","","","","",""
"null","","html-keyboard-response","48","3302336","0.0-6.0-4.2","20","<p><img class= 'stimulus' src='images/baseline/Niinsaare_jarv.jpg'></img></p>","null","","1550357625677","4","","","","","",""
"null","","html-keyboard-response","49","3302537","0.0-6.0-5.2","20","<p><img class= 'stimulus' src='images/baseline/field 2.jpg'></img></p>","null","","1550357625878","","","","","","",""
"null","","html-keyboard-response","50","3302737","0.0-6.0-6.2","20","<p><img class= 'stimulus' src='images/baseline/landscape33.jpg'></img></p>","null","","1550357626078","6","","","","","",""
"null","","html-keyboard-response","51","3302937","0.0-6.0-7.2","20","<p><img class= 'stimulus' src='images/baseline/farmhouse11.jpg'></img></p>","null","","1550357626278","","","","","","",""
"null","","html-keyboard-response","52","3303137","0.0-6.0-8.2","20","<p><img class= 'stimulus' src='images/baseline/pexels-photo-351264.jpeg'></img></p>","null","","1550357626479","8","","","","","",""
"null","","html-keyboard-response","53","3303338","0.0-6.0-9.2","20","<p><img class= 'stimulus' src='images/baseline/Skijump 1.jpg'></img></p>","null","","1550357626679","","","","","","",""
"null","","html-keyboard-response","54","3303537","0.0-6.0-10.2","20","<p><img class= 'stimulus' src='images/baseline/landscape29.jpg'></img></p>","null","","1550357626880","","","","","","",""
"null","","html-keyboard-response","55","3303737","0.0-6.0-11.2","20","<p><img class= 'stimulus' src='images/baseline/pexels-photo-750108.jpeg'></img></p>","null","","1550357627078","","","","","","",""
"null","","html-keyboard-response","56","3303936","0.0-6.0-12.2","20","<p><img class= 'stimulus' src='images/target/lighthouse-843522_640.jpg'></img></p>","null","","1550357627279","12","","","","","",""
"null","","html-keyboard-response","57","3304136","0.0-6.0-13.2","20","<p><img class= 'stimulus' src='images/baseline/Cold 7.jpg'></img></p>","null","","1550357627479","","","","","","",""
"null","","html-keyboard-response","58","3304337","0.0-6.0-14.2","20","<p><img class= 'stimulus' src='images/baseline/house7.jpg'></img></p>","null","","1550357627678","14","","","","","",""
"null","","html-keyboard-response","59","3304537","0.0-6.0-15.2","20","<p><img class= 'stimulus' src='images/baseline/Lake 4.jpg'></img></p>","null","","1550357627878","","","","","","",""
"null","","html-keyboard-response","60","3304737","0.0-6.0-16.2","20","<p><img class= 'stimulus' src='images/baseline/04010v.jpg'></img></p>","null","","1550357628078","","","","","","",""
"null","","html-keyboard-response","61","3304953","0.0-6.0-17.2","20","<p><img class= 'stimulus' src='images/baseline/kokkari-1523011968Xfr.jpg'></img></p>","null","","1550357628278","","","","","","",""
"1098.8000000361353","","html-button-response","62","3307063","0.0-6.0-18.2","20","<div class = ""response_question"">WAS THE IMAGE ROTATED...</div>","","3","","","4","8","bas","right","practice","true"
"2614.300000015646","","html-button-response","63","3309678","0.0-6.0-0.3","20","","","0","","","","","","","",""
"null","","html-keyboard-response","64","3309853","0.0-6.0-1.3","20","<p><img class= 'stimulus' src='images/baseline/flooded-bridge.jpg'></img></p>","null","","1550357633193","","","","","","",""
"null","","html-keyboard-response","65","3310052","0.0-6.0-2.3","20","<p><img class= 'stimulus' src='images/baseline/03204v.jpg'></img></p>","null","","1550357633393","","","","","","",""
"null","","html-keyboard-response","66","3310253","0.0-6.0-3.3","20","<p><img class= 'stimulus' src='images/baseline/03180v.jpg'></img></p>","null","","1550357633593","","","","","","",""
"null","","html-keyboard-response","67","3310453","0.0-6.0-4.3","20","<p><img class= 'stimulus' src='images/baseline/landscape40.jpg'></img></p>","null","","1550357633794","4","","","","","",""
"null","","html-keyboard-response","68","3310653","0.0-6.0-5.3","20","<p><img class= 'stimulus' src='images/baseline/03212v.jpg'></img></p>","null","","1550357633995","","","","","","",""
"null","","html-keyboard-response","69","3310852","0.0-6.0-6.3","20","<p><img class= 'stimulus' src='images/target/beach1.jpeg'></img></p>","null","","1550357634195","6","","","","","",""
"null","","html-keyboard-response","70","3311053","0.0-6.0-7.3","20","<p><img class= 'stimulus' src='images/baseline/05303v.jpg'></img></p>","null","","1550357634396","","","","","","",""
"null","","html-keyboard-response","71","3311253","0.0-6.0-8.3","20","<p><img class= 'stimulus' src='images/baseline/house8.jpg'></img></p>","null","","1550357634594","8","","","","","",""
"null","","html-keyboard-response","72","3311454","0.0-6.0-9.3","20","<p><img class= 'stimulus' src='images/baseline/05131v.jpg'></img></p>","null","","1550357634794","","","","","","",""
"null","","html-keyboard-response","73","3311654","0.0-6.0-10.3","20","<p><img class= 'stimulus' src='images/baseline/foreclosed_home.jpg'></img></p>","null","","1550357634995","","","","","","",""
"null","","html-keyboard-response","74","3311854","0.0-6.0-11.3","20","<p><img class= 'stimulus' src='images/baseline/lake 2.jpg'></img></p>","null","","1550357635195","","","","","","",""
"null","","html-keyboard-response","75","3312054","0.0-6.0-12.3","20","<p><img class= 'stimulus' src='images/baseline/farmhouse9.jpg'></img></p>","null","","1550357635396","12","","","","","",""
"null","","html-keyboard-response","76","3312254","0.0-6.0-13.3","20","<p><img class= 'stimulus' src='images/baseline/Camping 10.jpg'></img></p>","null","","1550357635595","","","","","","",""
"null","","html-keyboard-response","77","3312454","0.0-6.0-14.3","20","<p><img class= 'stimulus' src='images/baseline/landscape37.jpg'></img></p>","null","","1550357635795","14","","","","","",""
"null","","html-keyboard-response","78","3312655","0.0-6.0-15.3","20","<p><img class= 'stimulus' src='images/baseline/04300v.jpg'></img></p>","null","","1550357635996","","","","","","",""
"null","","html-keyboard-response","79","3312855","0.0-6.0-16.3","20","<p><img class= 'stimulus' src='images/baseline/chicago-skyline-at-night-1476869511p8U.jpg'></img></p>","null","","1550357636196","","","","","","",""
"null","","html-keyboard-response","80","3313071","0.0-6.0-17.3","20","<p><img class= 'stimulus' src='images/baseline/Paysage_karabagh_02.jpg'></img></p>","null","","1550357636396","","","","","","",""
"661.0000000218861","","html-button-response","81","3314742","0.0-6.0-18.3","20","<div class = ""response_question"">WAS THE IMAGE ROTATED...</div>","","3","","","4","2","bas","right","practice","true"
"2438.200000033248","","html-button-response","82","3317182","0.0-6.0-0.4","20","","","0","","","","","","","",""
"null","","html-keyboard-response","83","3317319","0.0-6.0-1.4","20","<p><img class= 'stimulus' src='images/baseline/04179v.jpg'></img></p>","null","","1550357640711","","","","","","",""
"null","","html-keyboard-response","84","3317469","0.0-6.0-2.4","20","<p><img class= 'stimulus' src='images/baseline/Peyto_Lake-Banff_NP-Canada.jpg'></img></p>","null","","1550357640861","","","","","","",""
"null","","html-keyboard-response","85","3317620","0.0-6.0-3.4","20","<p><img class= 'stimulus' src='images/baseline/Nature 1.jpg'></img></p>","null","","1550357641011","","","","","","",""
"null","","html-keyboard-response","86","3317770","0.0-6.0-4.4","20","<p><img class= 'stimulus' src='images/baseline/Road 1.jpg'></img></p>","null","","1550357641160","4","","","","","",""
"null","","html-keyboard-response","87","3317920","0.0-6.0-5.4","20","<p><img class= 'stimulus' src='images/baseline/03066v.jpg'></img></p>","null","","1550357641311","","","","","","",""
"null","","html-keyboard-response","88","3318069","0.0-6.0-6.4","20","<p><img class= 'stimulus' src='images/baseline/Dirt 2.jpg'></img></p>","null","","1550357641461","6","","","","","",""
"null","","html-keyboard-response","89","3318219","0.0-6.0-7.4","20","<p><img class= 'stimulus' src='images/baseline/02960v.jpg'></img></p>","null","","1550357641612","","","","","","",""
"null","","html-keyboard-response","90","3318369","0.0-6.0-8.4","20","<p><img class= 'stimulus' src='images/baseline/road 1(1).jpg'></img></p>","null","","1550357641760","8","","","","","",""
"null","","html-keyboard-response","91","3318520","0.0-6.0-9.4","20","<p><img class= 'stimulus' src='images/baseline/Lake 8.jpg'></img></p>","null","","1550357641911","","","","","","",""
"null","","html-keyboard-response","92","3318669","0.0-6.0-10.4","20","<p><img class= 'stimulus' src='images/baseline/pexels-photo-1287089.jpeg'></img></p>","null","","1550357642062","","","","","","",""
"null","","html-keyboard-response","93","3318819","0.0-6.0-11.4","20","<p><img class= 'stimulus' src='images/baseline/landscape6.jpg'></img></p>","null","","1550357642213","","","","","","",""
"null","","html-keyboard-response","94","3318970","0.0-6.0-12.4","20","<p><img class= 'stimulus' src='images/baseline/05161v.jpg'></img></p>","null","","1550357642362","12","","","","","",""
"null","","html-keyboard-response","95","3319120","0.0-6.0-13.4","20","<p><img class= 'stimulus' src='images/baseline/landscape34.jpg'></img></p>","null","","1550357642511","","","","","","",""
"null","","html-keyboard-response","96","3319269","0.0-6.0-14.4","20","<p><img class= 'stimulus' src='images/target/torrotito-375925_640.jpg'></img></p>","null","","1550357642662","14","","","","","",""
"null","","html-keyboard-response","97","3319419","0.0-6.0-15.4","20","<p><img class= 'stimulus' src='images/baseline/Lake 16.jpg'></img></p>","null","","1550357642811","","","","","","",""
"null","","html-keyboard-response","98","3319569","0.0-6.0-16.4","20","<p><img class= 'stimulus' src='images/baseline/lone-old-cottonwood-tree.jpg'></img></p>","null","","1550357642961","","","","","","",""
"null","","html-keyboard-response","99","3319736","0.0-6.0-17.4","20","<p><img class= 'stimulus' src='images/baseline/05203v.jpg'></img></p>","null","","1550357643110","","","","","","",""
"664.5000000135042","","html-button-response","100","3321406","0.0-6.0-18.4","20","<div class = ""response_question"">WAS THE IMAGE ROTATED...</div>","","3","","","6","8","bas","right","practice","true"
"2246.2999999988824","","html-button-response","101","3323654","0.0-6.0-0.5","20","","","0","","","","","","","",""
"null","","html-keyboard-response","102","3323786","0.0-6.0-1.5","20","<p><img class= 'stimulus' src='images/baseline/Street 1.jpg'></img></p>","null","","1550357647178","","","","","","",""
"null","","html-keyboard-response","103","3323936","0.0-6.0-2.5","20","<p><img class= 'stimulus' src='images/baseline/farmhouse1.jpg'></img></p>","null","","1550357647328","","","","","","",""
"null","","html-keyboard-response","104","3324086","0.0-6.0-3.5","20","<p><img class= 'stimulus' src='images/baseline/04201v.jpg'></img></p>","null","","1550357647477","","","","","","",""
"null","","html-keyboard-response","105","3324236","0.0-6.0-4.5","20","<p><img class= 'stimulus' src='images/baseline/05198v.jpg'></img></p>","null","","1550357647628","4","","","","","",""
"null","","html-keyboard-response","106","3324386","0.0-6.0-5.5","20","<p><img class= 'stimulus' src='images/baseline/Sunset 4.jpg'></img></p>","null","","1550357647777","","","","","","",""
"null","","html-keyboard-response","107","3324535","0.0-6.0-6.5","20","<p><img class= 'stimulus' src='images/baseline/Freudenberg_sg_Switzerland.jpg'></img></p>","null","","1550357647927","6","","","","","",""
"null","","html-keyboard-response","108","3324686","0.0-6.0-7.5","20","<p><img class= 'stimulus' src='images/baseline/Skyscraper 2.jpg'></img></p>","null","","1550357648078","","","","","","",""
"null","","html-keyboard-response","109","3324836","0.0-6.0-8.5","20","<p><img class= 'stimulus left-rotate' src='images/target/mexico_tower_latin_american.jpg'></img></p>","null","","1550357648227","8","","","","","",""
"null","","html-keyboard-response","110","3324986","0.0-6.0-9.5","20","<p><img class= 'stimulus' src='images/baseline/Beach 8.jpg'></img></p>","null","","1550357648377","","","","","","",""
"null","","html-keyboard-response","111","3325136","0.0-6.0-10.5","20","<p><img class= 'stimulus' src='images/baseline/valley 1.jpg'></img></p>","null","","1550357648529","","","","","","",""
"null","","html-keyboard-response","112","3325286","0.0-6.0-11.5","20","<p><img class= 'stimulus' src='images/baseline/Lake 13.jpg'></img></p>","null","","1550357648677","","","","","","",""
"null","","html-keyboard-response","113","3325436","0.0-6.0-12.5","20","<p><img class= 'stimulus' src='images/baseline/empire-state-building.jpg'></img></p>","null","","1550357648827","12","","","","","",""
"null","","html-keyboard-response","114","3325587","0.0-6.0-13.5","20","<p><img class= 'stimulus' src='images/baseline/church-silhouette-8712964986014Kb.jpg'></img></p>","null","","1550357648977","","","","","","",""
"null","","html-keyboard-response","115","3325736","0.0-6.0-14.5","20","<p><img class= 'stimulus' src='images/baseline/house3.jpg'></img></p>","null","","1550357649128","14","","","","","",""
"null","","html-keyboard-response","116","3325885","0.0-6.0-15.5","20","<p><img class= 'stimulus' src='images/baseline/autumn-in-red-rocks-park.jpg'></img></p>","null","","1550357649277","","","","","","",""
"null","","html-keyboard-response","117","3326037","0.0-6.0-16.5","20","<p><img class= 'stimulus' src='images/baseline/pexels-photo-210617.jpeg'></img></p>","null","","1550357649428","","","","","","",""
"null","","html-keyboard-response","118","3326202","0.0-6.0-17.5","20","<p><img class= 'stimulus' src='images/baseline/valley 2.jpg'></img></p>","null","","1550357649577","","","","","","",""
"873.2000000309199","","html-button-response","119","3328078","0.0-6.0-18.5","20","<div class = ""response_question"">WAS THE IMAGE ROTATED...</div>","","0","","","6","2","bas","left","practice","true"
"2038.5000000242144","","html-button-response","120","3330118","0.0-6.0-0.6","20","","","0","","","","","","","",""
"null","","html-keyboard-response","121","3330252","0.0-6.0-1.6","20","<p><img class= 'stimulus' src='images/baseline/landscape7.jpg'></img></p>","null","","1550357653643","","","","","","",""
"null","","html-keyboard-response","122","3330401","0.0-6.0-2.6","20","<p><img class= 'stimulus' src='images/baseline/agriculture-countryside-crop-259280.jpg'></img></p>","null","","1550357653793","","","","","","",""
"null","","html-keyboard-response","123","3330551","0.0-6.0-3.6","20","<p><img class= 'stimulus' src='images/baseline/03075v.jpg'></img></p>","null","","1550357653943","","","","","","",""
"null","","html-keyboard-response","124","3330701","0.0-6.0-4.6","20","<p><img class= 'stimulus' src='images/baseline/04098v.jpg'></img></p>","null","","1550357654094","4","","","","","",""
"null","","html-keyboard-response","125","3330852","0.0-6.0-5.6","20","<p><img class= 'stimulus' src='images/baseline/lookout_tower.jpg'></img></p>","null","","1550357654242","","","","","","",""
"null","","html-keyboard-response","126","3331002","0.0-6.0-6.6","20","<p><img class= 'stimulus' src='images/baseline/04222v.jpg'></img></p>","null","","1550357654393","6","","","","","",""
"null","","html-keyboard-response","127","3331152","0.0-6.0-7.6","20","<p><img class= 'stimulus' src='images/baseline/04117v.jpg'></img></p>","null","","1550357654543","","","","","","",""
"null","","html-keyboard-response","128","3331301","0.0-6.0-8.6","20","<p><img class= 'stimulus' src='images/target/church-2306128_640.jpg'></img></p>","null","","1550357654693","8","","","","","",""
"null","","html-keyboard-response","129","3331451","0.0-6.0-9.6","20","<p><img class= 'stimulus' src='images/baseline/pexels-photo-1261728.jpeg'></img></p>","null","","1550357654843","","","","","","",""
"null","","html-keyboard-response","130","3331601","0.0-6.0-10.6","20","<p><img class= 'stimulus' src='images/baseline/landscape22.jpg'></img></p>","null","","1550357654993","","","","","","",""
"null","","html-keyboard-response","131","3331751","0.0-6.0-11.6","20","<p><img class= 'stimulus' src='images/baseline/pexels-photo-808465.jpeg'></img></p>","null","","1550357655143","","","","","","",""
"null","","html-keyboard-response","132","3331901","0.0-6.0-12.6","20","<p><img class= 'stimulus' src='images/baseline/cranes 1.jpg'></img></p>","null","","1550357655292","12","","","","","",""
"null","","html-keyboard-response","133","3332052","0.0-6.0-13.6","20","<p><img class= 'stimulus' src='images/baseline/landscape16.jpg'></img></p>","null","","1550357655442","","","","","","",""
"null","","html-keyboard-response","134","3332202","0.0-6.0-14.6","20","<p><img class= 'stimulus' src='images/baseline/field 1.jpg'></img></p>","null","","1550357655593","14","","","","","",""
"null","","html-keyboard-response","135","3332351","0.0-6.0-15.6","20","<p><img class= 'stimulus' src='images/baseline/horse_statue.jpg'></img></p>","null","","1550357655743","","","","","","",""
"null","","html-keyboard-response","136","3332501","0.0-6.0-16.6","20","<p><img class= 'stimulus' src='images/baseline/landscape15.jpg'></img></p>","null","","1550357655894","","","","","","",""
"null","","html-keyboard-response","137","3332668","0.0-6.0-17.6","20","<p><img class= 'stimulus' src='images/baseline/05139v.jpg'></img></p>","null","","1550357656043","","","","","","",""
"574.5000000461005","","html-button-response","138","3334246","0.0-6.0-18.6","20","<div class = ""response_question"">WAS THE IMAGE ROTATED...</div>","","3","","","6","2","bas","right","practice","true"
"3029.399999999441","","html-button-response","139","3337278","0.0-6.0-0.7","20","","","0","","","","","","","",""
"null","","html-keyboard-response","140","3337402","0.0-6.0-1.7","20","<p><img class= 'stimulus' src='images/baseline/pexels-photo-894312.jpeg'></img></p>","null","","1550357660792","","","","","","",""
"null","","html-keyboard-response","141","3337552","0.0-6.0-2.7","20","<p><img class= 'stimulus' src='images/baseline/Lake 15.jpg'></img></p>","null","","1550357660943","","","","","","",""
"null","","html-keyboard-response","142","3337701","0.0-6.0-3.7","20","<p><img class= 'stimulus' src='images/baseline/Lake 14.jpg'></img></p>","null","","1550357661092","","","","","","",""
"null","","html-keyboard-response","143","3337853","0.0-6.0-4.7","20","<p><img class= 'stimulus' src='images/baseline/landscape3.jpg'></img></p>","null","","1550357661243","4","","","","","",""
"null","","html-keyboard-response","144","3338001","0.0-6.0-5.7","20","<p><img class= 'stimulus' src='images/baseline/Lake 3.jpg'></img></p>","null","","1550357661393","","","","","","",""
"null","","html-keyboard-response","145","3338152","0.0-6.0-6.7","20","<p><img class= 'stimulus' src='images/baseline/landscape8.jpg'></img></p>","null","","1550357661543","6","","","","","",""
"null","","html-keyboard-response","146","3338301","0.0-6.0-7.7","20","<p><img class= 'stimulus' src='images/baseline/pexels-photo-1837621.jpeg'></img></p>","null","","1550357661694","","","","","","",""
"null","","html-keyboard-response","147","3338451","0.0-6.0-8.7","20","<p><img class= 'stimulus' src='images/baseline/building9.jpg'></img></p>","null","","1550357661845","8","","","","","",""
"null","","html-keyboard-response","148","3338601","0.0-6.0-9.7","20","<p><img class= 'stimulus' src='images/baseline/04162v.jpg'></img></p>","null","","1550357661993","","","","","","",""
"null","","html-keyboard-response","149","3338752","0.0-6.0-10.7","20","<p><img class= 'stimulus' src='images/baseline/hills 4.jpg'></img></p>","null","","1550357662143","","","","","","",""
"null","","html-keyboard-response","150","3338901","0.0-6.0-11.7","20","<p><img class= 'stimulus' src='images/baseline/autumn-landscape-with-lake-fall-trees-mountains.jpg'></img></p>","null","","1550357662293","","","","","","",""
"null","","html-keyboard-response","151","3339051","0.0-6.0-12.7","20","<p><img class= 'stimulus left-rotate' src='images/target/petronas-towers-433081_1920.jpg'></img></p>","null","","1550357662443","12","","","","","",""
"null","","html-keyboard-response","152","3339201","0.0-6.0-13.7","20","<p><img class= 'stimulus' src='images/baseline/landscape36.jpg'></img></p>","null","","1550357662593","","","","","","",""
"null","","html-keyboard-response","153","3339352","0.0-6.0-14.7","20","<p><img class= 'stimulus' src='images/baseline/Sunset 6.jpg'></img></p>","null","","1550357662743","14","","","","","",""
"null","","html-keyboard-response","154","3339501","0.0-6.0-15.7","20","<p><img class= 'stimulus' src='images/baseline/pexels-photo-1048039.jpeg'></img></p>","null","","1550357662894","","","","","","",""
"null","","html-keyboard-response","155","3339651","0.0-6.0-16.7","20","<p><img class= 'stimulus' src='images/baseline/landscape17.jpg'></img></p>","null","","1550357663042","","","","","","",""
"null","","html-keyboard-response","156","3339819","0.0-6.0-17.7","20","<p><img class= 'stimulus' src='images/baseline/Happy pose 3.jpg'></img></p>","null","","1550357663192","","","","","","",""
"1574.1999999736436","","html-button-response","157","3342406","0.0-6.0-18.7","20","<div class = ""response_question"">WAS THE IMAGE ROTATED...</div>","","0","","","4","8","bas","left","practice","true"
"4542.599999986123","","html-button-response","158","3346950","0.0-6.0-0.8","20","","","0","","","","","","","",""
"null","","html-keyboard-response","159","3347035","0.0-6.0-1.8","20","<p><img class= 'stimulus' src='images/baseline/05145v.jpg'></img></p>","null","","1550357670477","","","","","","",""
"null","","html-keyboard-response","160","3347135","0.0-6.0-2.8","20","<p><img class= 'stimulus' src='images/baseline/03148v.jpg'></img></p>","null","","1550357670577","","","","","","",""
"null","","html-keyboard-response","161","3347235","0.0-6.0-3.8","20","<p><img class= 'stimulus' src='images/baseline/Lake 7.jpg'></img></p>","null","","1550357670678","","","","","","",""
"null","","html-keyboard-response","162","3347334","0.0-6.0-4.8","20","<p><img class= 'stimulus' src='images/baseline/landscape11.jpg'></img></p>","null","","1550357670778","4","","","","","",""
"null","","html-keyboard-response","163","3347434","0.0-6.0-5.8","20","<p><img class= 'stimulus' src='images/baseline/city-silhouette-at-sunset-871291580819Esw.jpg'></img></p>","null","","1550357670875","","","","","","",""
"null","","html-keyboard-response","164","3347534","0.0-6.0-6.8","20","<p><img class= 'stimulus' src='images/baseline/Sunset 5.jpg'></img></p>","null","","1550357670975","6","","","","","",""
"null","","html-keyboard-response","165","3347635","0.0-6.0-7.8","20","<p><img class= 'stimulus' src='images/baseline/landscape31.jpg'></img></p>","null","","1550357671076","","","","","","",""
"null","","html-keyboard-response","166","3347734","0.0-6.0-8.8","20","<p><img class= 'stimulus' src='images/baseline/pexels-photo-427676.jpeg'></img></p>","null","","1550357671176","8","","","","","",""
"null","","html-keyboard-response","167","3347835","0.0-6.0-9.8","20","<p><img class= 'stimulus' src='images/baseline/farmhouse2.jpg'></img></p>","null","","1550357671276","","","","","","",""
"null","","html-keyboard-response","168","3347934","0.0-6.0-10.8","20","<p><img class= 'stimulus' src='images/baseline/05280v.jpg'></img></p>","null","","1550357671376","","","","","","",""
"null","","html-keyboard-response","169","3348034","0.0-6.0-11.8","20","<p><img class= 'stimulus' src='images/baseline/building16.jpg'></img></p>","null","","1550357671476","","","","","","",""
"null","","html-keyboard-response","170","3348134","0.0-6.0-12.8","20","<p><img class= 'stimulus' src='images/baseline/farmhouse8.jpg'></img></p>","null","","1550357671577","12","","","","","",""
"null","","html-keyboard-response","171","3348235","0.0-6.0-13.8","20","<p><img class= 'stimulus' src='images/baseline/Paysage_enneige_02.jpg'></img></p>","null","","1550357671677","","","","","","",""
"null","","html-keyboard-response","172","3348334","0.0-6.0-14.8","20","<p><img class= 'stimulus left-rotate' src='images/target/chicago-673558_640.jpg'></img></p>","null","","1550357671776","14","","","","","",""
"null","","html-keyboard-response","173","3348434","0.0-6.0-15.8","20","<p><img class= 'stimulus' src='images/baseline/scenic-mountain-landscape.jpg'></img></p>","null","","1550357671877","","","","","","",""
"null","","html-keyboard-response","174","3348535","0.0-6.0-16.8","20","<p><img class= 'stimulus' src='images/baseline/landscape39.jpg'></img></p>","null","","1550357671975","","","","","","",""
"null","","html-keyboard-response","175","3348651","0.0-6.0-17.8","20","<p><img class= 'stimulus' src='images/baseline/04196v.jpg'></img></p>","null","","1550357672077","","","","","","",""
"864.000000001397","","html-button-response","176","3350518","0.0-6.0-18.8","20","<div class = ""response_question"">WAS THE IMAGE ROTATED...</div>","","0","","","6","8","bas","left","practice","true"
"2694.3000000319444","","html-button-response","177","3353214","0.0-6.0-0.9","20","","","0","","","","","","","",""
"null","","html-keyboard-response","178","3353301","0.0-6.0-1.9","20","<p><img class= 'stimulus' src='images/baseline/pexels-photo-534164.jpeg'></img></p>","null","","1550357676743","","","","","","",""
"null","","html-keyboard-response","179","3353401","0.0-6.0-2.9","20","<p><img class= 'stimulus' src='images/baseline/Grass 6.jpg'></img></p>","null","","1550357676842","","","","","","",""
"null","","html-keyboard-response","180","3353502","0.0-6.0-3.9","20","<p><img class= 'stimulus' src='images/baseline/Sunset 3.jpg'></img></p>","null","","1550357676942","","","","","","",""
"null","","html-keyboard-response","181","3353601","0.0-6.0-4.9","20","<p><img class= 'stimulus' src='images/baseline/pexels-photo-221125.jpeg'></img></p>","null","","1550357677042","4","","","","","",""
"null","","html-keyboard-response","182","3353702","0.0-6.0-5.9","20","<p><img class= 'stimulus' src='images/baseline/Beach 3.jpg'></img></p>","null","","1550357677143","","","","","","",""
"null","","html-keyboard-response","183","3353801","0.0-6.0-6.9","20","<p><img class= 'stimulus' src='images/target/lone-tree-1934897_640.jpg'></img></p>","null","","1550357677242","6","","","","","",""
"null","","html-keyboard-response","184","3353901","0.0-6.0-7.9","20","<p><img class= 'stimulus' src='images/baseline/Street 4.jpg'></img></p>","null","","1550357677342","","","","","","",""
"null","","html-keyboard-response","185","3354001","0.0-6.0-8.9","20","<p><img class= 'stimulus' src='images/baseline/building3.jpg'></img></p>","null","","1550357677444","8","","","","","",""
"null","","html-keyboard-response","186","3354101","0.0-6.0-9.9","20","<p><img class= 'stimulus' src='images/baseline/03162v.jpg'></img></p>","null","","1550357677543","","","","","","",""
"null","","html-keyboard-response","187","3354202","0.0-6.0-10.9","20","<p><img class= 'stimulus' src='images/baseline/04284v.jpg'></img></p>","null","","1550357677643","","","","","","",""
"null","","html-keyboard-response","188","3354301","0.0-6.0-11.9","20","<p><img class= 'stimulus' src='images/baseline/05189v.jpg'></img></p>","null","","1550357677743","","","","","","",""
"null","","html-keyboard-response","189","3354401","0.0-6.0-12.9","20","<p><img class= 'stimulus' src='images/baseline/04060v.jpg'></img></p>","null","","1550357677843","12","","","","","",""
"null","","html-keyboard-response","190","3354503","0.0-6.0-13.9","20","<p><img class= 'stimulus' src='images/baseline/03041v.jpg'></img></p>","null","","1550357677942","","","","","","",""
"null","","html-keyboard-response","191","3354601","0.0-6.0-14.9","20","<p><img class= 'stimulus' src='images/baseline/landscape4.jpg'></img></p>","null","","1550357678042","14","","","","","",""
"null","","html-keyboard-response","192","3354702","0.0-6.0-15.9","20","<p><img class= 'stimulus' src='images/baseline/Path 1.jpg'></img></p>","null","","1550357678143","","","","","","",""
"null","","html-keyboard-response","193","3354801","0.0-6.0-16.9","20","<p><img class= 'stimulus' src='images/baseline/seoul-410266_1920.jpg'></img></p>","null","","1550357678242","","","","","","",""
"null","","html-keyboard-response","194","3354919","0.0-6.0-17.9","20","<p><img class= 'stimulus' src='images/baseline/02947v.jpg'></img></p>","null","","1550357678344","","","","","","",""
"716.3000000291504","","html-button-response","195","3356638","0.0-6.0-18.9","20","<div class = ""response_question"">WAS THE IMAGE ROTATED...</div>","","3","","","4","2","bas","right","practice","true"
"1342.3000000184402","","html-button-response","196","3357982","0.0-6.0-0.10","20","","","0","","","","","","","",""
"null","","html-keyboard-response","197","3358068","0.0-6.0-1.10","20","<p><img class= 'stimulus' src='images/baseline/04193v.jpg'></img></p>","null","","1550357681511","","","","","","",""
"null","","html-keyboard-response","198","3358168","0.0-6.0-2.10","20","<p><img class= 'stimulus' src='images/baseline/pexels-photo-459203.jpeg'></img></p>","null","","1550357681611","","","","","","",""
"null","","html-keyboard-response","199","3358269","0.0-6.0-3.10","20","<p><img class= 'stimulus' src='images/baseline/sunset-over-the-lake.jpg'></img></p>","null","","1550357681711","","","","","","",""
"null","","html-keyboard-response","200","3358368","0.0-6.0-4.10","20","<p><img class= 'stimulus' src='images/baseline/03220v.jpg'></img></p>","null","","1550357681809","4","","","","","",""
"null","","html-keyboard-response","201","3358469","0.0-6.0-5.10","20","<p><img class= 'stimulus' src='images/baseline/Skyscraper 1.jpg'></img></p>","null","","1550357681909","","","","","","",""
"null","","html-keyboard-response","202","3358569","0.0-6.0-6.10","20","<p><img class= 'stimulus' src='images/baseline/05255v.jpg'></img></p>","null","","1550357682010","6","","","","","",""
"null","","html-keyboard-response","203","3358669","0.0-6.0-7.10","20","<p><img class= 'stimulus' src='images/baseline/red-rocks-park.jpg'></img></p>","null","","1550357682110","","","","","","",""
"null","","html-keyboard-response","204","3358767","0.0-6.0-8.10","20","<p><img class= 'stimulus' src='images/target/pexels-photo-932328.jpeg'></img></p>","null","","1550357682210","8","","","","","",""
"null","","html-keyboard-response","205","3358869","0.0-6.0-9.10","20","<p><img class= 'stimulus' src='images/baseline/03056v.jpg'></img></p>","null","","1550357682311","","","","","","",""
"null","","html-keyboard-response","206","3358968","0.0-6.0-10.10","20","<p><img class= 'stimulus' src='images/baseline/architecture_modern_architecture_852928.jpg'></img></p>","null","","1550357682409","","","","","","",""
"null","","html-keyboard-response","207","3359068","0.0-6.0-11.10","20","<p><img class= 'stimulus' src='images/baseline/farmhouse6.jpg'></img></p>","null","","1550357682509","","","","","","",""
"null","","html-keyboard-response","208","3359169","0.0-6.0-12.10","20","<p><img class= 'stimulus' src='images/baseline/building2.jpg'></img></p>","null","","1550357682609","12","","","","","",""
"null","","html-keyboard-response","209","3359268","0.0-6.0-13.10","20","<p><img class= 'stimulus' src='images/baseline/road.jpg'></img></p>","null","","1550357682710","","","","","","",""
"null","","html-keyboard-response","210","3359368","0.0-6.0-14.10","20","<p><img class= 'stimulus' src='images/baseline/02988v.jpg'></img></p>","null","","1550357682809","14","","","","","",""
"null","","html-keyboard-response","211","3359469","0.0-6.0-15.10","20","<p><img class= 'stimulus' src='images/baseline/farmhouse3.jpg'></img></p>","null","","1550357682909","","","","","","",""
"null","","html-keyboard-response","212","3359569","0.0-6.0-16.10","20","<p><img class= 'stimulus' src='images/baseline/Street 2.jpg'></img></p>","null","","1550357683009","","","","","","",""
"null","","html-keyboard-response","213","3359685","0.0-6.0-17.10","20","<p><img class= 'stimulus' src='images/baseline/04021v.jpg'></img></p>","null","","1550357683109","","","","","","",""
"718.0999999982305","","html-button-response","214","3361406","0.0-6.0-18.10","20","<div class = ""response_question"">WAS THE IMAGE ROTATED...</div>","","3","","","6","2","bas","right","practice","true"
"1862.3999999836087","","html-button-response","215","3363270","0.0-6.0-0.11","20","","","0","","","","","","","",""
"null","","html-keyboard-response","216","3363352","0.0-6.0-1.11","20","<p><img class= 'stimulus' src='images/baseline/sunny-landscape-with-dry-brush-and-mountain-background.jpg'></img></p>","null","","1550357686793","","","","","","",""
"null","","html-keyboard-response","217","3363453","0.0-6.0-2.11","20","<p><img class= 'stimulus' src='images/baseline/pexels-photo-280222.jpeg'></img></p>","null","","1550357686893","","","","","","",""
"null","","html-keyboard-response","218","3363552","0.0-6.0-3.11","20","<p><img class= 'stimulus' src='images/baseline/hills 1.jpg'></img></p>","null","","1550357686994","","","","","","",""
"null","","html-keyboard-response","219","3363651","0.0-6.0-4.11","20","<p><img class= 'stimulus' src='images/baseline/house10.jpg'></img></p>","null","","1550357687095","4","","","","","",""
"null","","html-keyboard-response","220","3363751","0.0-6.0-5.11","20","<p><img class= 'stimulus' src='images/baseline/architecture-1314416_1920.jpg'></img></p>","null","","1550357687195","","","","","","",""
"null","","html-keyboard-response","221","3363851","0.0-6.0-6.11","20","<p><img class= 'stimulus' src='images/baseline/Lake 5.jpg'></img></p>","null","","1550357687294","6","","","","","",""
"null","","html-keyboard-response","222","3363952","0.0-6.0-7.11","20","<p><img class= 'stimulus' src='images/baseline/landscape12.jpg'></img></p>","null","","1550357687394","","","","","","",""
"null","","html-keyboard-response","223","3364051","0.0-6.0-8.11","20","<p><img class= 'stimulus left-rotate' src='images/target/landscape32.jpg'></img></p>","null","","1550357687492","8","","","","","",""
"null","","html-keyboard-response","224","3364152","0.0-6.0-9.11","20","<p><img class= 'stimulus' src='images/baseline/02977v.jpg'></img></p>","null","","1550357687594","","","","","","",""
"null","","html-keyboard-response","225","3364251","0.0-6.0-10.11","20","<p><img class= 'stimulus' src='images/baseline/4k-wallpaper-agriculture-clouds-842711.jpg'></img></p>","null","","1550357687694","","","","","","",""
"null","","html-keyboard-response","226","3364352","0.0-6.0-11.11","20","<p><img class= 'stimulus' src='images/baseline/04014v.jpg'></img></p>","null","","1550357687793","","","","","","",""
"null","","html-keyboard-response","227","3364452","0.0-6.0-12.11","20","<p><img class= 'stimulus' src='images/baseline/Dock 1.jpg'></img></p>","null","","1550357687893","12","","","","","",""
"null","","html-keyboard-response","228","3364552","0.0-6.0-13.11","20","<p><img class= 'stimulus' src='images/baseline/05167v.jpg'></img></p>","null","","1550357687993","","","","","","",""
"null","","html-keyboard-response","229","3364651","0.0-6.0-14.11","20","<p><img class= 'stimulus' src='images/baseline/meadow-with-mountain-in-background.jpg'></img></p>","null","","1550357688094","14","","","","","",""
"null","","html-keyboard-response","230","3364751","0.0-6.0-15.11","20","<p><img class= 'stimulus' src='images/baseline/02962v.jpg'></img></p>","null","","1550357688193","","","","","","",""
"null","","html-keyboard-response","231","3364851","0.0-6.0-16.11","20","<p><img class= 'stimulus' src='images/baseline/architecture-956332_1280.jpg'></img></p>","null","","1550357688292","","","","","","",""
"null","","html-keyboard-response","232","3364969","0.0-6.0-17.11","20","<p><img class= 'stimulus' src='images/baseline/farmhouse4.jpg'></img></p>","null","","1550357688394","","","","","","",""
"650.0000000232831","","html-button-response","233","3366622","0.0-6.0-18.11","20","<div class = ""response_question"">WAS THE IMAGE ROTATED...</div>","","0","","","6","2","bas","left","practice","true"
"1270.4000000376254","","html-button-response","234","3367894","0.0-6.0-0.12","20","","","0","","","","","","","",""
"null","","html-keyboard-response","235","3367968","0.0-6.0-1.12","20","<p><img class= 'stimulus' src='images/baseline/river 1.jpg'></img></p>","null","","1550357691409","","","","","","",""
"null","","html-keyboard-response","236","3368068","0.0-6.0-2.12","20","<p><img class= 'stimulus' src='images/baseline/geese-flying-over-lake-at-dusk.jpg'></img></p>","null","","1550357691509","","","","","","",""
"null","","html-keyboard-response","237","3368168","0.0-6.0-3.12","20","<p><img class= 'stimulus' src='images/baseline/landscape35.jpg'></img></p>","null","","1550357691610","","","","","","",""
"null","","html-keyboard-response","238","3368269","0.0-6.0-4.12","20","<p><img class= 'stimulus' src='images/baseline/building6.jpg'></img></p>","null","","1550357691709","4","","","","","",""
"null","","html-keyboard-response","239","3368370","0.0-6.0-5.12","20","<p><img class= 'stimulus' src='images/baseline/hiking-trail.jpg'></img></p>","null","","1550357691811","","","","","","",""
"null","","html-keyboard-response","240","3368469","0.0-6.0-6.12","20","<p><img class= 'stimulus' src='images/baseline/Lake 9.jpg'></img></p>","null","","1550357691910","6","","","","","",""
"null","","html-keyboard-response","241","3368568","0.0-6.0-7.12","20","<p><img class= 'stimulus' src='images/baseline/building5.jpg'></img></p>","null","","1550357692010","","","","","","",""
"null","","html-keyboard-response","242","3368669","0.0-6.0-8.12","20","<p><img class= 'stimulus' src='images/baseline/house11.jpg'></img></p>","null","","1550357692110","8","","","","","",""
"null","","html-keyboard-response","243","3368768","0.0-6.0-9.12","20","<p><img class= 'stimulus' src='images/baseline/Sidewalk 4.jpg'></img></p>","null","","1550357692210","","","","","","",""
"null","","html-keyboard-response","244","3368869","0.0-6.0-10.12","20","<p><img class= 'stimulus' src='images/baseline/04062v.jpg'></img></p>","null","","1550357692310","","","","","","",""
"null","","html-keyboard-response","245","3368967","0.0-6.0-11.12","20","<p><img class= 'stimulus' src='images/baseline/05179v.jpg'></img></p>","null","","1550357692410","","","","","","",""
"null","","html-keyboard-response","246","3369068","0.0-6.0-12.12","20","<p><img class= 'stimulus left-rotate' src='images/target/tree1.jpg'></img></p>","null","","1550357692511","12","","","","","",""
"null","","html-keyboard-response","247","3369168","0.0-6.0-13.12","20","<p><img class= 'stimulus' src='images/baseline/04130v.jpg'></img></p>","null","","1550357692609","","","","","","",""
"null","","html-keyboard-response","248","3369268","0.0-6.0-14.12","20","<p><img class= 'stimulus' src='images/baseline/building_at_national_conservation.jpg'></img></p>","null","","1550357692710","14","","","","","",""
"null","","html-keyboard-response","249","3369368","0.0-6.0-15.12","20","<p><img class= 'stimulus' src='images/baseline/cyrillic.jpg'></img></p>","null","","1550357692810","","","","","","",""
"null","","html-keyboard-response","250","3369469","0.0-6.0-16.12","20","<p><img class= 'stimulus' src='images/baseline/03112v.jpg'></img></p>","null","","1550357692910","","","","","","",""
"null","","html-keyboard-response","251","3369586","0.0-6.0-17.12","20","<p><img class= 'stimulus' src='images/baseline/05186v.jpg'></img></p>","null","","1550357693011","","","","","","",""
"929.3000000179745","","html-button-response","252","3371518","0.0-6.0-18.12","20","<div class = ""response_question"">WAS THE IMAGE ROTATED...</div>","","0","","","4","8","bas","left","practice","true"
"1718.5000000172295","","html-button-response","253","3373238","0.0-6.0-0.13","20","","","0","","","","","","","",""
"null","","html-keyboard-response","254","3373318","0.0-6.0-1.13","20","<p><img class= 'stimulus' src='images/baseline/trees 23.jpg'></img></p>","null","","1550357696760","","","","","","",""
"null","","html-keyboard-response","255","3373418","0.0-6.0-2.13","20","<p><img class= 'stimulus' src='images/baseline/lake3.jpg'></img></p>","null","","1550357696859","","","","","","",""
"null","","html-keyboard-response","256","3373518","0.0-6.0-3.13","20","<p><img class= 'stimulus' src='images/baseline/04085v.jpg'></img></p>","null","","1550357696959","","","","","","",""
"null","","html-keyboard-response","257","3373618","0.0-6.0-4.13","20","<p><img class= 'stimulus' src='images/baseline/Waterfall 1.jpg'></img></p>","null","","1550357697060","4","","","","","",""
"null","","html-keyboard-response","258","3373719","0.0-6.0-5.13","20","<p><img class= 'stimulus' src='images/baseline/pexels-photo-541101.jpeg'></img></p>","null","","1550357697160","","","","","","",""
"null","","html-keyboard-response","259","3373819","0.0-6.0-6.13","20","<p><img class= 'stimulus left-rotate' src='images/target/building5.jpg'></img></p>","null","","1550357697260","6","","","","","",""
"null","","html-keyboard-response","260","3373919","0.0-6.0-7.13","20","<p><img class= 'stimulus' src='images/baseline/building8.jpg'></img></p>","null","","1550357697359","","","","","","",""
"null","","html-keyboard-response","261","3374018","0.0-6.0-8.13","20","<p><img class= 'stimulus' src='images/baseline/Sailing 3.jpg'></img></p>","null","","1550357697460","8","","","","","",""
"null","","html-keyboard-response","262","3374118","0.0-6.0-9.13","20","<p><img class= 'stimulus' src='images/baseline/03045v.jpg'></img></p>","null","","1550357697561","","","","","","",""
"null","","html-keyboard-response","263","3374219","0.0-6.0-10.13","20","<p><img class= 'stimulus' src='images/baseline/05240v.jpg'></img></p>","null","","1550357697660","","","","","","",""
"null","","html-keyboard-response","264","3374318","0.0-6.0-11.13","20","<p><img class= 'stimulus' src='images/baseline/tennis-court-net-buried-in-snow.jpg'></img></p>","null","","1550357697761","","","","","","",""
"null","","html-keyboard-response","265","3374418","0.0-6.0-12.13","20","<p><img class= 'stimulus' src='images/baseline/04086v.jpg'></img></p>","null","","1550357697861","12","","","","","",""
"null","","html-keyboard-response","266","3374518","0.0-6.0-13.13","20","<p><img class= 'stimulus' src='images/baseline/Linden,_paysage.jpg'></img></p>","null","","1550357697960","","","","","","",""
"null","","html-keyboard-response","267","3374618","0.0-6.0-14.13","20","<p><img class= 'stimulus' src='images/baseline/04158v.jpg'></img></p>","null","","1550357698059","14","","","","","",""
"null","","html-keyboard-response","268","3374718","0.0-6.0-15.13","20","<p><img class= 'stimulus' src='images/baseline/03217v.jpg'></img></p>","null","","1550357698160","","","","","","",""
"null","","html-keyboard-response","269","3374819","0.0-6.0-16.13","20","<p><img class= 'stimulus' src='images/baseline/pexels-photo-1840893.jpeg'></img></p>","null","","1550357698261","","","","","","",""
"null","","html-keyboard-response","270","3374935","0.0-6.0-17.13","20","<p><img class= 'stimulus' src='images/baseline/bird-flying-at-sunset.jpg'></img></p>","null","","1550357698360","","","","","","",""
"941.5000000153668","","html-button-response","271","3376894","0.0-6.0-18.13","20","<div class = ""response_question"">WAS THE IMAGE ROTATED...</div>","","0","","","4","2","bas","left","practice","true"
"1518.2999999960884","","html-button-response","272","3378414","0.0-6.0-0.14","20","","","0","","","","","","","",""
"null","","html-keyboard-response","273","3378502","0.0-6.0-1.14","20","<p><img class= 'stimulus' src='images/baseline/sun-through-winter-tree-branches1.jpg'></img></p>","null","","1550357701943","","","","","","",""
"null","","html-keyboard-response","274","3378601","0.0-6.0-2.14","20","<p><img class= 'stimulus' src='images/baseline/05279v.jpg'></img></p>","null","","1550357702044","","","","","","",""
"null","","html-keyboard-response","275","3378702","0.0-6.0-3.14","20","<p><img class= 'stimulus' src='images/baseline/Bridge 1.jpg'></img></p>","null","","1550357702144","","","","","","",""
"null","","html-keyboard-response","276","3378802","0.0-6.0-4.14","20","<p><img class= 'stimulus' src='images/baseline/house2.jpg'></img></p>","null","","1550357702243","4","","","","","",""
"null","","html-keyboard-response","277","3378902","0.0-6.0-5.14","20","<p><img class= 'stimulus' src='images/baseline/landscape19.jpg'></img></p>","null","","1550357702344","","","","","","",""
"null","","html-keyboard-response","278","3379002","0.0-6.0-6.14","20","<p><img class= 'stimulus' src='images/baseline/building12.jpg'></img></p>","null","","1550357702442","6","","","","","",""
"null","","html-keyboard-response","279","3379102","0.0-6.0-7.14","20","<p><img class= 'stimulus' src='images/baseline/Street 5.jpg'></img></p>","null","","1550357702543","","","","","","",""
"null","","html-keyboard-response","280","3379202","0.0-6.0-8.14","20","<p><img class= 'stimulus' src='images/baseline/Beach 2.jpg'></img></p>","null","","1550357702643","8","","","","","",""
"null","","html-keyboard-response","281","3379302","0.0-6.0-9.14","20","<p><img class= 'stimulus' src='images/baseline/05242v.jpg'></img></p>","null","","1550357702743","","","","","","",""
"null","","html-keyboard-response","282","3379402","0.0-6.0-10.14","20","<p><img class= 'stimulus' src='images/baseline/Nature 2.jpg'></img></p>","null","","1550357702843","","","","","","",""
"null","","html-keyboard-response","283","3379502","0.0-6.0-11.14","20","<p><img class= 'stimulus' src='images/baseline/05247v.jpg'></img></p>","null","","1550357702943","","","","","","",""
"null","","html-keyboard-response","284","3379602","0.0-6.0-12.14","20","<p><img class= 'stimulus' src='images/baseline/pexels-photo-1054289.jpeg'></img></p>","null","","1550357703043","12","","","","","",""
"null","","html-keyboard-response","285","3379702","0.0-6.0-13.14","20","<p><img class= 'stimulus' src='images/baseline/agriculture-bright-clouds-440731.jpg'></img></p>","null","","1550357703143","","","","","","",""
"null","","html-keyboard-response","286","3379803","0.0-6.0-14.14","20","<p><img class= 'stimulus' src='images/target/tree-197536_640.jpg'></img></p>","null","","1550357703243","14","","","","","",""
"null","","html-keyboard-response","287","3379903","0.0-6.0-15.14","20","<p><img class= 'stimulus' src='images/baseline/04031v.jpg'></img></p>","null","","1550357703344","","","","","","",""
"null","","html-keyboard-response","288","3380002","0.0-6.0-16.14","20","<p><img class= 'stimulus' src='images/baseline/Street 3.jpg'></img></p>","null","","1550357703444","","","","","","",""
"null","","html-keyboard-response","289","3380119","0.0-6.0-17.14","20","<p><img class= 'stimulus' src='images/baseline/pexels-photo-414491.jpeg'></img></p>","null","","1550357703543","","","","","","",""
"748.1999999727122","","html-button-response","290","3381870","0.0-6.0-18.14","20","<div class = ""response_question"">WAS THE IMAGE ROTATED...</div>","","3","","","6","8","bas","right","practice","true"
"1422.2999999765307","","html-button-response","291","3383294","0.0-6.0-0.15","20","","","0","","","","","","","",""
"null","","html-keyboard-response","292","3383368","0.0-6.0-1.15","20","<p><img class= 'stimulus' src='images/baseline/field 3.jpg'></img></p>","null","","1550357706809","","","","","","",""
"null","","html-keyboard-response","293","3383468","0.0-6.0-2.15","20","<p><img class= 'stimulus' src='images/baseline/landscape13.jpg'></img></p>","null","","1550357706911","","","","","","",""
"null","","html-keyboard-response","294","3383569","0.0-6.0-3.15","20","<p><img class= 'stimulus' src='images/baseline/04064v.jpg'></img></p>","null","","1550357707010","","","","","","",""
"null","","html-keyboard-response","295","3383668","0.0-6.0-4.15","20","<p><img class= 'stimulus' src='images/baseline/Kocherbaumwald-01.jpg'></img></p>","null","","1550357707110","4","","","","","",""
"null","","html-keyboard-response","296","3383769","0.0-6.0-5.15","20","<p><img class= 'stimulus' src='images/baseline/05264v.jpg'></img></p>","null","","1550357707209","","","","","","",""
"null","","html-keyboard-response","297","3383868","0.0-6.0-6.15","20","<p><img class= 'stimulus' src='images/baseline/landscape2.jpg'></img></p>","null","","1550357707309","6","","","","","",""
"null","","html-keyboard-response","298","3383968","0.0-6.0-7.15","20","<p><img class= 'stimulus' src='images/baseline/04040v.jpg'></img></p>","null","","1550357707410","","","","","","",""
"null","","html-keyboard-response","299","3384070","0.0-6.0-8.15","20","<p><img class= 'stimulus' src='images/baseline/02982v.jpg'></img></p>","null","","1550357707510","8","","","","","",""
"null","","html-keyboard-response","300","3384169","0.0-6.0-9.15","20","<p><img class= 'stimulus' src='images/baseline/house1.jpg'></img></p>","null","","1550357707610","","","","","","",""
"null","","html-keyboard-response","301","3384268","0.0-6.0-10.15","20","<p><img class= 'stimulus' src='images/baseline/farmhouse7.jpg'></img></p>","null","","1550357707710","","","","","","",""
"null","","html-keyboard-response","302","3384369","0.0-6.0-11.15","20","<p><img class= 'stimulus' src='images/baseline/Aletschgletscher-Eggishorn.jpg'></img></p>","null","","1550357707809","","","","","","",""
"null","","html-keyboard-response","303","3384469","0.0-6.0-12.15","20","<p><img class= 'stimulus' src='images/target/dubai-1113262_640.jpg'></img></p>","null","","1550357707911","12","","","","","",""
"null","","html-keyboard-response","304","3384568","0.0-6.0-13.15","20","<p><img class= 'stimulus' src='images/baseline/05158v.jpg'></img></p>","null","","1550357708011","","","","","","",""
"null","","html-keyboard-response","305","3384668","0.0-6.0-14.15","20","<p><img class= 'stimulus' src='images/baseline/pexels-photo-459203.jpeg'></img></p>","null","","1550357708110","14","","","","","",""
"null","","html-keyboard-response","306","3384769","0.0-6.0-15.15","20","<p><img class= 'stimulus' src='images/baseline/05189v.jpg'></img></p>","null","","1550357708210","","","","","","",""
"null","","html-keyboard-response","307","3384868","0.0-6.0-16.15","20","<p><img class= 'stimulus' src='images/baseline/04130v.jpg'></img></p>","null","","1550357708309","","","","","","",""
"null","","html-keyboard-response","308","3384984","0.0-6.0-17.15","20","<p><img class= 'stimulus' src='images/baseline/lake 1.jpg'></img></p>","null","","1550357708411","","","","","","",""
"906.5999999875203","","html-button-response","309","3386887","0.0-6.0-18.15","20","<div class = ""response_question"">WAS THE IMAGE ROTATED...</div>","","4","","","4","8","bas","right","practice","true"
"11166.300000040792","","html-button-response","310","3398053","0.0-7.0","20","<p>You have now completed the practice phase. We will now begin the real trials.         This is a reminder that you will be searching for a rotated image among the series of upright images.</p>         <p>Remember, please do not blink or move your eyes while the images are on the screen.</p>         <p>At the end of the experiment, the experimenter will be able to show you how accurate you were.</p>","","0","","","","","","","",""
"5294.899999978952","","html-button-response","311","3403350","0.0-8.0-0.0-0.0","20","","","0","","","","","","","",""
"null","","html-keyboard-response","312","3403427","0.0-8.0-0.0-1.0","20","<p><img class= 'stimulus' src='images/baseline/hills 1.jpg'></img></p>","null","","1550357726869","","","","","","",""
"null","","html-keyboard-response","313","3403527","0.0-8.0-0.0-2.0","20","<p><img class= 'stimulus' src='images/baseline/snowy tree.jpg'></img></p>","null","","1550357726969","","","","","","",""
"null","","html-keyboard-response","314","3403627","0.0-8.0-0.0-3.0","20","<p><img class= 'stimulus' src='images/baseline/Lake 3.jpg'></img></p>","null","","1550357727069","","","","","","",""
"null","","html-keyboard-response","315","3403727","0.0-8.0-0.0-4.0","20","<p><img class= 'stimulus' src='images/baseline/pexels-photo-414491.jpeg'></img></p>","null","","1550357727169","4","","","","","",""
"null","","html-keyboard-response","316","3403828","0.0-8.0-0.0-5.0","20","<p><img class= 'stimulus' src='images/baseline/05280v.jpg'></img></p>","null","","1550357727270","","","","","","",""
"null","","html-keyboard-response","317","3403928","0.0-8.0-0.0-6.0","20","<p><img class= 'stimulus' src='images/baseline/03098v.jpg'></img></p>","null","","1550357727370","6","","","","","",""
"null","","html-keyboard-response","318","3404028","0.0-8.0-0.0-7.0","20","<p><img class= 'stimulus' src='images/baseline/house10.jpg'></img></p>","null","","1550357727468","","","","","","",""
"null","","html-keyboard-response","319","3404127","0.0-8.0-0.0-8.0","20","<p><img class= 'stimulus' src='images/baseline/farmhouse4.jpg'></img></p>","null","","1550357727569","8","","","","","",""
"null","","html-keyboard-response","320","3404228","0.0-8.0-0.0-9.0","20","<p><img class= 'stimulus' src='images/baseline/scenic-mountain-landscape.jpg'></img></p>","null","","1550357727670","","","","","","",""
"null","","html-keyboard-response","321","3404327","0.0-8.0-0.0-10.0","20","<p><img class= 'stimulus' src='images/baseline/03217v.jpg'></img></p>","null","","1550357727770","","","","","","",""
"null","","html-keyboard-response","322","3404427","0.0-8.0-0.0-11.0","20","<p><img class= 'stimulus' src='images/baseline/03056v.jpg'></img></p>","null","","1550357727869","","","","","","",""
"null","","html-keyboard-response","323","3404527","0.0-8.0-0.0-12.0","20","<p><img class= 'stimulus' src='images/baseline/05179v.jpg'></img></p>","null","","1550357727969","12","","","","","",""
"null","","html-keyboard-response","324","3404628","0.0-8.0-0.0-13.0","20","<p><img class= 'stimulus' src='images/baseline/Sunset 3.jpg'></img></p>","null","","1550357728069","","","","","","",""
"null","","html-keyboard-response","325","3404727","0.0-8.0-0.0-14.0","20","<p><img class= 'stimulus' src='images/target/coconut-3396945_640.jpg'></img></p>","null","","1550357728169","14","","","","","",""
"null","","html-keyboard-response","326","3404829","0.0-8.0-0.0-15.0","20","<p><img class= 'stimulus' src='images/baseline/Path 1.jpg'></img></p>","null","","1550357728270","","","","","","",""
"null","","html-keyboard-response","327","3404928","0.0-8.0-0.0-16.0","20","<p><img class= 'stimulus' src='images/baseline/Bahia_Onelli_Parque_Nacional_Los_Glaciares_Patagonia_Argentina_Luca_Galuzzi_2005.jpg'></img></p>","null","","1550357728370","","","","","","",""
"null","","html-keyboard-response","328","3405045","0.0-8.0-0.0-17.0","20","<p><img class= 'stimulus' src='images/baseline/04098v.jpg'></img></p>","null","","1550357728469","","","","","","",""
"876.1999999987893","","html-button-response","329","3406927","0.0-8.0-0.0-18.0","20","<div class = ""response_question"">WAS THE IMAGE ROTATED...</div>","","3","","","6","8","bas","right","test","true"
"1542.0999999623746","","html-button-response","330","3408470","0.0-8.0-0.0-0.1","20","","","0","","","","","","","",""
"null","","html-keyboard-response","331","3408545","0.0-8.0-0.0-1.1","20","<p><img class= 'stimulus' src='images/baseline/field 4.jpg'></img></p>","null","","1550357731985","","","","","","",""
"null","","html-keyboard-response","332","3408644","0.0-8.0-0.0-2.1","20","<p><img class= 'stimulus' src='images/baseline/05292v.jpg'></img></p>","null","","1550357732086","","","","","","",""
"null","","html-keyboard-response","333","3408745","0.0-8.0-0.0-3.1","20","<p><img class= 'stimulus' src='images/baseline/landscape35.jpg'></img></p>","null","","1550357732187","","","","","","",""
"null","","html-keyboard-response","334","3408845","0.0-8.0-0.0-4.1","20","<p><img class= 'stimulus' src='images/baseline/04031v.jpg'></img></p>","null","","1550357732285","4","","","","","",""
"null","","html-keyboard-response","335","3408944","0.0-8.0-0.0-5.1","20","<p><img class= 'stimulus' src='images/baseline/05240v.jpg'></img></p>","null","","1550357732386","","","","","","",""
"null","","html-keyboard-response","336","3409044","0.0-8.0-0.0-6.1","20","<p><img class= 'stimulus' src='images/neutral/ostrich.jpg'></img></p>","null","","1550357732487","6","","","","","",""
"null","","html-keyboard-response","337","3409145","0.0-8.0-0.0-7.1","20","<p><img class= 'stimulus' src='images/baseline/pexels-photo-259280.jpeg'></img></p>","null","","1550357732587","","","","","","",""
"null","","html-keyboard-response","338","3409243","0.0-8.0-0.0-8.1","20","<p><img class= 'stimulus' src='images/target/landscape20.jpg'></img></p>","null","","1550357732686","8","","","","","",""
"null","","html-keyboard-response","339","3409345","0.0-8.0-0.0-9.1","20","<p><img class= 'stimulus' src='images/baseline/lake3.jpg'></img></p>","null","","1550357732786","","","","","","",""
"null","","html-keyboard-response","340","3409444","0.0-8.0-0.0-10.1","20","<p><img class= 'stimulus' src='images/baseline/Skyscraper 2.jpg'></img></p>","null","","1550357732887","","","","","","",""
"null","","html-keyboard-response","341","3409544","0.0-8.0-0.0-11.1","20","<p><img class= 'stimulus' src='images/baseline/house2.jpg'></img></p>","null","","1550357732986","","","","","","",""
"null","","html-keyboard-response","342","3409645","0.0-8.0-0.0-12.1","20","<p><img class= 'stimulus' src='images/baseline/landscape23.jpg'></img></p>","null","","1550357733086","12","","","","","",""
"null","","html-keyboard-response","343","3409744","0.0-8.0-0.0-13.1","20","<p><img class= 'stimulus' src='images/baseline/05242v.jpg'></img></p>","null","","1550357733186","","","","","","",""
"null","","html-keyboard-response","344","3409844","0.0-8.0-0.0-14.1","20","<p><img class= 'stimulus' src='images/baseline/building8.jpg'></img></p>","null","","1550357733286","14","","","","","",""
"null","","html-keyboard-response","345","3409945","0.0-8.0-0.0-15.1","20","<p><img class= 'stimulus' src='images/baseline/Dock 1.jpg'></img></p>","null","","1550357733386","","","","","","",""
"null","","html-keyboard-response","346","3410044","0.0-8.0-0.0-16.1","20","<p><img class= 'stimulus' src='images/baseline/02960v.jpg'></img></p>","null","","1550357733487","","","","","","",""
"null","","html-keyboard-response","347","3410160","0.0-8.0-0.0-17.1","20","<p><img class= 'stimulus' src='images/baseline/building2.jpg'></img></p>","null","","1550357733586","","","","","","",""
"1911.000000021886","","html-button-response","348","3413078","0.0-8.0-0.0-18.1","20","<div class = ""response_question"">WAS THE IMAGE ROTATED...</div>","","2","","","6","2","neu","right","test","false"
"1710.2999999769963","","html-button-response","349","3414790","0.0-8.0-0.0-0.2","20","","","0","","","","","","","",""
"null","","html-keyboard-response","350","3414861","0.0-8.0-0.0-1.2","20","<p><img class= 'stimulus' src='images/baseline/Desert_View_Indian_Wells.jpg'></img></p>","null","","1550357738302","","","","","","",""
"null","","html-keyboard-response","351","3414961","0.0-8.0-0.0-2.2","20","<p><img class= 'stimulus' src='images/baseline/Beach 8.jpg'></img></p>","null","","1550357738403","","","","","","",""
"null","","html-keyboard-response","352","3415062","0.0-8.0-0.0-3.2","20","<p><img class= 'stimulus' src='images/baseline/geese-flying-over-lake-at-dusk.jpg'></img></p>","null","","1550357738504","","","","","","",""
"null","","html-keyboard-response","353","3415162","0.0-8.0-0.0-4.2","20","<p><img class= 'stimulus' src='images/baseline/kokkari-1523011968Xfr.jpg'></img></p>","null","","1550357738603","4","","","","","",""
"null","","html-keyboard-response","354","3415262","0.0-8.0-0.0-5.2","20","<p><img class= 'stimulus' src='images/baseline/Niinsaare_jarv.jpg'></img></p>","null","","1550357738704","","","","","","",""
"null","","html-keyboard-response","355","3415361","0.0-8.0-0.0-6.2","20","<p><img class= 'stimulus' src='images/baseline/Dirt 2.jpg'></img></p>","null","","1550357738803","6","","","","","",""
"null","","html-keyboard-response","356","3415461","0.0-8.0-0.0-7.2","20","<p><img class= 'stimulus' src='images/baseline/valley 2.jpg'></img></p>","null","","1550357738902","","","","","","",""
"null","","html-keyboard-response","357","3415561","0.0-8.0-0.0-8.2","20","<p><img class= 'stimulus' src='images/target/tree-in-desert-landscape.jpg'></img></p>","null","","1550357739003","8","","","","","",""
"null","","html-keyboard-response","358","3415661","0.0-8.0-0.0-9.2","20","<p><img class= 'stimulus' src='images/baseline/Nature 2.jpg'></img></p>","null","","1550357739103","","","","","","",""
"null","","html-keyboard-response","359","3415762","0.0-8.0-0.0-10.2","20","<p><img class= 'stimulus' src='images/baseline/landscape2.jpg'></img></p>","null","","1550357739203","","","","","","",""
"null","","html-keyboard-response","360","3415861","0.0-8.0-0.0-11.2","20","<p><img class= 'stimulus' src='images/baseline/Paysage_karabagh_02.jpg'></img></p>","null","","1550357739302","","","","","","",""
"null","","html-keyboard-response","361","3415962","0.0-8.0-0.0-12.2","20","<p><img class= 'stimulus' src='images/baseline/Waterfall 1.jpg'></img></p>","null","","1550357739403","12","","","","","",""
"null","","html-keyboard-response","362","3416062","0.0-8.0-0.0-13.2","20","<p><img class= 'stimulus' src='images/baseline/04162v.jpg'></img></p>","null","","1550357739502","","","","","","",""
"null","","html-keyboard-response","363","3416161","0.0-8.0-0.0-14.2","20","<p><img class= 'stimulus' src='images/baseline/cyrillic.jpg'></img></p>","null","","1550357739603","14","","","","","",""
"null","","html-keyboard-response","364","3416261","0.0-8.0-0.0-15.2","20","<p><img class= 'stimulus' src='images/baseline/02947v.jpg'></img></p>","null","","1550357739703","","","","","","",""
"null","","html-keyboard-response","365","3416361","0.0-8.0-0.0-16.2","20","<p><img class= 'stimulus' src='images/baseline/house3.jpg'></img></p>","null","","1550357739803","","","","","","",""
"null","","html-keyboard-response","366","3416478","0.0-8.0-0.0-17.2","20","<p><img class= 'stimulus' src='images/baseline/house8.jpg'></img></p>","null","","1550357739903","","","","","","",""
"5315.000000002328","","html-button-response","367","3422799","0.0-8.0-0.0-18.2","20","<div class = ""response_question"">WAS THE IMAGE ROTATED...</div>","","5","","","6","2","bas","right","test","false"
"1973.9999999874271","","html-button-response","368","3424774","0.0-8.0-0.0-0.3","20","","","0","","","","","","","",""
"null","","html-keyboard-response","369","3424861","0.0-8.0-0.0-1.3","20","<p><img class= 'stimulus' src='images/baseline/hills 4.jpg'></img></p>","null","","1550357748302","","","","","","",""
"null","","html-keyboard-response","370","3424961","0.0-8.0-0.0-2.3","20","<p><img class= 'stimulus' src='images/baseline/landscape14.jpg'></img></p>","null","","1550357748402","","","","","","",""
"null","","html-keyboard-response","371","3425062","0.0-8.0-0.0-3.3","20","<p><img class= 'stimulus' src='images/baseline/landscape16.jpg'></img></p>","null","","1550357748502","","","","","","",""
"null","","html-keyboard-response","372","3425162","0.0-8.0-0.0-4.3","20","<p><img class= 'stimulus' src='images/negative/Tumor 1.jpg'></img></p>","null","","1550357748604","4","","","","","",""
"null","","html-keyboard-response","373","3425262","0.0-8.0-0.0-5.3","20","<p><img class= 'stimulus' src='images/baseline/05247v.jpg'></img></p>","null","","1550357748703","","","","","","",""
"null","","html-keyboard-response","374","3425361","0.0-8.0-0.0-6.3","20","<p><img class= 'stimulus' src='images/baseline/Street 5.jpg'></img></p>","null","","1550357748804","6","","","","","",""
"null","","html-keyboard-response","375","3425461","0.0-8.0-0.0-7.3","20","<p><img class= 'stimulus' src='images/baseline/pexels-photo-427676.jpeg'></img></p>","null","","1550357748902","","","","","","",""
"null","","html-keyboard-response","376","3425561","0.0-8.0-0.0-8.3","20","<p><img class= 'stimulus' src='images/baseline/agriculture-bright-clouds-440731.jpg'></img></p>","null","","1550357749002","8","","","","","",""
"null","","html-keyboard-response","377","3425661","0.0-8.0-0.0-9.3","20","<p><img class= 'stimulus' src='images/baseline/river 1.jpg'></img></p>","null","","1550357749102","","","","","","",""
"null","","html-keyboard-response","378","3425761","0.0-8.0-0.0-10.3","20","<p><img class= 'stimulus' src='images/baseline/05161v.jpg'></img></p>","null","","1550357749203","","","","","","",""
"null","","html-keyboard-response","379","3425861","0.0-8.0-0.0-11.3","20","<p><img class= 'stimulus' src='images/baseline/04284v.jpg'></img></p>","null","","1550357749302","","","","","","",""
"null","","html-keyboard-response","380","3425961","0.0-8.0-0.0-12.3","20","<p><img class= 'stimulus' src='images/target/Wild-West-South-West-Usa-Landscape-America-1663497.jpg'></img></p>","null","","1550357749403","12","","","","","",""
"null","","html-keyboard-response","381","3426061","0.0-8.0-0.0-13.3","20","<p><img class= 'stimulus' src='images/baseline/sunny-landscape-with-dry-brush-and-mountain-background.jpg'></img></p>","null","","1550357749503","","","","","","",""
"null","","html-keyboard-response","382","3426162","0.0-8.0-0.0-14.3","20","<p><img class= 'stimulus' src='images/baseline/house7.jpg'></img></p>","null","","1550357749602","14","","","","","",""
"null","","html-keyboard-response","383","3426260","0.0-8.0-0.0-15.3","20","<p><img class= 'stimulus' src='images/baseline/landscape12.jpg'></img></p>","null","","1550357749702","","","","","","",""
"null","","html-keyboard-response","384","3426361","0.0-8.0-0.0-16.3","20","<p><img class= 'stimulus' src='images/baseline/farmhouse11.jpg'></img></p>","null","","1550357749804","","","","","","",""
"null","","html-keyboard-response","385","3426478","0.0-8.0-0.0-17.3","20","<p><img class= 'stimulus' src='images/baseline/Street 1.jpg'></img></p>","null","","1550357749902","","","","","","",""
"749.3999999715015","","html-button-response","386","3428230","0.0-8.0-0.0-18.3","20","<div class = ""response_question"">WAS THE IMAGE ROTATED...</div>","","3","","","4","8","neg","right","test","true"
"2022.2999999532476","","html-button-response","387","3430254","0.0-8.0-0.0-0.4","20","","","0","","","","","","","",""
"null","","html-keyboard-response","388","3430328","0.0-8.0-0.0-1.4","20","<p><img class= 'stimulus' src='images/baseline/pexels-photo-221125.jpeg'></img></p>","null","","1550357753769","","","","","","",""
"null","","html-keyboard-response","389","3430428","0.0-8.0-0.0-2.4","20","<p><img class= 'stimulus' src='images/baseline/pexels-photo-541101.jpeg'></img></p>","null","","1550357753869","","","","","","",""
"null","","html-keyboard-response","390","3430529","0.0-8.0-0.0-3.4","20","<p><img class= 'stimulus' src='images/baseline/flooded-bridge.jpg'></img></p>","null","","1550357753971","","","","","","",""
"null","","html-keyboard-response","391","3430628","0.0-8.0-0.0-4.4","20","<p><img class= 'stimulus' src='images/baseline/agriculture-countryside-crop-259280.jpg'></img></p>","null","","1550357754070","4","","","","","",""
"null","","html-keyboard-response","392","3430728","0.0-8.0-0.0-5.4","20","<p><img class= 'stimulus' src='images/baseline/pexels-photo-750108.jpeg'></img></p>","null","","1550357754170","","","","","","",""
"null","","html-keyboard-response","393","3430828","0.0-8.0-0.0-6.4","20","<p><img class= 'stimulus' src='images/target/building19.jpg'></img></p>","null","","1550357754270","6","","","","","",""
"null","","html-keyboard-response","394","3430927","0.0-8.0-0.0-7.4","20","<p><img class= 'stimulus' src='images/baseline/04060v.jpg'></img></p>","null","","1550357754370","","","","","","",""
"null","","html-keyboard-response","395","3431028","0.0-8.0-0.0-8.4","20","<p><img class= 'stimulus' src='images/baseline/landscape39.jpg'></img></p>","null","","1550357754469","8","","","","","",""
"null","","html-keyboard-response","396","3431128","0.0-8.0-0.0-9.4","20","<p><img class= 'stimulus' src='images/baseline/pexels-photo-351264.jpeg'></img></p>","null","","1550357754569","","","","","","",""
"null","","html-keyboard-response","397","3431228","0.0-8.0-0.0-10.4","20","<p><img class= 'stimulus' src='images/baseline/pexels-photo-808465.jpeg'></img></p>","null","","1550357754669","","","","","","",""
"null","","html-keyboard-response","398","3431328","0.0-8.0-0.0-11.4","20","<p><img class= 'stimulus' src='images/baseline/Lake 5.jpg'></img></p>","null","","1550357754770","","","","","","",""
"null","","html-keyboard-response","399","3431428","0.0-8.0-0.0-12.4","20","<p><img class= 'stimulus' src='images/baseline/__08_-_ITALY_-_Forli_under_snow_-_winter_landscape_of_city_(christmas).jpg'></img></p>","null","","1550357754869","12","","","","","",""
"null","","html-keyboard-response","400","3431528","0.0-8.0-0.0-13.4","20","<p><img class= 'stimulus' src='images/baseline/04179v.jpg'></img></p>","null","","1550357754969","","","","","","",""
"null","","html-keyboard-response","401","3431628","0.0-8.0-0.0-14.4","20","<p><img class= 'stimulus' src='images/baseline/landscape6.jpg'></img></p>","null","","1550357755070","14","","","","","",""
"null","","html-keyboard-response","402","3431727","0.0-8.0-0.0-15.4","20","<p><img class= 'stimulus' src='images/baseline/sunset-over-the-lake.jpg'></img></p>","null","","1550357755170","","","","","","",""
"null","","html-keyboard-response","403","3431828","0.0-8.0-0.0-16.4","20","<p><img class= 'stimulus' src='images/baseline/bird-flying-at-sunset.jpg'></img></p>","null","","1550357755269","","","","","","",""
"null","","html-keyboard-response","404","3431945","0.0-8.0-0.0-17.4","20","<p><img class= 'stimulus' src='images/baseline/hills 3.jpg'></img></p>","null","","1550357755370","","","","","","",""
"512.700000021141","","html-button-response","405","3433462","0.0-8.0-0.0-18.4","20","<div class = ""response_question"">WAS THE IMAGE ROTATED...</div>","","3","","","4","2","bas","right","test","true"
"1110.6000000145286","","html-button-response","406","3434574","0.0-8.0-0.0-0.5","20","","","0","","","","","","","",""
"null","","html-keyboard-response","407","3434663","0.0-8.0-0.0-1.5","20","<p><img class= 'stimulus' src='images/baseline/trees 23.jpg'></img></p>","null","","1550357758103","","","","","","",""
"null","","html-keyboard-response","408","3434761","0.0-8.0-0.0-2.5","20","<p><img class= 'stimulus' src='images/baseline/Nature 1.jpg'></img></p>","null","","1550357758202","","","","","","",""
"null","","html-keyboard-response","409","3434862","0.0-8.0-0.0-3.5","20","<p><img class= 'stimulus' src='images/baseline/Lake 16.jpg'></img></p>","null","","1550357758303","","","","","","",""
"null","","html-keyboard-response","410","3434962","0.0-8.0-0.0-4.5","20","<p><img class= 'stimulus' src='images/baseline/03180v.jpg'></img></p>","null","","1550357758404","4","","","","","",""
"null","","html-keyboard-response","411","3435061","0.0-8.0-0.0-5.5","20","<p><img class= 'stimulus' src='images/baseline/Sailing 3.jpg'></img></p>","null","","1550357758504","","","","","","",""
"null","","html-keyboard-response","412","3435161","0.0-8.0-0.0-6.5","20","<p><img class= 'stimulus' src='images/baseline/house1.jpg'></img></p>","null","","1550357758602","6","","","","","",""
"null","","html-keyboard-response","413","3435261","0.0-8.0-0.0-7.5","20","<p><img class= 'stimulus' src='images/baseline/lone-old-cottonwood-tree.jpg'></img></p>","null","","1550357758702","","","","","","",""
"null","","html-keyboard-response","414","3435361","0.0-8.0-0.0-8.5","20","<p><img class= 'stimulus left-rotate' src='images/target/skyscraper-3855012_640.jpg'></img></p>","null","","1550357758802","8","","","","","",""
"null","","html-keyboard-response","415","3435461","0.0-8.0-0.0-9.5","20","<p><img class= 'stimulus' src='images/baseline/house11.jpg'></img></p>","null","","1550357758903","","","","","","",""
"null","","html-keyboard-response","416","3435561","0.0-8.0-0.0-10.5","20","<p><img class= 'stimulus' src='images/baseline/Lake 14.jpg'></img></p>","null","","1550357759003","","","","","","",""
"null","","html-keyboard-response","417","3435662","0.0-8.0-0.0-11.5","20","<p><img class= 'stimulus' src='images/baseline/vintage-art-deco-storefront.jpg'></img></p>","null","","1550357759102","","","","","","",""
"null","","html-keyboard-response","418","3435762","0.0-8.0-0.0-12.5","20","<p><img class= 'stimulus' src='images/baseline/red rocks from afar.jpg'></img></p>","null","","1550357759202","12","","","","","",""
"null","","html-keyboard-response","419","3435860","0.0-8.0-0.0-13.5","20","<p><img class= 'stimulus' src='images/baseline/foreclosed_home.jpg'></img></p>","null","","1550357759302","","","","","","",""
"null","","html-keyboard-response","420","3435961","0.0-8.0-0.0-14.5","20","<p><img class= 'stimulus' src='images/baseline/04010v.jpg'></img></p>","null","","1550357759404","14","","","","","",""
"null","","html-keyboard-response","421","3436061","0.0-8.0-0.0-15.5","20","<p><img class= 'stimulus' src='images/baseline/04300v.jpg'></img></p>","null","","1550357759503","","","","","","",""
"null","","html-keyboard-response","422","3436161","0.0-8.0-0.0-16.5","20","<p><img class= 'stimulus' src='images/baseline/farmhouse1.jpg'></img></p>","null","","1550357759603","","","","","","",""
"null","","html-keyboard-response","423","3436278","0.0-8.0-0.0-17.5","20","<p><img class= 'stimulus' src='images/baseline/farmhouse6.jpg'></img></p>","null","","1550357759702","","","","","","",""
"1708.0999999889173","","html-button-response","424","3438991","0.0-8.0-0.0-18.5","20","<div class = ""response_question"">WAS THE IMAGE ROTATED...</div>","","5","","","6","2","bas","left","test","false"
"2398.0999999912456","","html-button-response","425","3441390","0.0-8.0-0.0-0.6","20","","","0","","","","","","","",""
"null","","html-keyboard-response","426","3441461","0.0-8.0-0.0-1.6","20","<p><img class= 'stimulus' src='images/baseline/pexels-photo-1054289.jpeg'></img></p>","null","","1550357764902","","","","","","",""
"null","","html-keyboard-response","427","3441561","0.0-8.0-0.0-2.6","20","<p><img class= 'stimulus' src='images/baseline/building12.jpg'></img></p>","null","","1550357765002","","","","","","",""
"null","","html-keyboard-response","428","3441661","0.0-8.0-0.0-3.6","20","<p><img class= 'stimulus' src='images/baseline/Sunset 6.jpg'></img></p>","null","","1550357765103","","","","","","",""
"null","","html-keyboard-response","429","3441761","0.0-8.0-0.0-4.6","20","<p><img class= 'stimulus' src='images/baseline/Street 4.jpg'></img></p>","null","","1550357765202","4","","","","","",""
"null","","html-keyboard-response","430","3441861","0.0-8.0-0.0-5.6","20","<p><img class= 'stimulus' src='images/baseline/city-silhouette-at-sunset-871291580819Esw.jpg'></img></p>","null","","1550357765304","","","","","","",""
"null","","html-keyboard-response","431","3441962","0.0-8.0-0.0-6.6","20","<p><img class= 'stimulus' src='images/neutral/Bear 1.jpg'></img></p>","null","","1550357765404","6","","","","","",""
"null","","html-keyboard-response","432","3442061","0.0-8.0-0.0-7.6","20","<p><img class= 'stimulus' src='images/baseline/04014v.jpg'></img></p>","null","","1550357765503","","","","","","",""
"null","","html-keyboard-response","433","3442161","0.0-8.0-0.0-8.6","20","<p><img class= 'stimulus' src='images/target/Tree-Landscape-Winter-Nature-Winter-Trees-Snow-2117951.jpg'></img></p>","null","","1550357765603","8","","","","","",""
"null","","html-keyboard-response","434","3442261","0.0-8.0-0.0-9.6","20","<p><img class= 'stimulus' src='images/baseline/99_-_Machu_Picchu_-_Juin_2009.edit3.jpg'></img></p>","null","","1550357765702","","","","","","",""
"null","","html-keyboard-response","435","3442361","0.0-8.0-0.0-10.6","20","<p><img class= 'stimulus' src='images/baseline/04229v.jpg'></img></p>","null","","1550357765803","","","","","","",""
"null","","html-keyboard-response","436","3442462","0.0-8.0-0.0-11.6","20","<p><img class= 'stimulus' src='images/baseline/05303v.jpg'></img></p>","null","","1550357765902","","","","","","",""
"null","","html-keyboard-response","437","3442561","0.0-8.0-0.0-12.6","20","<p><img class= 'stimulus' src='images/baseline/autumn-landscape-with-lake-fall-trees-mountains.jpg'></img></p>","null","","1550357766004","12","","","","","",""
"null","","html-keyboard-response","438","3442661","0.0-8.0-0.0-13.6","20","<p><img class= 'stimulus' src='images/baseline/03063v.jpg'></img></p>","null","","1550357766102","","","","","","",""
"null","","html-keyboard-response","439","3442761","0.0-8.0-0.0-14.6","20","<p><img class= 'stimulus' src='images/baseline/Kocherbaumwald-01.jpg'></img></p>","null","","1550357766204","14","","","","","",""
"null","","html-keyboard-response","440","3442861","0.0-8.0-0.0-15.6","20","<p><img class= 'stimulus' src='images/baseline/Street 3.jpg'></img></p>","null","","1550357766303","","","","","","",""
"null","","html-keyboard-response","441","3442960","0.0-8.0-0.0-16.6","20","<p><img class= 'stimulus' src='images/baseline/church-silhouette-8712964986014Kb.jpg'></img></p>","null","","1550357766403","","","","","","",""
"null","","html-keyboard-response","442","3443078","0.0-8.0-0.0-17.6","20","<p><img class= 'stimulus' src='images/baseline/field 3.jpg'></img></p>","null","","1550357766503","","","","","","",""
"2379.5000000391155","","html-button-response","443","3446463","0.0-8.0-0.0-18.6","20","<div class = ""response_question"">WAS THE IMAGE ROTATED...</div>","","2","","","6","2","neu","right","test","false"
"3126.4000000082888","","html-button-response","444","3449584","0.0-8.0-0.0-0.7","20","","","0","","","","","","","",""
"null","","html-keyboard-response","445","3449656","0.0-8.0-0.0-1.7","20","<p><img class= 'stimulus' src='images/baseline/Camping 10.jpg'></img></p>","null","","1550357773097","","","","","","",""
"null","","html-keyboard-response","446","3449756","0.0-8.0-0.0-2.7","20","<p><img class= 'stimulus' src='images/baseline/Sunset 5.jpg'></img></p>","null","","1550357773197","","","","","","",""
"null","","html-keyboard-response","447","3449856","0.0-8.0-0.0-3.7","20","<p><img class= 'stimulus' src='images/baseline/pexels-photo-280222.jpeg'></img></p>","null","","1550357773297","","","","","","",""
"null","","html-keyboard-response","448","3449956","0.0-8.0-0.0-4.7","20","<p><img class= 'stimulus' src='images/baseline/tennis-court-net-buried-in-snow.jpg'></img></p>","null","","1550357773398","4","","","","","",""
"null","","html-keyboard-response","449","3450056","0.0-8.0-0.0-5.7","20","<p><img class= 'stimulus' src='images/baseline/Lake 4.jpg'></img></p>","null","","1550357773498","","","","","","",""
"null","","html-keyboard-response","450","3450155","0.0-8.0-0.0-6.7","20","<p><img class= 'stimulus' src='images/negative/Car accident 3.jpg'></img></p>","null","","1550357773597","6","","","","","",""
"null","","html-keyboard-response","451","3450256","0.0-8.0-0.0-7.7","20","<p><img class= 'stimulus' src='images/baseline/landscape36.jpg'></img></p>","null","","1550357773698","","","","","","",""
"null","","html-keyboard-response","452","3450357","0.0-8.0-0.0-8.7","20","<p><img class= 'stimulus' src='images/baseline/05158v.jpg'></img></p>","null","","1550357773798","8","","","","","",""
"null","","html-keyboard-response","453","3450456","0.0-8.0-0.0-9.7","20","<p><img class= 'stimulus' src='images/baseline/04040v.jpg'></img></p>","null","","1550357773897","","","","","","",""
"null","","html-keyboard-response","454","3450556","0.0-8.0-0.0-10.7","20","<p><img class= 'stimulus' src='images/baseline/Lake 7.jpg'></img></p>","null","","1550357773999","","","","","","",""
"null","","html-keyboard-response","455","3450657","0.0-8.0-0.0-11.7","20","<p><img class= 'stimulus' src='images/baseline/building9.jpg'></img></p>","null","","1550357774097","","","","","","",""
"null","","html-keyboard-response","456","3450756","0.0-8.0-0.0-12.7","20","<p><img class= 'stimulus' src='images/baseline/pexels-photo-1048039.jpeg'></img></p>","null","","1550357774197","12","","","","","",""
"null","","html-keyboard-response","457","3450856","0.0-8.0-0.0-13.7","20","<p><img class= 'stimulus' src='images/baseline/05252v.jpg'></img></p>","null","","1550357774298","","","","","","",""
"null","","html-keyboard-response","458","3450956","0.0-8.0-0.0-14.7","20","<p><img class= 'stimulus' src='images/target/pexels-photo-1102846.jpeg'></img></p>","null","","1550357774397","14","","","","","",""
"null","","html-keyboard-response","459","3451057","0.0-8.0-0.0-15.7","20","<p><img class= 'stimulus' src='images/baseline/Lake 15.jpg'></img></p>","null","","1550357774497","","","","","","",""
"null","","html-keyboard-response","460","3451156","0.0-8.0-0.0-16.7","20","<p><img class= 'stimulus' src='images/baseline/Freudenberg_sg_Switzerland.jpg'></img></p>","null","","1550357774598","","","","","","",""
"null","","html-keyboard-response","461","3451272","0.0-8.0-0.0-17.7","20","<p><img class= 'stimulus' src='images/baseline/farmhouse3.jpg'></img></p>","null","","1550357774698","","","","","","",""
"1317.8000000189058","","html-button-response","462","3453593","0.0-8.0-0.0-18.7","20","<div class = ""response_question"">WAS THE IMAGE ROTATED...</div>","","3","","","6","8","neg","right","test","true"
"3757.6000000117347","","html-button-response","463","3457353","0.0-8.0-0.0-0.8","20","","","0","","","","","","","",""
"null","","html-keyboard-response","464","3457440","0.0-8.0-0.0-1.8","20","<p><img class= 'stimulus' src='images/baseline/03114v.jpg'></img></p>","null","","1550357780881","","","","","","",""
"null","","html-keyboard-response","465","3457539","0.0-8.0-0.0-2.8","20","<p><img class= 'stimulus' src='images/baseline/Beach 3.jpg'></img></p>","null","","1550357780981","","","","","","",""
"null","","html-keyboard-response","466","3457639","0.0-8.0-0.0-3.8","20","<p><img class= 'stimulus' src='images/baseline/landscape8.jpg'></img></p>","null","","1550357781082","","","","","","",""
"null","","html-keyboard-response","467","3457740","0.0-8.0-0.0-4.8","20","<p><img class= 'stimulus' src='images/negative/Injury 1.jpg'></img></p>","null","","1550357781182","4","","","","","",""
"null","","html-keyboard-response","468","3457839","0.0-8.0-0.0-5.8","20","<p><img class= 'stimulus' src='images/baseline/cranes 1.jpg'></img></p>","null","","1550357781281","","","","","","",""
"null","","html-keyboard-response","469","3457940","0.0-8.0-0.0-6.8","20","<p><img class= 'stimulus' src='images/target/buildin.png'></img></p>","null","","1550357781381","6","","","","","",""
"null","","html-keyboard-response","470","3458039","0.0-8.0-0.0-7.8","20","<p><img class= 'stimulus' src='images/baseline/05186v.jpg'></img></p>","null","","1550357781482","","","","","","",""
"null","","html-keyboard-response","471","3458140","0.0-8.0-0.0-8.8","20","<p><img class= 'stimulus' src='images/baseline/04193v.jpg'></img></p>","null","","1550357781582","8","","","","","",""
"null","","html-keyboard-response","472","3458239","0.0-8.0-0.0-9.8","20","<p><img class= 'stimulus' src='images/baseline/Aletschgletscher-Eggishorn.jpg'></img></p>","null","","1550357781680","","","","","","",""
"null","","html-keyboard-response","473","3458341","0.0-8.0-0.0-10.8","20","<p><img class= 'stimulus' src='images/baseline/sun-through-winter-tree-branches1.jpg'></img></p>","null","","1550357781781","","","","","","",""
"null","","html-keyboard-response","474","3458439","0.0-8.0-0.0-11.8","20","<p><img class= 'stimulus' src='images/baseline/Paysage_enneige_02.jpg'></img></p>","null","","1550357781881","","","","","","",""
"null","","html-keyboard-response","475","3458540","0.0-8.0-0.0-12.8","20","<p><img class= 'stimulus' src='images/baseline/02945v.jpg'></img></p>","null","","1550357781981","12","","","","","",""
"null","","html-keyboard-response","476","3458639","0.0-8.0-0.0-13.8","20","<p><img class= 'stimulus' src='images/baseline/house6.jpg'></img></p>","null","","1550357782081","","","","","","",""
"null","","html-keyboard-response","477","3458739","0.0-8.0-0.0-14.8","20","<p><img class= 'stimulus' src='images/baseline/05139v.jpg'></img></p>","null","","1550357782183","14","","","","","",""
"null","","html-keyboard-response","478","3458839","0.0-8.0-0.0-15.8","20","<p><img class= 'stimulus' src='images/baseline/lookout_tower.jpg'></img></p>","null","","1550357782281","","","","","","",""
"null","","html-keyboard-response","479","3458939","0.0-8.0-0.0-16.8","20","<p><img class= 'stimulus' src='images/baseline/04062v.jpg'></img></p>","null","","1550357782381","","","","","","",""
"null","","html-keyboard-response","480","3459057","0.0-8.0-0.0-17.8","20","<p><img class= 'stimulus' src='images/baseline/dirt-road-or-trail-through-park.jpg'></img></p>","null","","1550357782482","","","","","","",""
"1724.3000000016764","","html-button-response","481","3461785","0.0-8.0-0.0-18.8","20","<div class = ""response_question"">WAS THE IMAGE ROTATED...</div>","","2","","","4","2","neg","right","test","false"
"2230.000000039581","","html-button-response","482","3464017","0.0-8.0-0.0-0.9","20","","","0","","","","","","","",""
"null","","html-keyboard-response","483","3464090","0.0-8.0-0.0-1.9","20","<p><img class= 'stimulus' src='images/baseline/seoul-410266_1920.jpg'></img></p>","null","","1550357787531","","","","","","",""
"null","","html-keyboard-response","484","3464190","0.0-8.0-0.0-2.9","20","<p><img class= 'stimulus' src='images/baseline/farmhouse2.jpg'></img></p>","null","","1550357787631","","","","","","",""
"null","","html-keyboard-response","485","3464291","0.0-8.0-0.0-3.9","20","<p><img class= 'stimulus' src='images/baseline/landscape19.jpg'></img></p>","null","","1550357787732","","","","","","",""
"null","","html-keyboard-response","486","3464389","0.0-8.0-0.0-4.9","20","<p><img class= 'stimulus' src='images/baseline/road 1(1).jpg'></img></p>","null","","1550357787832","4","","","","","",""
"null","","html-keyboard-response","487","3464489","0.0-8.0-0.0-5.9","20","<p><img class= 'stimulus' src='images/baseline/pexels-photo-568236.jpeg'></img></p>","null","","1550357787931","","","","","","",""
"null","","html-keyboard-response","488","3464590","0.0-8.0-0.0-6.9","20","<p><img class= 'stimulus' src='images/neutral/mule-deer-doe1.jpg'></img></p>","null","","1550357788031","6","","","","","",""
"null","","html-keyboard-response","489","3464690","0.0-8.0-0.0-7.9","20","<p><img class= 'stimulus' src='images/baseline/meadow-with-mountain-in-background.jpg'></img></p>","null","","1550357788131","","","","","","",""
"null","","html-keyboard-response","490","3464790","0.0-8.0-0.0-8.9","20","<p><img class= 'stimulus left-rotate' src='images/target/1937-single-tree-at-the-top-of-stone-mountain-pv.jpg'></img></p>","null","","1550357788230","8","","","","","",""
"null","","html-keyboard-response","491","3464890","0.0-8.0-0.0-9.9","20","<p><img class= 'stimulus' src='images/baseline/building6.jpg'></img></p>","null","","1550357788331","","","","","","",""
"null","","html-keyboard-response","492","3464990","0.0-8.0-0.0-10.9","20","<p><img class= 'stimulus' src='images/baseline/Happy pose 3.jpg'></img></p>","null","","1550357788431","","","","","","",""
"null","","html-keyboard-response","493","3465090","0.0-8.0-0.0-11.9","20","<p><img class= 'stimulus' src='images/baseline/03041v.jpg'></img></p>","null","","1550357788531","","","","","","",""
"null","","html-keyboard-response","494","3465190","0.0-8.0-0.0-12.9","20","<p><img class= 'stimulus' src='images/baseline/landscape34.jpg'></img></p>","null","","1550357788631","12","","","","","",""
"null","","html-keyboard-response","495","3465290","0.0-8.0-0.0-13.9","20","<p><img class= 'stimulus' src='images/baseline/pexels-photo-534164.jpeg'></img></p>","null","","1550357788732","","","","","","",""
"null","","html-keyboard-response","496","3465390","0.0-8.0-0.0-14.9","20","<p><img class= 'stimulus' src='images/baseline/Grass 6.jpg'></img></p>","null","","1550357788832","14","","","","","",""
"null","","html-keyboard-response","497","3465489","0.0-8.0-0.0-15.9","20","<p><img class= 'stimulus' src='images/baseline/red-rocks-park.jpg'></img></p>","null","","1550357788931","","","","","","",""
"null","","html-keyboard-response","498","3465589","0.0-8.0-0.0-16.9","20","<p><img class= 'stimulus' src='images/baseline/field 1.jpg'></img></p>","null","","1550357789031","","","","","","",""
"null","","html-keyboard-response","499","3465706","0.0-8.0-0.0-17.9","20","<p><img class= 'stimulus' src='images/baseline/Lake 8.jpg'></img></p>","null","","1550357789131","","","","","","",""
"1906.0000000172295","","html-button-response","500","3468617","0.0-8.0-0.0-18.9","20","<div class = ""response_question"">WAS THE IMAGE ROTATED...</div>","","5","","","6","2","neu","left","test","false"
"2510.299999965355","","html-button-response","501","3471129","0.0-8.0-0.0-0.10","20","","","0","","","","","","","",""
"null","","html-keyboard-response","502","3471206","0.0-8.0-0.0-1.10","20","<p><img class= 'stimulus' src='images/baseline/04117v.jpg'></img></p>","null","","1550357794647","","","","","","",""
"null","","html-keyboard-response","503","3471306","0.0-8.0-0.0-2.10","20","<p><img class= 'stimulus' src='images/baseline/agriculture-cereal-clouds-175389.jpg'></img></p>","null","","1550357794747","","","","","","",""
"null","","html-keyboard-response","504","3471407","0.0-8.0-0.0-3.10","20","<p><img class= 'stimulus' src='images/baseline/Street 2.jpg'></img></p>","null","","1550357794847","","","","","","",""
"null","","html-keyboard-response","505","3471506","0.0-8.0-0.0-4.10","20","<p><img class= 'stimulus' src='images/negative/Animal carcass 6.jpg'></img></p>","null","","1550357794947","4","","","","","",""
"null","","html-keyboard-response","506","3471607","0.0-8.0-0.0-5.10","20","<p><img class= 'stimulus' src='images/baseline/Sunset 4.jpg'></img></p>","null","","1550357795049","","","","","","",""
