"rt","responses","trial_type","trial_index","time_elapsed","internal_node_id","participant_id","stimulus","key_press","button_pressed","stim_onset","sequence_position","distractor_position","target_lag","distractor_type","target_orientation","phase","correct"
"4338.199999998324","{""Q0"":""50""}","survey-text","0","4343","0.0-0.0","50","","","","","","","","","","",""
"3778577.900000033","","html-keyboard-response","1","3782938","0.0-1.0","50","Welcome to the experiment.","67","","","","","","","","",""
"25866.999999969266","","html-button-response","2","3808808","0.0-2.0","50","<p>Several images will be presented sequentially.        Each image will only be on the screen for about 100 milliseconds.</p>        <p> One of the images may be rotated 90 degrees right or left.        Watch for this image and remember if it is rotated right or left.</p>               <p>Images of people and animals will appear, and sometimes they will be unpleasant.        These will never be the rotated target image.</p>","","0","","","","","","","",""
"2750","","html-button-response","3","3811560","0.0-3.0","50","<p><img class=""stimulus left-rotate"" src=""images/target/landscape3.jpg""></img></p><p>This is an example of an image rotated to the left.</p>","","0","","","","","","","",""
"2502.7000000700355","","html-button-response","4","3814064","0.0-4.0","50","<p><img class=""stimulus"" src=""images/target/Tree-Landscape-Winter-Nature-Winter-Trees-Snow-2117951.jpg""></img></p><p>This is an example of an image rotated to the right.</p>","","0","","","","","","","",""
"13207.19999994617","","html-button-response","5","3827267","0.0-5.0","50","<p>We will now begin a short practice session.</p>         <p>A + symbol will appear in the middle of the screen. Please fix your gaze on the center of the +, and then click the mouse button to begin the image sequence.</p>         <p>Please avoid blinking or eye movements while the images are on the screen.</p>        <p>The image sequence will start relatively slow. After a few sequences, it will speed up.</p>","","0","","","","","","","",""
"10558.50000004284","","html-button-response","6","3837828","0.0-6.0-0.0","50","","","0","","","","","","","",""
"null","","html-keyboard-response","7","3838012","0.0-6.0-1.0","50","<p><img class= 'stimulus' src='images/baseline/Lake 9.jpg'></img></p>","null","","1551567237921","","","","","","",""
"null","","html-keyboard-response","8","3838212","0.0-6.0-2.0","50","<p><img class= 'stimulus' src='images/baseline/05145v.jpg'></img></p>","null","","1551567238121","","","","","","",""
"null","","html-keyboard-response","9","3838412","0.0-6.0-3.0","50","<p><img class= 'stimulus' src='images/baseline/Dock 1.jpg'></img></p>","null","","1551567238321","","","","","","",""
"null","","html-keyboard-response","10","3838612","0.0-6.0-4.0","50","<p><img class= 'stimulus' src='images/baseline/farmhouse7.jpg'></img></p>","null","","1551567238522","4","","","","","",""
"null","","html-keyboard-response","11","3838813","0.0-6.0-5.0","50","<p><img class= 'stimulus' src='images/baseline/Paysage_karabagh_02.jpg'></img></p>","null","","1551567238721","","","","","","",""
"null","","html-keyboard-response","12","3839013","0.0-6.0-6.0","50","<p><img class= 'stimulus' src='images/baseline/agriculture-cereal-clouds-175389.jpg'></img></p>","null","","1551567238922","6","","","","","",""
"null","","html-keyboard-response","13","3839213","0.0-6.0-7.0","50","<p><img class= 'stimulus' src='images/baseline/04229v.jpg'></img></p>","null","","1551567239122","","","","","","",""
"null","","html-keyboard-response","14","3839413","0.0-6.0-8.0","50","<p><img class= 'stimulus' src='images/target/tree-197536_640.jpg'></img></p>","null","","1551567239322","8","","","","","",""
"null","","html-keyboard-response","15","3839613","0.0-6.0-9.0","50","<p><img class= 'stimulus' src='images/baseline/landscape38.jpg'></img></p>","null","","1551567239522","","","","","","",""
"null","","html-keyboard-response","16","3839814","0.0-6.0-10.0","50","<p><img class= 'stimulus' src='images/baseline/Niinsaare_jarv.jpg'></img></p>","null","","1551567239722","","","","","","",""
"null","","html-keyboard-response","17","3840014","0.0-6.0-11.0","50","<p><img class= 'stimulus' src='images/baseline/Street 3.jpg'></img></p>","null","","1551567239924","","","","","","",""
"null","","html-keyboard-response","18","3840213","0.0-6.0-12.0","50","<p><img class= 'stimulus' src='images/baseline/pexels-photo-440731.jpeg'></img></p>","null","","1551567240124","12","","","","","",""
"null","","html-keyboard-response","19","3840415","0.0-6.0-13.0","50","<p><img class= 'stimulus' src='images/baseline/farmhouse11.jpg'></img></p>","null","","1551567240324","","","","","","",""
"null","","html-keyboard-response","20","3840614","0.0-6.0-14.0","50","<p><img class= 'stimulus' src='images/baseline/landscape2.jpg'></img></p>","null","","1551567240523","14","","","","","",""
"null","","html-keyboard-response","21","3840814","0.0-6.0-15.0","50","<p><img class= 'stimulus' src='images/baseline/cyrillic.jpg'></img></p>","null","","1551567240723","","","","","","",""
"null","","html-keyboard-response","22","3841014","0.0-6.0-16.0","50","<p><img class= 'stimulus' src='images/baseline/04010v.jpg'></img></p>","null","","1551567240923","","","","","","",""
"null","","html-keyboard-response","23","3841230","0.0-6.0-17.0","50","<p><img class= 'stimulus' src='images/baseline/field 4.jpg'></img></p>","null","","1551567241122","","","","","","",""
"10751.900000032037","","html-button-response","24","3852996","0.0-6.0-18.0","50","<div class = ""response_question"">WAS THE IMAGE ROTATED...</div>","","5","","","6","2","bas","right","practice","false"
"4637.400000006892","","html-button-response","25","3857635","0.0-6.0-0.1","50","","","0","","","","","","","",""
"null","","html-keyboard-response","26","3857813","0.0-6.0-1.1","50","<p><img class= 'stimulus' src='images/baseline/05186v.jpg'></img></p>","null","","1551567257722","","","","","","",""
"null","","html-keyboard-response","27","3858012","0.0-6.0-2.1","50","<p><img class= 'stimulus' src='images/baseline/farmhouse1.jpg'></img></p>","null","","1551567257922","","","","","","",""
"null","","html-keyboard-response","28","3858212","0.0-6.0-3.1","50","<p><img class= 'stimulus' src='images/baseline/pexels-photo-894312.jpeg'></img></p>","null","","1551567258122","","","","","","",""
"null","","html-keyboard-response","29","3858413","0.0-6.0-4.1","50","<p><img class= 'stimulus' src='images/baseline/landscape13.jpg'></img></p>","null","","1551567258322","4","","","","","",""
"null","","html-keyboard-response","30","3858612","0.0-6.0-5.1","50","<p><img class= 'stimulus' src='images/baseline/valley 2.jpg'></img></p>","null","","1551567258521","","","","","","",""
"null","","html-keyboard-response","31","3858812","0.0-6.0-6.1","50","<p><img class= 'stimulus' src='images/target/tree_2.jpg'></img></p>","null","","1551567258722","6","","","","","",""
"null","","html-keyboard-response","32","3859012","0.0-6.0-7.1","50","<p><img class= 'stimulus' src='images/baseline/pexels-photo-414491.jpeg'></img></p>","null","","1551567258922","","","","","","",""
"null","","html-keyboard-response","33","3859212","0.0-6.0-8.1","50","<p><img class= 'stimulus' src='images/baseline/pexels-photo-280222.jpeg'></img></p>","null","","1551567259122","8","","","","","",""
"null","","html-keyboard-response","34","3859413","0.0-6.0-9.1","50","<p><img class= 'stimulus' src='images/baseline/03041v.jpg'></img></p>","null","","1551567259322","","","","","","",""
"null","","html-keyboard-response","35","3859613","0.0-6.0-10.1","50","<p><img class= 'stimulus' src='images/baseline/Linden,_paysage.jpg'></img></p>","null","","1551567259521","","","","","","",""
"null","","html-keyboard-response","36","3859812","0.0-6.0-11.1","50","<p><img class= 'stimulus' src='images/baseline/Sunset 5.jpg'></img></p>","null","","1551567259722","","","","","","",""
"null","","html-keyboard-response","37","3860013","0.0-6.0-12.1","50","<p><img class= 'stimulus' src='images/baseline/landscape1.jpg'></img></p>","null","","1551567259921","12","","","","","",""
"null","","html-keyboard-response","38","3860213","0.0-6.0-13.1","50","<p><img class= 'stimulus' src='images/baseline/03056v.jpg'></img></p>","null","","1551567260122","","","","","","",""
"null","","html-keyboard-response","39","3860413","0.0-6.0-14.1","50","<p><img class= 'stimulus' src='images/baseline/lake3.jpg'></img></p>","null","","1551567260322","14","","","","","",""
"null","","html-keyboard-response","40","3860613","0.0-6.0-15.1","50","<p><img class= 'stimulus' src='images/baseline/02982v.jpg'></img></p>","null","","1551567260522","","","","","","",""
"null","","html-keyboard-response","41","3860813","0.0-6.0-16.1","50","<p><img class= 'stimulus' src='images/baseline/trees 23.jpg'></img></p>","null","","1551567260722","","","","","","",""
"null","","html-keyboard-response","42","3861030","0.0-6.0-17.1","50","<p><img class= 'stimulus' src='images/baseline/field 3.jpg'></img></p>","null","","1551567260923","","","","","","",""
"1210.800000000745","","html-button-response","43","3863244","0.0-6.0-18.1","50","<div class = ""response_question"">WAS THE IMAGE ROTATED...</div>","","3","","","4","2","bas","right","practice","true"
"1974.199999938719","","html-button-response","44","3865220","0.0-6.0-0.2","50","","","0","","","","","","","",""
"null","","html-keyboard-response","45","3865396","0.0-6.0-1.2","50","<p><img class= 'stimulus' src='images/baseline/pexels-photo-210617.jpeg'></img></p>","null","","1551567265306","","","","","","",""
"null","","html-keyboard-response","46","3865596","0.0-6.0-2.2","50","<p><img class= 'stimulus' src='images/baseline/landscape11.jpg'></img></p>","null","","1551567265505","","","","","","",""
"null","","html-keyboard-response","47","3865795","0.0-6.0-3.2","50","<p><img class= 'stimulus' src='images/baseline/Sunset 4.jpg'></img></p>","null","","1551567265705","","","","","","",""
"null","","html-keyboard-response","48","3865995","0.0-6.0-4.2","50","<p><img class= 'stimulus' src='images/baseline/town-square-in-wroclaw-1539098440MZy.jpg'></img></p>","null","","1551567265905","4","","","","","",""
"null","","html-keyboard-response","49","3866197","0.0-6.0-5.2","50","<p><img class= 'stimulus' src='images/baseline/04162v.jpg'></img></p>","null","","1551567266105","","","","","","",""
"null","","html-keyboard-response","50","3866396","0.0-6.0-6.2","50","<p><img class= 'stimulus' src='images/baseline/Street 5.jpg'></img></p>","null","","1551567266306","6","","","","","",""
"null","","html-keyboard-response","51","3866597","0.0-6.0-7.2","50","<p><img class= 'stimulus' src='images/baseline/02945v.jpg'></img></p>","null","","1551567266506","","","","","","",""
"null","","html-keyboard-response","52","3866797","0.0-6.0-8.2","50","<p><img class= 'stimulus' src='images/baseline/Nature 1.jpg'></img></p>","null","","1551567266706","8","","","","","",""
"null","","html-keyboard-response","53","3866998","0.0-6.0-9.2","50","<p><img class= 'stimulus' src='images/baseline/pexels-photo-427676.jpeg'></img></p>","null","","1551567266906","","","","","","",""
"null","","html-keyboard-response","54","3867197","0.0-6.0-10.2","50","<p><img class= 'stimulus' src='images/baseline/Street 4.jpg'></img></p>","null","","1551567267107","","","","","","",""
"null","","html-keyboard-response","55","3867397","0.0-6.0-11.2","50","<p><img class= 'stimulus' src='images/baseline/Road 1.jpg'></img></p>","null","","1551567267308","","","","","","",""
"null","","html-keyboard-response","56","3867597","0.0-6.0-12.2","50","<p><img class= 'stimulus' src='images/baseline/Lake 13.jpg'></img></p>","null","","1551567267505","12","","","","","",""
"null","","html-keyboard-response","57","3867796","0.0-6.0-13.2","50","<p><img class= 'stimulus' src='images/baseline/tennis-court-net-buried-in-snow.jpg'></img></p>","null","","1551567267706","","","","","","",""
"null","","html-keyboard-response","58","3867997","0.0-6.0-14.2","50","<p><img class= 'stimulus' src='images/target/1937-single-tree-at-the-top-of-stone-mountain-pv.jpg'></img></p>","null","","1551567267906","14","","","","","",""
"null","","html-keyboard-response","59","3868197","0.0-6.0-15.2","50","<p><img class= 'stimulus' src='images/baseline/04086v.jpg'></img></p>","null","","1551567268106","","","","","","",""
"null","","html-keyboard-response","60","3868397","0.0-6.0-16.2","50","<p><img class= 'stimulus' src='images/baseline/04014v.jpg'></img></p>","null","","1551567268308","","","","","","",""
"null","","html-keyboard-response","61","3868613","0.0-6.0-17.2","50","<p><img class= 'stimulus' src='images/baseline/03063v.jpg'></img></p>","null","","1551567268506","","","","","","",""
"1111.200000043027","","html-button-response","62","3870740","0.0-6.0-18.2","50","<div class = ""response_question"">WAS THE IMAGE ROTATED...</div>","","3","","","6","8","bas","right","practice","true"
"2766.200000070967","","html-button-response","63","3873508","0.0-6.0-0.3","50","","","0","","","","","","","",""
"null","","html-keyboard-response","64","3873681","0.0-6.0-1.3","50","<p><img class= 'stimulus' src='images/baseline/Waterfall 1.jpg'></img></p>","null","","1551567273588","","","","","","",""
"null","","html-keyboard-response","65","3873880","0.0-6.0-2.3","50","<p><img class= 'stimulus' src='images/baseline/horse_statue.jpg'></img></p>","null","","1551567273788","","","","","","",""
"null","","html-keyboard-response","66","3874080","0.0-6.0-3.3","50","<p><img class= 'stimulus' src='images/baseline/pexels-photo-59321.jpeg'></img></p>","null","","1551567273989","","","","","","",""
"null","","html-keyboard-response","67","3874280","0.0-6.0-4.3","50","<p><img class= 'stimulus' src='images/baseline/valley 1.jpg'></img></p>","null","","1551567274189","4","","","","","",""
"null","","html-keyboard-response","68","3874480","0.0-6.0-5.3","50","<p><img class= 'stimulus' src='images/baseline/river 1.jpg'></img></p>","null","","1551567274389","","","","","","",""
"null","","html-keyboard-response","69","3874680","0.0-6.0-6.3","50","<p><img class= 'stimulus left-rotate' src='images/target/skyscraper-3855012_640.jpg'></img></p>","null","","1551567274589","6","","","","","",""
"null","","html-keyboard-response","70","3874879","0.0-6.0-7.3","50","<p><img class= 'stimulus' src='images/baseline/05167v.jpg'></img></p>","null","","1551567274789","","","","","","",""
"null","","html-keyboard-response","71","3875079","0.0-6.0-8.3","50","<p><img class= 'stimulus' src='images/baseline/vintage-art-deco-storefront.jpg'></img></p>","null","","1551567274989","8","","","","","",""
"null","","html-keyboard-response","72","3875279","0.0-6.0-9.3","50","<p><img class= 'stimulus' src='images/baseline/architecture-956332_1280.jpg'></img></p>","null","","1551567275190","","","","","","",""
"null","","html-keyboard-response","73","3875480","0.0-6.0-10.3","50","<p><img class= 'stimulus' src='images/baseline/04130v.jpg'></img></p>","null","","1551567275390","","","","","","",""
"null","","html-keyboard-response","74","3875681","0.0-6.0-11.3","50","<p><img class= 'stimulus' src='images/baseline/landscape40.jpg'></img></p>","null","","1551567275589","","","","","","",""
"null","","html-keyboard-response","75","3875879","0.0-6.0-12.3","50","<p><img class= 'stimulus' src='images/baseline/Aletschgletscher-Eggishorn.jpg'></img></p>","null","","1551567275790","12","","","","","",""
"null","","html-keyboard-response","76","3876080","0.0-6.0-13.3","50","<p><img class= 'stimulus' src='images/baseline/building9.jpg'></img></p>","null","","1551567275990","","","","","","",""
"null","","html-keyboard-response","77","3876280","0.0-6.0-14.3","50","<p><img class= 'stimulus' src='images/baseline/building8.jpg'></img></p>","null","","1551567276190","14","","","","","",""
"null","","html-keyboard-response","78","3876480","0.0-6.0-15.3","50","<p><img class= 'stimulus' src='images/baseline/03217v.jpg'></img></p>","null","","1551567276389","","","","","","",""
"null","","html-keyboard-response","79","3876679","0.0-6.0-16.3","50","<p><img class= 'stimulus' src='images/baseline/building_at_national_conservation.jpg'></img></p>","null","","1551567276589","","","","","","",""
"null","","html-keyboard-response","80","3876896","0.0-6.0-17.3","50","<p><img class= 'stimulus' src='images/baseline/house3.jpg'></img></p>","null","","1551567276790","","","","","","",""
"1070.7999999867752","","html-button-response","81","3878971","0.0-6.0-18.3","50","<div class = ""response_question"">WAS THE IMAGE ROTATED...</div>","","0","","","4","2","bas","left","practice","true"
"1238.6000000406057","","html-button-response","82","3880212","0.0-6.0-0.4","50","","","0","","","","","","","",""
"null","","html-keyboard-response","83","3880346","0.0-6.0-1.4","50","<p><img class= 'stimulus' src='images/baseline/landscape35.jpg'></img></p>","null","","1551567280307","","","","","","",""
"null","","html-keyboard-response","84","3880496","0.0-6.0-2.4","50","<p><img class= 'stimulus' src='images/baseline/farmhouse4.jpg'></img></p>","null","","1551567280455","","","","","","",""
"null","","html-keyboard-response","85","3880646","0.0-6.0-3.4","50","<p><img class= 'stimulus' src='images/baseline/Bahia_Onelli_Parque_Nacional_Los_Glaciares_Patagonia_Argentina_Luca_Galuzzi_2005.jpg'></img></p>","null","","1551567280606","","","","","","",""
"null","","html-keyboard-response","86","3880796","0.0-6.0-4.4","50","<p><img class= 'stimulus' src='images/baseline/landscape6.jpg'></img></p>","null","","1551567280755","4","","","","","",""
"null","","html-keyboard-response","87","3880946","0.0-6.0-5.4","50","<p><img class= 'stimulus' src='images/baseline/building12.jpg'></img></p>","null","","1551567280906","","","","","","",""
"null","","html-keyboard-response","88","3881096","0.0-6.0-6.4","50","<p><img class= 'stimulus' src='images/baseline/Lake 3.jpg'></img></p>","null","","1551567281056","6","","","","","",""
"null","","html-keyboard-response","89","3881246","0.0-6.0-7.4","50","<p><img class= 'stimulus' src='images/baseline/Lake 7.jpg'></img></p>","null","","1551567281206","","","","","","",""
"null","","html-keyboard-response","90","3881396","0.0-6.0-8.4","50","<p><img class= 'stimulus left-rotate' src='images/target/tree1.jpg'></img></p>","null","","1551567281354","8","","","","","",""
"null","","html-keyboard-response","91","3881546","0.0-6.0-9.4","50","<p><img class= 'stimulus' src='images/baseline/04021v.jpg'></img></p>","null","","1551567281505","","","","","","",""
"null","","html-keyboard-response","92","3881696","0.0-6.0-10.4","50","<p><img class= 'stimulus' src='images/baseline/03075v.jpg'></img></p>","null","","1551567281655","","","","","","",""
"null","","html-keyboard-response","93","3881845","0.0-6.0-11.4","50","<p><img class= 'stimulus' src='images/baseline/pexels-photo-1048039.jpeg'></img></p>","null","","1551567281806","","","","","","",""
"null","","html-keyboard-response","94","3881996","0.0-6.0-12.4","50","<p><img class= 'stimulus' src='images/baseline/landscape23.jpg'></img></p>","null","","1551567281955","12","","","","","",""
"null","","html-keyboard-response","95","3882146","0.0-6.0-13.4","50","<p><img class= 'stimulus' src='images/baseline/Happy pose 3.jpg'></img></p>","null","","1551567282105","","","","","","",""
"null","","html-keyboard-response","96","3882296","0.0-6.0-14.4","50","<p><img class= 'stimulus' src='images/baseline/04201v.jpg'></img></p>","null","","1551567282255","14","","","","","",""
"null","","html-keyboard-response","97","3882446","0.0-6.0-15.4","50","<p><img class= 'stimulus' src='images/baseline/05303v.jpg'></img></p>","null","","1551567282404","","","","","","",""
"null","","html-keyboard-response","98","3882596","0.0-6.0-16.4","50","<p><img class= 'stimulus' src='images/baseline/house1.jpg'></img></p>","null","","1551567282555","","","","","","",""
"null","","html-keyboard-response","99","3882762","0.0-6.0-17.4","50","<p><img class= 'stimulus' src='images/baseline/agriculture-bright-clouds-440731.jpg'></img></p>","null","","1551567282705","","","","","","",""
"875.6999999750406","","html-button-response","100","3884651","0.0-6.0-18.4","50","<div class = ""response_question"">WAS THE IMAGE ROTATED...</div>","","0","","","6","2","bas","left","practice","true"
"1494.5999999763444","","html-button-response","101","3886148","0.0-6.0-0.5","50","","","0","","","","","","","",""
"null","","html-keyboard-response","102","3886280","0.0-6.0-1.5","50","<p><img class= 'stimulus' src='images/baseline/farmhouse3.jpg'></img></p>","null","","1551567286239","","","","","","",""
"null","","html-keyboard-response","103","3886429","0.0-6.0-2.5","50","<p><img class= 'stimulus' src='images/baseline/empire-state-building.jpg'></img></p>","null","","1551567286388","","","","","","",""
"null","","html-keyboard-response","104","3886580","0.0-6.0-3.5","50","<p><img class= 'stimulus' src='images/baseline/03212v.jpg'></img></p>","null","","1551567286538","","","","","","",""
"null","","html-keyboard-response","105","3886728","0.0-6.0-4.5","50","<p><img class= 'stimulus' src='images/baseline/lone-old-cottonwood-tree.jpg'></img></p>","null","","1551567286689","4","","","","","",""
"null","","html-keyboard-response","106","3886878","0.0-6.0-5.5","50","<p><img class= 'stimulus' src='images/baseline/Kocherbaumwald-01.jpg'></img></p>","null","","1551567286838","","","","","","",""
"null","","html-keyboard-response","107","3887029","0.0-6.0-6.5","50","<p><img class= 'stimulus' src='images/baseline/Lake 5.jpg'></img></p>","null","","1551567286989","6","","","","","",""
"null","","html-keyboard-response","108","3887185","0.0-6.0-7.5","50","<p><img class= 'stimulus' src='images/baseline/pexels-photo-808465.jpeg'></img></p>","null","","1551567287139","","","","","","",""
"null","","html-keyboard-response","109","3887334","0.0-6.0-8.5","50","<p><img class= 'stimulus' src='images/baseline/field 2.jpg'></img></p>","null","","1551567287293","8","","","","","",""
"null","","html-keyboard-response","110","3887484","0.0-6.0-9.5","50","<p><img class= 'stimulus' src='images/baseline/sunny-landscape-with-dry-brush-and-mountain-background.jpg'></img></p>","null","","1551567287444","","","","","","",""
"null","","html-keyboard-response","111","3887634","0.0-6.0-10.5","50","<p><img class= 'stimulus' src='images/baseline/05161v.jpg'></img></p>","null","","1551567287595","","","","","","",""
"null","","html-keyboard-response","112","3887784","0.0-6.0-11.5","50","<p><img class= 'stimulus' src='images/baseline/architecture_modern_architecture_852928.jpg'></img></p>","null","","1551567287744","","","","","","",""
"null","","html-keyboard-response","113","3887934","0.0-6.0-12.5","50","<p><img class= 'stimulus left-rotate' src='images/target/dreifaltigkeitskirche_sandhausen_837699.jpg'></img></p>","null","","1551567287895","12","","","","","",""
"null","","html-keyboard-response","114","3888085","0.0-6.0-13.5","50","<p><img class= 'stimulus' src='images/baseline/landscape39.jpg'></img></p>","null","","1551567288044","","","","","","",""
"null","","html-keyboard-response","115","3888234","0.0-6.0-14.5","50","<p><img class= 'stimulus' src='images/baseline/dirt-road-or-trail-through-park.jpg'></img></p>","null","","1551567288194","14","","","","","",""
"null","","html-keyboard-response","116","3888384","0.0-6.0-15.5","50","<p><img class= 'stimulus' src='images/baseline/building2.jpg'></img></p>","null","","1551567288344","","","","","","",""
"null","","html-keyboard-response","117","3888534","0.0-6.0-16.5","50","<p><img class= 'stimulus' src='images/baseline/03098v.jpg'></img></p>","null","","1551567288494","","","","","","",""
"null","","html-keyboard-response","118","3888701","0.0-6.0-17.5","50","<p><img class= 'stimulus' src='images/baseline/03112v.jpg'></img></p>","null","","1551567288643","","","","","","",""
"1360.4000000050291","","html-button-response","119","3891065","0.0-6.0-18.5","50","<div class = ""response_question"">WAS THE IMAGE ROTATED...</div>","","0","","","4","8","bas","left","practice","true"
"3062.400000053458","","html-button-response","120","3894130","0.0-6.0-0.6","50","","","0","","","","","","","",""
"null","","html-keyboard-response","121","3894268","0.0-6.0-1.6","50","<p><img class= 'stimulus' src='images/baseline/4k-wallpaper-agriculture-clouds-842711.jpg'></img></p>","null","","1551567294229","","","","","","",""
"null","","html-keyboard-response","122","3894418","0.0-6.0-2.6","50","<p><img class= 'stimulus' src='images/baseline/snowy tree.jpg'></img></p>","null","","1551567294378","","","","","","",""
"null","","html-keyboard-response","123","3894568","0.0-6.0-3.6","50","<p><img class= 'stimulus' src='images/baseline/hills 4.jpg'></img></p>","null","","1551567294528","","","","","","",""
"null","","html-keyboard-response","124","3894717","0.0-6.0-4.6","50","<p><img class= 'stimulus' src='images/baseline/scenic-mountain-landscape.jpg'></img></p>","null","","1551567294678","4","","","","","",""
"null","","html-keyboard-response","125","3894868","0.0-6.0-5.6","50","<p><img class= 'stimulus' src='images/baseline/02960v.jpg'></img></p>","null","","1551567294828","","","","","","",""
"null","","html-keyboard-response","126","3895018","0.0-6.0-6.6","50","<p><img class= 'stimulus' src='images/baseline/pexels-photo-351264.jpeg'></img></p>","null","","1551567294978","6","","","","","",""
"null","","html-keyboard-response","127","3895168","0.0-6.0-7.6","50","<p><img class= 'stimulus' src='images/baseline/building4.jpg'></img></p>","null","","1551567295127","","","","","","",""
"null","","html-keyboard-response","128","3895317","0.0-6.0-8.6","50","<p><img class= 'stimulus' src='images/baseline/landscape14.jpg'></img></p>","null","","1551567295278","8","","","","","",""
"null","","html-keyboard-response","129","3895467","0.0-6.0-9.6","50","<p><img class= 'stimulus' src='images/baseline/landscape8.jpg'></img></p>","null","","1551567295428","","","","","","",""
"null","","html-keyboard-response","130","3895618","0.0-6.0-10.6","50","<p><img class= 'stimulus' src='images/baseline/Street 2.jpg'></img></p>","null","","1551567295578","","","","","","",""
"null","","html-keyboard-response","131","3895768","0.0-6.0-11.6","50","<p><img class= 'stimulus' src='images/baseline/Lake 4.jpg'></img></p>","null","","1551567295728","","","","","","",""
"null","","html-keyboard-response","132","3895918","0.0-6.0-12.6","50","<p><img class= 'stimulus' src='images/target/9525-a-lonely-single-tree-in-a-field-pv.jpg'></img></p>","null","","1551567295878","12","","","","","",""
"null","","html-keyboard-response","133","3896068","0.0-6.0-13.6","50","<p><img class= 'stimulus' src='images/baseline/05179v.jpg'></img></p>","null","","1551567296027","","","","","","",""
"null","","html-keyboard-response","134","3896219","0.0-6.0-14.6","50","<p><img class= 'stimulus' src='images/baseline/pexels-photo-1840893.jpeg'></img></p>","null","","1551567296177","14","","","","","",""
"null","","html-keyboard-response","135","3896367","0.0-6.0-15.6","50","<p><img class= 'stimulus' src='images/baseline/grand-teton-mountains.jpg'></img></p>","null","","1551567296327","","","","","","",""
"null","","html-keyboard-response","136","3896518","0.0-6.0-16.6","50","<p><img class= 'stimulus' src='images/baseline/05280v.jpg'></img></p>","null","","1551567296479","","","","","","",""
"null","","html-keyboard-response","137","3896685","0.0-6.0-17.6","50","<p><img class= 'stimulus' src='images/baseline/Desert_View_Indian_Wells.jpg'></img></p>","null","","1551567296627","","","","","","",""
"729.7999999718741","","html-button-response","138","3898418","0.0-6.0-18.6","50","<div class = ""response_question"">WAS THE IMAGE ROTATED...</div>","","3","","","4","8","bas","right","practice","true"
"2110.0999999325722","","html-button-response","139","3900529","0.0-6.0-0.7","50","","","0","","","","","","","",""
"null","","html-keyboard-response","140","3900651","0.0-6.0-1.7","50","<p><img class= 'stimulus' src='images/baseline/sun-through-winter-tree-branches1.jpg'></img></p>","null","","1551567300611","","","","","","",""
"null","","html-keyboard-response","141","3900801","0.0-6.0-2.7","50","<p><img class= 'stimulus' src='images/baseline/04196v.jpg'></img></p>","null","","1551567300761","","","","","","",""
"null","","html-keyboard-response","142","3900952","0.0-6.0-3.7","50","<p><img class= 'stimulus' src='images/baseline/cranes 1.jpg'></img></p>","null","","1551567300911","","","","","","",""
"null","","html-keyboard-response","143","3901101","0.0-6.0-4.7","50","<p><img class= 'stimulus' src='images/baseline/building6.jpg'></img></p>","null","","1551567301061","4","","","","","",""
"null","","html-keyboard-response","144","3901251","0.0-6.0-5.7","50","<p><img class= 'stimulus' src='images/baseline/road 1(1).jpg'></img></p>","null","","1551567301211","","","","","","",""
"null","","html-keyboard-response","145","3901401","0.0-6.0-6.7","50","<p><img class= 'stimulus' src='images/baseline/Beach 3.jpg'></img></p>","null","","1551567301361","6","","","","","",""
"null","","html-keyboard-response","146","3901552","0.0-6.0-7.7","50","<p><img class= 'stimulus' src='images/baseline/Lake 8.jpg'></img></p>","null","","1551567301510","","","","","","",""
"null","","html-keyboard-response","147","3901701","0.0-6.0-8.7","50","<p><img class= 'stimulus' src='images/baseline/farmhouse6.jpg'></img></p>","null","","1551567301661","8","","","","","",""
"null","","html-keyboard-response","148","3901851","0.0-6.0-9.7","50","<p><img class= 'stimulus' src='images/baseline/Sidewalk 4.jpg'></img></p>","null","","1551567301811","","","","","","",""
"null","","html-keyboard-response","149","3902000","0.0-6.0-10.7","50","<p><img class= 'stimulus' src='images/baseline/building3.jpg'></img></p>","null","","1551567301961","","","","","","",""
"null","","html-keyboard-response","150","3902151","0.0-6.0-11.7","50","<p><img class= 'stimulus' src='images/baseline/house11.jpg'></img></p>","null","","1551567302111","","","","","","",""
"null","","html-keyboard-response","151","3902300","0.0-6.0-12.7","50","<p><img class= 'stimulus' src='images/baseline/farmhouse9.jpg'></img></p>","null","","1551567302261","12","","","","","",""
"null","","html-keyboard-response","152","3902451","0.0-6.0-13.7","50","<p><img class= 'stimulus' src='images/baseline/04060v.jpg'></img></p>","null","","1551567302410","","","","","","",""
"null","","html-keyboard-response","153","3902601","0.0-6.0-14.7","50","<p><img class= 'stimulus left-rotate' src='images/target/cactus2.jpg'></img></p>","null","","1551567302561","14","","","","","",""
"null","","html-keyboard-response","154","3902752","0.0-6.0-15.7","50","<p><img class= 'stimulus' src='images/baseline/landscape15.jpg'></img></p>","null","","1551567302711","","","","","","",""
"null","","html-keyboard-response","155","3902901","0.0-6.0-16.7","50","<p><img class= 'stimulus' src='images/baseline/Sunset 3.jpg'></img></p>","null","","1551567302860","","","","","","",""
"null","","html-keyboard-response","156","3903067","0.0-6.0-17.7","50","<p><img class= 'stimulus' src='images/baseline/pexels-photo-459203.jpeg'></img></p>","null","","1551567303011","","","","","","",""
"1057.299999985844","","html-button-response","157","3905129","0.0-6.0-18.7","50","<div class = ""response_question"">WAS THE IMAGE ROTATED...</div>","","0","","","6","8","bas","left","practice","true"
"3990.4000000096858","","html-button-response","158","3909122","0.0-6.0-0.8","50","","","0","","","","","","","",""
"null","","html-keyboard-response","159","3909203","0.0-6.0-1.8","50","<p><img class= 'stimulus' src='images/baseline/05131v.jpg'></img></p>","null","","1551567309211","","","","","","",""
"null","","html-keyboard-response","160","3909302","0.0-6.0-2.8","50","<p><img class= 'stimulus' src='images/baseline/red rocks from afar.jpg'></img></p>","null","","1551567309310","","","","","","",""
"null","","html-keyboard-response","161","3909401","0.0-6.0-3.8","50","<p><img class= 'stimulus' src='images/baseline/landscape33.jpg'></img></p>","null","","1551567309410","","","","","","",""
"null","","html-keyboard-response","162","3909501","0.0-6.0-4.8","50","<p><img class= 'stimulus' src='images/baseline/lake 1.jpg'></img></p>","null","","1551567309510","4","","","","","",""
"null","","html-keyboard-response","163","3909602","0.0-6.0-5.8","50","<p><img class= 'stimulus' src='images/baseline/house2.jpg'></img></p>","null","","1551567309611","","","","","","",""
"null","","html-keyboard-response","164","3909701","0.0-6.0-6.8","50","<p><img class= 'stimulus' src='images/baseline/hiking-trail.jpg'></img></p>","null","","1551567309711","6","","","","","",""
"null","","html-keyboard-response","165","3909801","0.0-6.0-7.8","50","<p><img class= 'stimulus' src='images/baseline/__08_-_ITALY_-_Forli_under_snow_-_winter_landscape_of_city_(christmas).jpg'></img></p>","null","","1551567309811","","","","","","",""
"null","","html-keyboard-response","166","3909901","0.0-6.0-8.8","50","<p><img class= 'stimulus' src='images/baseline/pexels-photo-1054289.jpeg'></img></p>","null","","1551567309910","8","","","","","",""
"null","","html-keyboard-response","167","3910001","0.0-6.0-9.8","50","<p><img class= 'stimulus' src='images/baseline/04031v.jpg'></img></p>","null","","1551567310011","","","","","","",""
"null","","html-keyboard-response","168","3910101","0.0-6.0-10.8","50","<p><img class= 'stimulus' src='images/baseline/pexels-photo-259280.jpeg'></img></p>","null","","1551567310110","","","","","","",""
"null","","html-keyboard-response","169","3910201","0.0-6.0-11.8","50","<p><img class= 'stimulus' src='images/baseline/farmhouse2.jpg'></img></p>","null","","1551567310210","","","","","","",""
"null","","html-keyboard-response","170","3910301","0.0-6.0-12.8","50","<p><img class= 'stimulus left-rotate' src='images/target/buildin.png'></img></p>","null","","1551567310310","12","","","","","",""
"null","","html-keyboard-response","171","3910401","0.0-6.0-13.8","50","<p><img class= 'stimulus' src='images/baseline/05198v.jpg'></img></p>","null","","1551567310410","","","","","","",""
"null","","html-keyboard-response","172","3910501","0.0-6.0-14.8","50","<p><img class= 'stimulus' src='images/baseline/03162v.jpg'></img></p>","null","","1551567310510","14","","","","","",""
"null","","html-keyboard-response","173","3910601","0.0-6.0-15.8","50","<p><img class= 'stimulus' src='images/baseline/04064v.jpg'></img></p>","null","","1551567310611","","","","","","",""
"null","","html-keyboard-response","174","3910702","0.0-6.0-16.8","50","<p><img class= 'stimulus' src='images/baseline/05242v.jpg'></img></p>","null","","1551567310710","","","","","","",""
"null","","html-keyboard-response","175","3910818","0.0-6.0-17.8","50","<p><img class= 'stimulus' src='images/baseline/pexels-photo-1837621.jpeg'></img></p>","null","","1551567310812","","","","","","",""
"754.7999999951571","","html-button-response","176","3912577","0.0-6.0-18.8","50","<div class = ""response_question"">WAS THE IMAGE ROTATED...</div>","","0","","","4","8","bas","left","practice","true"
"1390.4000000329688","","html-button-response","177","3913970","0.0-6.0-0.9","50","","","0","","","","","","","",""
"null","","html-keyboard-response","178","3914051","0.0-6.0-1.9","50","<p><img class= 'stimulus' src='images/baseline/Skyscraper 2.jpg'></img></p>","null","","1551567314060","","","","","","",""
"null","","html-keyboard-response","179","3914151","0.0-6.0-2.9","50","<p><img class= 'stimulus' src='images/baseline/landscape22.jpg'></img></p>","null","","1551567314160","","","","","","",""
"null","","html-keyboard-response","180","3914252","0.0-6.0-3.9","50","<p><img class= 'stimulus' src='images/baseline/04062v.jpg'></img></p>","null","","1551567314261","","","","","","",""
"null","","html-keyboard-response","181","3914352","0.0-6.0-4.9","50","<p><img class= 'stimulus' src='images/baseline/Sky 1.jpg'></img></p>","null","","1551567314361","4","","","","","",""
"null","","html-keyboard-response","182","3914451","0.0-6.0-5.9","50","<p><img class= 'stimulus' src='images/baseline/pexels-photo-568236.jpeg'></img></p>","null","","1551567314461","","","","","","",""
"null","","html-keyboard-response","183","3914551","0.0-6.0-6.9","50","<p><img class= 'stimulus' src='images/baseline/05189v.jpg'></img></p>","null","","1551567314561","6","","","","","",""
"null","","html-keyboard-response","184","3914652","0.0-6.0-7.9","50","<p><img class= 'stimulus' src='images/baseline/landscape7.jpg'></img></p>","null","","1551567314661","","","","","","",""
"null","","html-keyboard-response","185","3914752","0.0-6.0-8.9","50","<p><img class= 'stimulus' src='images/baseline/church-silhouette-8712964986014Kb.jpg'></img></p>","null","","1551567314761","8","","","","","",""
"null","","html-keyboard-response","186","3914851","0.0-6.0-9.9","50","<p><img class= 'stimulus' src='images/baseline/lookout_tower.jpg'></img></p>","null","","1551567314861","","","","","","",""
"null","","html-keyboard-response","187","3914952","0.0-6.0-10.9","50","<p><img class= 'stimulus' src='images/baseline/Nature 2.jpg'></img></p>","null","","1551567314960","","","","","","",""
"null","","html-keyboard-response","188","3915052","0.0-6.0-11.9","50","<p><img class= 'stimulus' src='images/baseline/autumn-landscape-with-lake-fall-trees-mountains.jpg'></img></p>","null","","1551567315062","","","","","","",""
"null","","html-keyboard-response","189","3915151","0.0-6.0-12.9","50","<p><img class= 'stimulus' src='images/target/adventure-desert-landscape-6778.jpg'></img></p>","null","","1551567315160","12","","","","","",""
"null","","html-keyboard-response","190","3915252","0.0-6.0-13.9","50","<p><img class= 'stimulus' src='images/baseline/chicago-skyline-at-night-1476869511p8U.jpg'></img></p>","null","","1551567315260","","","","","","",""
"null","","html-keyboard-response","191","3915352","0.0-6.0-14.9","50","<p><img class= 'stimulus' src='images/baseline/Dirt 2.jpg'></img></p>","null","","1551567315362","14","","","","","",""
"null","","html-keyboard-response","192","3915452","0.0-6.0-15.9","50","<p><img class= 'stimulus' src='images/baseline/03201v.jpg'></img></p>","null","","1551567315460","","","","","","",""
"null","","html-keyboard-response","193","3915552","0.0-6.0-16.9","50","<p><img class= 'stimulus' src='images/baseline/Lake 15.jpg'></img></p>","null","","1551567315561","","","","","","",""
"null","","html-keyboard-response","194","3915668","0.0-6.0-17.9","50","<p><img class= 'stimulus' src='images/baseline/04300v.jpg'></img></p>","null","","1551567315660","","","","","","",""
"793.0000000633299","","html-button-response","195","3917465","0.0-6.0-18.9","50","<div class = ""response_question"">WAS THE IMAGE ROTATED...</div>","","3","","","4","8","bas","right","practice","true"
"1981.8999998969957","","html-button-response","196","3919449","0.0-6.0-0.10","50","","","0","","","","","","","",""
"null","","html-keyboard-response","197","3919535","0.0-6.0-1.10","50","<p><img class= 'stimulus' src='images/baseline/Lake 14.jpg'></img></p>","null","","1551567319544","","","","","","",""
"null","","html-keyboard-response","198","3919635","0.0-6.0-2.10","50","<p><img class= 'stimulus' src='images/baseline/05240v.jpg'></img></p>","null","","1551567319644","","","","","","",""
"null","","html-keyboard-response","199","3919735","0.0-6.0-3.10","50","<p><img class= 'stimulus' src='images/baseline/Sunset 6.jpg'></img></p>","null","","1551567319745","","","","","","",""
"null","","html-keyboard-response","200","3919834","0.0-6.0-4.10","50","<p><img class= 'stimulus' src='images/baseline/landscape34.jpg'></img></p>","null","","1551567319844","4","","","","","",""
"null","","html-keyboard-response","201","3919935","0.0-6.0-5.10","50","<p><img class= 'stimulus' src='images/baseline/flooded-bridge.jpg'></img></p>","null","","1551567319943","","","","","","",""
"null","","html-keyboard-response","202","3920035","0.0-6.0-6.10","50","<p><img class= 'stimulus' src='images/baseline/05247v.jpg'></img></p>","null","","1551567320043","6","","","","","",""
"null","","html-keyboard-response","203","3920135","0.0-6.0-7.10","50","<p><img class= 'stimulus' src='images/baseline/lake 2.jpg'></img></p>","null","","1551567320145","","","","","","",""
"null","","html-keyboard-response","204","3920235","0.0-6.0-8.10","50","<p><img class= 'stimulus' src='images/baseline/02977v.jpg'></img></p>","null","","1551567320243","8","","","","","",""
"null","","html-keyboard-response","205","3920335","0.0-6.0-9.10","50","<p><img class= 'stimulus' src='images/baseline/99_-_Machu_Picchu_-_Juin_2009.edit3.jpg'></img></p>","null","","1551567320344","","","","","","",""
"null","","html-keyboard-response","206","3920434","0.0-6.0-10.10","50","<p><img class= 'stimulus' src='images/baseline/02947v.jpg'></img></p>","null","","1551567320444","","","","","","",""
"null","","html-keyboard-response","207","3920534","0.0-6.0-11.10","50","<p><img class= 'stimulus' src='images/baseline/03180v.jpg'></img></p>","null","","1551567320544","","","","","","",""
"null","","html-keyboard-response","208","3920636","0.0-6.0-12.10","50","<p><img class= 'stimulus' src='images/baseline/building16.jpg'></img></p>","null","","1551567320644","12","","","","","",""
"null","","html-keyboard-response","209","3920735","0.0-6.0-13.10","50","<p><img class= 'stimulus' src='images/baseline/road.jpg'></img></p>","null","","1551567320744","","","","","","",""
"null","","html-keyboard-response","210","3920834","0.0-6.0-14.10","50","<p><img class= 'stimulus left-rotate' src='images/target/beach1.jpeg'></img></p>","null","","1551567320844","14","","","","","",""
"null","","html-keyboard-response","211","3920935","0.0-6.0-15.10","50","<p><img class= 'stimulus' src='images/baseline/05279v.jpg'></img></p>","null","","1551567320945","","","","","","",""
"null","","html-keyboard-response","212","3921034","0.0-6.0-16.10","50","<p><img class= 'stimulus' src='images/baseline/seoul-410266_1920.jpg'></img></p>","null","","1551567321043","","","","","","",""
"null","","html-keyboard-response","213","3921151","0.0-6.0-17.10","50","<p><img class= 'stimulus' src='images/baseline/Sailing 3.jpg'></img></p>","null","","1551567321144","","","","","","",""
"694.5999999297783","","html-button-response","214","3922849","0.0-6.0-18.10","50","<div class = ""response_question"">WAS THE IMAGE ROTATED...</div>","","0","","","6","8","bas","left","practice","true"
"1462.3999999603257","","html-button-response","215","3924314","0.0-6.0-0.11","50","","","0","","","","","","","",""
"null","","html-keyboard-response","216","3924385","0.0-6.0-1.11","50","<p><img class= 'stimulus' src='images/baseline/05255v.jpg'></img></p>","null","","1551567324394","","","","","","",""
"null","","html-keyboard-response","217","3924485","0.0-6.0-2.11","50","<p><img class= 'stimulus' src='images/baseline/bird-flying-at-sunset.jpg'></img></p>","null","","1551567324494","","","","","","",""
"null","","html-keyboard-response","218","3924584","0.0-6.0-3.11","50","<p><img class= 'stimulus' src='images/baseline/building5.jpg'></img></p>","null","","1551567324594","","","","","","",""
"null","","html-keyboard-response","219","3924685","0.0-6.0-4.11","50","<p><img class= 'stimulus' src='images/baseline/hills 3.jpg'></img></p>","null","","1551567324694","4","","","","","",""
"null","","html-keyboard-response","220","3924784","0.0-6.0-5.11","50","<p><img class= 'stimulus' src='images/baseline/04158v.jpg'></img></p>","null","","1551567324794","","","","","","",""
"null","","html-keyboard-response","221","3924885","0.0-6.0-6.11","50","<p><img class= 'stimulus' src='images/baseline/Beach 2.jpg'></img></p>","null","","1551567324895","6","","","","","",""
"null","","html-keyboard-response","222","3924985","0.0-6.0-7.11","50","<p><img class= 'stimulus' src='images/baseline/04284v.jpg'></img></p>","null","","1551567324994","","","","","","",""
"null","","html-keyboard-response","223","3925085","0.0-6.0-8.11","50","<p><img class= 'stimulus' src='images/target/sand-3339890_640.jpg'></img></p>","null","","1551567325095","8","","","","","",""
"null","","html-keyboard-response","224","3925186","0.0-6.0-9.11","50","<p><img class= 'stimulus' src='images/baseline/field 1.jpg'></img></p>","null","","1551567325194","","","","","","",""
"null","","html-keyboard-response","225","3925285","0.0-6.0-10.11","50","<p><img class= 'stimulus' src='images/baseline/04040v.jpg'></img></p>","null","","1551567325295","","","","","","",""
"null","","html-keyboard-response","226","3925384","0.0-6.0-11.11","50","<p><img class= 'stimulus' src='images/baseline/pexels-photo-1261728.jpeg'></img></p>","null","","1551567325394","","","","","","",""
"null","","html-keyboard-response","227","3925485","0.0-6.0-12.11","50","<p><img class= 'stimulus' src='images/baseline/04085v.jpg'></img></p>","null","","1551567325495","12","","","","","",""
"null","","html-keyboard-response","228","3925584","0.0-6.0-13.11","50","<p><img class= 'stimulus' src='images/baseline/05292v.jpg'></img></p>","null","","1551567325595","","","","","","",""
"null","","html-keyboard-response","229","3925685","0.0-6.0-14.11","50","<p><img class= 'stimulus' src='images/baseline/landscape3.jpg'></img></p>","null","","1551567325695","14","","","","","",""
"null","","html-keyboard-response","230","3925785","0.0-6.0-15.11","50","<p><img class= 'stimulus' src='images/baseline/pexels-photo-221125.jpeg'></img></p>","null","","1551567325793","","","","","","",""
"null","","html-keyboard-response","231","3925884","0.0-6.0-16.11","50","<p><img class= 'stimulus' src='images/baseline/landscape12.jpg'></img></p>","null","","1551567325894","","","","","","",""
"null","","html-keyboard-response","232","3926002","0.0-6.0-17.11","50","<p><img class= 'stimulus' src='images/baseline/pexels-photo-534164.jpeg'></img></p>","null","","1551567325994","","","","","","",""
"749.0000000689179","","html-button-response","233","3927754","0.0-6.0-18.11","50","<div class = ""response_question"">WAS THE IMAGE ROTATED...</div>","","3","","","6","2","bas","right","practice","true"
"2046.3999999919906","","html-button-response","234","3929801","0.0-6.0-0.12","50","","","0","","","","","","","",""
"null","","html-keyboard-response","235","3929885","0.0-6.0-1.12","50","<p><img class= 'stimulus' src='images/baseline/kokkari-1523011968Xfr.jpg'></img></p>","null","","1551567329895","","","","","","",""
"null","","html-keyboard-response","236","3929985","0.0-6.0-2.12","50","<p><img class= 'stimulus' src='images/baseline/04117v.jpg'></img></p>","null","","1551567329994","","","","","","",""
"null","","html-keyboard-response","237","3930084","0.0-6.0-3.12","50","<p><img class= 'stimulus' src='images/baseline/architecture-1314416_1920.jpg'></img></p>","null","","1551567330094","","","","","","",""
"null","","html-keyboard-response","238","3930185","0.0-6.0-4.12","50","<p><img class= 'stimulus' src='images/baseline/landscape4.jpg'></img></p>","null","","1551567330193","4","","","","","",""
"null","","html-keyboard-response","239","3930285","0.0-6.0-5.12","50","<p><img class= 'stimulus' src='images/baseline/meadow-with-mountain-in-background.jpg'></img></p>","null","","1551567330293","","","","","","",""
"null","","html-keyboard-response","240","3930385","0.0-6.0-6.12","50","<p><img class= 'stimulus' src='images/baseline/Peyto_Lake-Banff_NP-Canada.jpg'></img></p>","null","","1551567330394","6","","","","","",""
"null","","html-keyboard-response","241","3930485","0.0-6.0-7.12","50","<p><img class= 'stimulus' src='images/baseline/pexels-photo-541101.jpeg'></img></p>","null","","1551567330495","","","","","","",""
"null","","html-keyboard-response","242","3930585","0.0-6.0-8.12","50","<p><img class= 'stimulus left-rotate' src='images/target/pexels-photo-602607.jpeg'></img></p>","null","","1551567330595","8","","","","","",""
"null","","html-keyboard-response","243","3930686","0.0-6.0-9.12","50","<p><img class= 'stimulus' src='images/baseline/landscape17.jpg'></img></p>","null","","1551567330694","","","","","","",""
"null","","html-keyboard-response","244","3930785","0.0-6.0-10.12","50","<p><img class= 'stimulus' src='images/baseline/Grass 6.jpg'></img></p>","null","","1551567330794","","","","","","",""
"null","","html-keyboard-response","245","3930885","0.0-6.0-11.12","50","<p><img class= 'stimulus' src='images/baseline/03114v.jpg'></img></p>","null","","1551567330896","","","","","","",""
"null","","html-keyboard-response","246","3930986","0.0-6.0-12.12","50","<p><img class= 'stimulus' src='images/baseline/02962v.jpg'></img></p>","null","","1551567330996","12","","","","","",""
"null","","html-keyboard-response","247","3931085","0.0-6.0-13.12","50","<p><img class= 'stimulus' src='images/baseline/Lake 16.jpg'></img></p>","null","","1551567331095","","","","","","",""
"null","","html-keyboard-response","248","3931184","0.0-6.0-14.12","50","<p><img class= 'stimulus' src='images/baseline/Cold 7.jpg'></img></p>","null","","1551567331195","14","","","","","",""
"null","","html-keyboard-response","249","3931285","0.0-6.0-15.12","50","<p><img class= 'stimulus' src='images/baseline/farmhouse8.jpg'></img></p>","null","","1551567331294","","","","","","",""
"null","","html-keyboard-response","250","3931385","0.0-6.0-16.12","50","<p><img class= 'stimulus' src='images/baseline/pexels-photo-750108.jpeg'></img></p>","null","","1551567331395","","","","","","",""
"null","","html-keyboard-response","251","3931502","0.0-6.0-17.12","50","<p><img class= 'stimulus' src='images/baseline/house7.jpg'></img></p>","null","","1551567331494","","","","","","",""
"736.0999999800697","","html-button-response","252","3933241","0.0-6.0-18.12","50","<div class = ""response_question"">WAS THE IMAGE ROTATED...</div>","","0","","","6","2","bas","left","practice","true"
"942.5000000046566","","html-button-response","253","3934186","0.0-6.0-0.13","50","","","0","","","","","","","",""
"null","","html-keyboard-response","254","3934268","0.0-6.0-1.13","50","<p><img class= 'stimulus' src='images/baseline/house6.jpg'></img></p>","null","","1551567334278","","","","","","",""
"null","","html-keyboard-response","255","3934369","0.0-6.0-2.13","50","<p><img class= 'stimulus' src='images/baseline/02988v.jpg'></img></p>","null","","1551567334377","","","","","","",""
"null","","html-keyboard-response","256","3934467","0.0-6.0-3.13","50","<p><img class= 'stimulus' src='images/baseline/landscape37.jpg'></img></p>","null","","1551567334478","","","","","","",""
"null","","html-keyboard-response","257","3934569","0.0-6.0-4.13","50","<p><img class= 'stimulus' src='images/baseline/pexels-photo-1287089.jpeg'></img></p>","null","","1551567334577","4","","","","","",""
"null","","html-keyboard-response","258","3934669","0.0-6.0-5.13","50","<p><img class= 'stimulus' src='images/baseline/landscape29.jpg'></img></p>","null","","1551567334678","","","","","","",""
"null","","html-keyboard-response","259","3934768","0.0-6.0-6.13","50","<p><img class= 'stimulus' src='images/target/petronas-towers-433081_1920.jpg'></img></p>","null","","1551567334778","6","","","","","",""
"null","","html-keyboard-response","260","3934869","0.0-6.0-7.13","50","<p><img class= 'stimulus' src='images/baseline/05252v.jpg'></img></p>","null","","1551567334877","","","","","","",""
"null","","html-keyboard-response","261","3934968","0.0-6.0-8.13","50","<p><img class= 'stimulus' src='images/baseline/Camping 10.jpg'></img></p>","null","","1551567334977","8","","","","","",""
"null","","html-keyboard-response","262","3935068","0.0-6.0-9.13","50","<p><img class= 'stimulus' src='images/baseline/agriculture-countryside-crop-259280.jpg'></img></p>","null","","1551567335078","","","","","","",""
"null","","html-keyboard-response","263","3935170","0.0-6.0-10.13","50","<p><img class= 'stimulus' src='images/baseline/04098v.jpg'></img></p>","null","","1551567335179","","","","","","",""
"null","","html-keyboard-response","264","3935268","0.0-6.0-11.13","50","<p><img class= 'stimulus' src='images/baseline/Bridge 1.jpg'></img></p>","null","","1551567335278","","","","","","",""
"null","","html-keyboard-response","265","3935368","0.0-6.0-12.13","50","<p><img class= 'stimulus' src='images/baseline/04063v.jpg'></img></p>","null","","1551567335378","12","","","","","",""
"null","","html-keyboard-response","266","3935469","0.0-6.0-13.13","50","<p><img class= 'stimulus' src='images/baseline/04193v.jpg'></img></p>","null","","1551567335477","","","","","","",""
"null","","html-keyboard-response","267","3935568","0.0-6.0-14.13","50","<p><img class= 'stimulus' src='images/baseline/red-rocks-park.jpg'></img></p>","null","","1551567335578","14","","","","","",""
"null","","html-keyboard-response","268","3935669","0.0-6.0-15.13","50","<p><img class= 'stimulus' src='images/baseline/05264v.jpg'></img></p>","null","","1551567335678","","","","","","",""
"null","","html-keyboard-response","269","3935768","0.0-6.0-16.13","50","<p><img class= 'stimulus' src='images/baseline/04179v.jpg'></img></p>","null","","1551567335777","","","","","","",""
"null","","html-keyboard-response","270","3935885","0.0-6.0-17.13","50","<p><img class= 'stimulus' src='images/baseline/Street 1.jpg'></img></p>","null","","1551567335879","","","","","","",""
"881.0999999986961","","html-button-response","271","3937769","0.0-6.0-18.13","50","<div class = ""response_question"">WAS THE IMAGE ROTATED...</div>","","3","","","4","2","bas","right","practice","true"
"965.4999999329448","","html-button-response","272","3938737","0.0-6.0-0.14","50","","","0","","","","","","","",""
"null","","html-keyboard-response","273","3938819","0.0-6.0-1.14","50","<p><img class= 'stimulus' src='images/baseline/05158v.jpg'></img></p>","null","","1551567338828","","","","","","",""
"null","","html-keyboard-response","274","3938919","0.0-6.0-2.14","50","<p><img class= 'stimulus' src='images/baseline/05139v.jpg'></img></p>","null","","1551567338928","","","","","","",""
"null","","html-keyboard-response","275","3939018","0.0-6.0-3.14","50","<p><img class= 'stimulus' src='images/baseline/Freudenberg_sg_Switzerland.jpg'></img></p>","null","","1551567339027","","","","","","",""
"null","","html-keyboard-response","276","3939118","0.0-6.0-4.14","50","<p><img class= 'stimulus' src='images/baseline/03220v.jpg'></img></p>","null","","1551567339127","4","","","","","",""
"null","","html-keyboard-response","277","3939217","0.0-6.0-5.14","50","<p><img class= 'stimulus' src='images/baseline/Beach 8.jpg'></img></p>","null","","1551567339228","","","","","","",""
"null","","html-keyboard-response","278","3939319","0.0-6.0-6.14","50","<p><img class= 'stimulus' src='images/baseline/04222v.jpg'></img></p>","null","","1551567339329","6","","","","","",""
"null","","html-keyboard-response","279","3939418","0.0-6.0-7.14","50","<p><img class= 'stimulus' src='images/baseline/03045v.jpg'></img></p>","null","","1551567339429","","","","","","",""
"null","","html-keyboard-response","280","3939518","0.0-6.0-8.14","50","<p><img class= 'stimulus' src='images/baseline/landscape36.jpg'></img></p>","null","","1551567339529","8","","","","","",""
"null","","html-keyboard-response","281","3939618","0.0-6.0-9.14","50","<p><img class= 'stimulus' src='images/baseline/city-silhouette-at-sunset-871291580819Esw.jpg'></img></p>","null","","1551567339627","","","","","","",""
"null","","html-keyboard-response","282","3939718","0.0-6.0-10.14","50","<p><img class= 'stimulus' src='images/baseline/hills 1.jpg'></img></p>","null","","1551567339728","","","","","","",""
"null","","html-keyboard-response","283","3939818","0.0-6.0-11.14","50","<p><img class= 'stimulus' src='images/baseline/house8.jpg'></img></p>","null","","1551567339828","","","","","","",""
"null","","html-keyboard-response","284","3939919","0.0-6.0-12.14","50","<p><img class= 'stimulus' src='images/baseline/Skyscraper 1.jpg'></img></p>","null","","1551567339929","12","","","","","",""
"null","","html-keyboard-response","285","3940018","0.0-6.0-13.14","50","<p><img class= 'stimulus' src='images/baseline/02971v.jpg'></img></p>","null","","1551567340027","","","","","","",""
"null","","html-keyboard-response","286","3940119","0.0-6.0-14.14","50","<p><img class= 'stimulus' src='images/target/landscape_1.jpg'></img></p>","null","","1551567340128","14","","","","","",""
"null","","html-keyboard-response","287","3940218","0.0-6.0-15.14","50","<p><img class= 'stimulus' src='images/baseline/Paysage_enneige_02.jpg'></img></p>","null","","1551567340228","","","","","","",""
"null","","html-keyboard-response","288","3940318","0.0-6.0-16.14","50","<p><img class= 'stimulus' src='images/baseline/Path 1.jpg'></img></p>","null","","1551567340328","","","","","","",""
"null","","html-keyboard-response","289","3940435","0.0-6.0-17.14","50","<p><img class= 'stimulus' src='images/baseline/house10.jpg'></img></p>","null","","1551567340428","","","","","","",""
"3257.5000000651926","","html-button-response","290","3944698","0.0-6.0-18.14","50","<div class = ""response_question"">WAS THE IMAGE ROTATED...</div>","","2","","","6","8","bas","right","practice","false"
"3382.1000000461936","","html-button-response","291","3948076","0.0-6.0-0.15","50","","","0","","","","","","","",""
"null","","html-keyboard-response","292","3948163","0.0-6.0-1.15","50","<p><img class= 'stimulus' src='images/baseline/landscape31.jpg'></img></p>","null","","1551567348173","","","","","","",""
"null","","html-keyboard-response","293","3948263","0.0-6.0-2.15","50","<p><img class= 'stimulus' src='images/baseline/autumn-in-red-rocks-park.jpg'></img></p>","null","","1551567348273","","","","","","",""
"null","","html-keyboard-response","294","3948363","0.0-6.0-3.15","50","<p><img class= 'stimulus' src='images/baseline/Skijump 1.jpg'></img></p>","null","","1551567348372","","","","","","",""
"null","","html-keyboard-response","295","3948463","0.0-6.0-4.15","50","<p><img class= 'stimulus' src='images/baseline/geese-flying-over-lake-at-dusk.jpg'></img></p>","null","","1551567348472","4","","","","","",""
"null","","html-keyboard-response","296","3948563","0.0-6.0-5.15","50","<p><img class= 'stimulus' src='images/baseline/03204v.jpg'></img></p>","null","","1551567348572","","","","","","",""
"null","","html-keyboard-response","297","3948663","0.0-6.0-6.15","50","<p><img class= 'stimulus left-rotate' src='images/target/oak-456524_640.jpg'></img></p>","null","","1551567348673","6","","","","","",""
"null","","html-keyboard-response","298","3948763","0.0-6.0-7.15","50","<p><img class= 'stimulus' src='images/baseline/sunset-over-the-lake.jpg'></img></p>","null","","1551567348772","","","","","","",""
"null","","html-keyboard-response","299","3948863","0.0-6.0-8.15","50","<p><img class= 'stimulus' src='images/baseline/03148v.jpg'></img></p>","null","","1551567348874","8","","","","","",""
"null","","html-keyboard-response","300","3948962","0.0-6.0-9.15","50","<p><img class= 'stimulus' src='images/baseline/landscape16.jpg'></img></p>","null","","1551567348973","","","","","","",""
"null","","html-keyboard-response","301","3949062","0.0-6.0-10.15","50","<p><img class= 'stimulus' src='images/baseline/05203v.jpg'></img></p>","null","","1551567349072","","","","","","",""
"null","","html-keyboard-response","302","3949162","0.0-6.0-11.15","50","<p><img class= 'stimulus' src='images/baseline/foreclosed_home.jpg'></img></p>","null","","1551567349172","","","","","","",""
"null","","html-keyboard-response","303","3949262","0.0-6.0-12.15","50","<p><img class= 'stimulus' src='images/baseline/landscape19.jpg'></img></p>","null","","1551567349272","12","","","","","",""
"null","","html-keyboard-response","304","3949362","0.0-6.0-13.15","50","<p><img class= 'stimulus' src='images/baseline/03066v.jpg'></img></p>","null","","1551567349371","","","","","","",""
"null","","html-keyboard-response","305","3949462","0.0-6.0-14.15","50","<p><img class= 'stimulus' src='images/baseline/Nature 1.jpg'></img></p>","null","","1551567349472","14","","","","","",""
"null","","html-keyboard-response","306","3949563","0.0-6.0-15.15","50","<p><img class= 'stimulus' src='images/baseline/Waterfall 1.jpg'></img></p>","null","","1551567349572","","","","","","",""
"null","","html-keyboard-response","307","3949664","0.0-6.0-16.15","50","<p><img class= 'stimulus' src='images/baseline/03075v.jpg'></img></p>","null","","1551567349673","","","","","","",""
"null","","html-keyboard-response","308","3949779","0.0-6.0-17.15","50","<p><img class= 'stimulus' src='images/baseline/landscape7.jpg'></img></p>","null","","1551567349773","","","","","","",""
"821.5000000782311","","html-button-response","309","3951604","0.0-6.0-18.15","50","<div class = ""response_question"">WAS THE IMAGE ROTATED...</div>","","0","","","4","2","bas","left","practice","true"
"35326.29999995697","","html-button-response","310","3986931","0.0-7.0","50","<p>You have now completed the practice phase. We will now begin the real trials.         This is a reminder that you will be searching for a rotated image among the series of upright images.</p>         <p>Remember, please do not blink or move your eyes while the images are on the screen.</p>         <p>At the end of the experiment, the experimenter will be able to show you how accurate you were.</p>","","0","","","","","","","",""
"5214.8000000743195","","html-button-response","311","3992147","0.0-8.0-0.0-0.0","50","","","0","","","","","","","",""
"null","","html-keyboard-response","312","3992229","0.0-8.0-0.0-1.0","50","<p><img class= 'stimulus' src='images/baseline/Lake 7.jpg'></img></p>","null","","1551567392239","","","","","","",""
"null","","html-keyboard-response","313","3992330","0.0-8.0-0.0-2.0","50","<p><img class= 'stimulus' src='images/baseline/chicago-skyline-at-night-1476869511p8U.jpg'></img></p>","null","","1551567392339","","","","","","",""
"null","","html-keyboard-response","314","3992430","0.0-8.0-0.0-3.0","50","<p><img class= 'stimulus' src='images/baseline/03162v.jpg'></img></p>","null","","1551567392439","","","","","","",""
"null","","html-keyboard-response","315","3992530","0.0-8.0-0.0-4.0","50","<p><img class= 'stimulus' src='images/baseline/lake 2.jpg'></img></p>","null","","1551567392539","4","","","","","",""
"null","","html-keyboard-response","316","3992631","0.0-8.0-0.0-5.0","50","<p><img class= 'stimulus' src='images/baseline/farmhouse1.jpg'></img></p>","null","","1551567392638","","","","","","",""
"null","","html-keyboard-response","317","3992730","0.0-8.0-0.0-6.0","50","<p><img class= 'stimulus' src='images/baseline/agriculture-countryside-crop-259280.jpg'></img></p>","null","","1551567392739","6","","","","","",""
"null","","html-keyboard-response","318","3992830","0.0-8.0-0.0-7.0","50","<p><img class= 'stimulus' src='images/baseline/tennis-court-net-buried-in-snow.jpg'></img></p>","null","","1551567392839","","","","","","",""
"null","","html-keyboard-response","319","3992930","0.0-8.0-0.0-8.0","50","<p><img class= 'stimulus' src='images/baseline/landscape3.jpg'></img></p>","null","","1551567392940","8","","","","","",""
"null","","html-keyboard-response","320","3993031","0.0-8.0-0.0-9.0","50","<p><img class= 'stimulus' src='images/baseline/Nature 2.jpg'></img></p>","null","","1551567393039","","","","","","",""
"null","","html-keyboard-response","321","3993130","0.0-8.0-0.0-10.0","50","<p><img class= 'stimulus' src='images/baseline/Desert_View_Indian_Wells.jpg'></img></p>","null","","1551567393140","","","","","","",""
"null","","html-keyboard-response","322","3993230","0.0-8.0-0.0-11.0","50","<p><img class= 'stimulus' src='images/baseline/pexels-photo-427676.jpeg'></img></p>","null","","1551567393238","","","","","","",""
"null","","html-keyboard-response","323","3993330","0.0-8.0-0.0-12.0","50","<p><img class= 'stimulus' src='images/baseline/vintage-art-deco-storefront.jpg'></img></p>","null","","1551567393338","12","","","","","",""
"null","","html-keyboard-response","324","3993429","0.0-8.0-0.0-13.0","50","<p><img class= 'stimulus' src='images/baseline/sunset-over-the-lake.jpg'></img></p>","null","","1551567393439","","","","","","",""
"null","","html-keyboard-response","325","3993529","0.0-8.0-0.0-14.0","50","<p><img class= 'stimulus' src='images/target/coconut-3396945_640.jpg'></img></p>","null","","1551567393538","14","","","","","",""
"null","","html-keyboard-response","326","3993629","0.0-8.0-0.0-15.0","50","<p><img class= 'stimulus' src='images/baseline/04062v.jpg'></img></p>","null","","1551567393639","","","","","","",""
"null","","html-keyboard-response","327","3993730","0.0-8.0-0.0-16.0","50","<p><img class= 'stimulus' src='images/baseline/03045v.jpg'></img></p>","null","","1551567393739","","","","","","",""
"null","","html-keyboard-response","328","3993846","0.0-8.0-0.0-17.0","50","<p><img class= 'stimulus' src='images/baseline/Linden,_paysage.jpg'></img></p>","null","","1551567393839","","","","","","",""
"1278.9999999804422","","html-button-response","329","3996132","0.0-8.0-0.0-18.0","50","<div class = ""response_question"">WAS THE IMAGE ROTATED...</div>","","3","","","6","8","bas","right","test","true"
"4021.699999924749","","html-button-response","330","4000156","0.0-8.0-0.0-0.1","50","","","0","","","","","","","",""
"null","","html-keyboard-response","331","4000229","0.0-8.0-0.0-1.1","50","<p><img class= 'stimulus' src='images/baseline/valley 2.jpg'></img></p>","null","","1551567400238","","","","","","",""
"null","","html-keyboard-response","332","4000330","0.0-8.0-0.0-2.1","50","<p><img class= 'stimulus' src='images/baseline/Paysage_enneige_02.jpg'></img></p>","null","","1551567400339","","","","","","",""
"null","","html-keyboard-response","333","4000429","0.0-8.0-0.0-3.1","50","<p><img class= 'stimulus' src='images/baseline/02988v.jpg'></img></p>","null","","1551567400439","","","","","","",""
"null","","html-keyboard-response","334","4000530","0.0-8.0-0.0-4.1","50","<p><img class= 'stimulus' src='images/baseline/building8.jpg'></img></p>","null","","1551567400539","4","","","","","",""
"null","","html-keyboard-response","335","4000630","0.0-8.0-0.0-5.1","50","<p><img class= 'stimulus' src='images/baseline/Beach 3.jpg'></img></p>","null","","1551567400639","","","","","","",""
"null","","html-keyboard-response","336","4000730","0.0-8.0-0.0-6.1","50","<p><img class= 'stimulus' src='images/baseline/Sunset 6.jpg'></img></p>","null","","1551567400739","6","","","","","",""
"null","","html-keyboard-response","337","4000831","0.0-8.0-0.0-7.1","50","<p><img class= 'stimulus' src='images/baseline/sun-through-winter-tree-branches1.jpg'></img></p>","null","","1551567400840","","","","","","",""
"null","","html-keyboard-response","338","4000930","0.0-8.0-0.0-8.1","50","<p><img class= 'stimulus' src='images/baseline/farmhouse2.jpg'></img></p>","null","","1551567400939","8","","","","","",""
"null","","html-keyboard-response","339","4001030","0.0-8.0-0.0-9.1","50","<p><img class= 'stimulus' src='images/baseline/03220v.jpg'></img></p>","null","","1551567401040","","","","","","",""
"null","","html-keyboard-response","340","4001130","0.0-8.0-0.0-10.1","50","<p><img class= 'stimulus' src='images/baseline/Lake 16.jpg'></img></p>","null","","1551567401140","","","","","","",""
"null","","html-keyboard-response","341","4001229","0.0-8.0-0.0-11.1","50","<p><img class= 'stimulus' src='images/baseline/4k-wallpaper-agriculture-clouds-842711.jpg'></img></p>","null","","1551567401239","","","","","","",""
"null","","html-keyboard-response","342","4001330","0.0-8.0-0.0-12.1","50","<p><img class= 'stimulus' src='images/baseline/landscape12.jpg'></img></p>","null","","1551567401340","12","","","","","",""
"null","","html-keyboard-response","343","4001431","0.0-8.0-0.0-13.1","50","<p><img class= 'stimulus' src='images/baseline/Kocherbaumwald-01.jpg'></img></p>","null","","1551567401440","","","","","","",""
"null","","html-keyboard-response","344","4001530","0.0-8.0-0.0-14.1","50","<p><img class= 'stimulus' src='images/baseline/Camping 10.jpg'></img></p>","null","","1551567401540","14","","","","","",""
"null","","html-keyboard-response","345","4001630","0.0-8.0-0.0-15.1","50","<p><img class= 'stimulus' src='images/baseline/church-silhouette-8712964986014Kb.jpg'></img></p>","null","","1551567401640","","","","","","",""
"null","","html-keyboard-response","346","4001730","0.0-8.0-0.0-16.1","50","<p><img class= 'stimulus' src='images/baseline/pexels-photo-1840893.jpeg'></img></p>","null","","1551567401739","","","","","","",""
"null","","html-keyboard-response","347","4001847","0.0-8.0-0.0-17.1","50","<p><img class= 'stimulus' src='images/baseline/Beach 8.jpg'></img></p>","null","","1551567401839","","","","","","",""
"1335.300000035204","","html-button-response","348","4004189","0.0-8.0-0.0-18.1","50","<div class = ""response_question"">WAS THE IMAGE ROTATED...</div>","","5","","","null","null","null","null","test","null"
"1238.0000000121072","","html-button-response","349","4005428","0.0-8.0-0.0-0.2","50","","","0","","","","","","","",""
"null","","html-keyboard-response","350","4005514","0.0-8.0-0.0-1.2","50","<p><img class= 'stimulus' src='images/baseline/04196v.jpg'></img></p>","null","","1551567405522","","","","","","",""
"null","","html-keyboard-response","351","4005614","0.0-8.0-0.0-2.2","50","<p><img class= 'stimulus' src='images/baseline/hills 4.jpg'></img></p>","null","","1551567405623","","","","","","",""
"null","","html-keyboard-response","352","4005713","0.0-8.0-0.0-3.2","50","<p><img class= 'stimulus' src='images/baseline/field 2.jpg'></img></p>","null","","1551567405723","","","","","","",""
"null","","html-keyboard-response","353","4005813","0.0-8.0-0.0-4.2","50","<p><img class= 'stimulus' src='images/negative/Shot 3.jpg'></img></p>","null","","1551567405822","4","","","","","",""
"null","","html-keyboard-response","354","4005913","0.0-8.0-0.0-5.2","50","<p><img class= 'stimulus' src='images/baseline/pexels-photo-1261728.jpeg'></img></p>","null","","1551567405923","","","","","","",""
"null","","html-keyboard-response","355","4006013","0.0-8.0-0.0-6.2","50","<p><img class= 'stimulus left-rotate' src='images/target/tree-740901_1280.jpg'></img></p>","null","","1551567406023","6","","","","","",""
"null","","html-keyboard-response","356","4006113","0.0-8.0-0.0-7.2","50","<p><img class= 'stimulus' src='images/baseline/cranes 1.jpg'></img></p>","null","","1551567406123","","","","","","",""
"null","","html-keyboard-response","357","4006214","0.0-8.0-0.0-8.2","50","<p><img class= 'stimulus' src='images/baseline/field 1.jpg'></img></p>","null","","1551567406222","8","","","","","",""
"null","","html-keyboard-response","358","4006313","0.0-8.0-0.0-9.2","50","<p><img class= 'stimulus' src='images/baseline/farmhouse8.jpg'></img></p>","null","","1551567406323","","","","","","",""
"null","","html-keyboard-response","359","4006415","0.0-8.0-0.0-10.2","50","<p><img class= 'stimulus' src='images/baseline/building_at_national_conservation.jpg'></img></p>","null","","1551567406423","","","","","","",""
"null","","html-keyboard-response","360","4006513","0.0-8.0-0.0-11.2","50","<p><img class= 'stimulus' src='images/baseline/Skyscraper 1.jpg'></img></p>","null","","1551567406522","","","","","","",""
"null","","html-keyboard-response","361","4006613","0.0-8.0-0.0-12.2","50","<p><img class= 'stimulus' src='images/baseline/05158v.jpg'></img></p>","null","","1551567406624","12","","","","","",""
"null","","html-keyboard-response","362","4006714","0.0-8.0-0.0-13.2","50","<p><img class= 'stimulus' src='images/baseline/03212v.jpg'></img></p>","null","","1551567406724","","","","","","",""
"null","","html-keyboard-response","363","4006813","0.0-8.0-0.0-14.2","50","<p><img class= 'stimulus' src='images/baseline/Dirt 2.jpg'></img></p>","null","","1551567406823","14","","","","","",""
"null","","html-keyboard-response","364","4006913","0.0-8.0-0.0-15.2","50","<p><img class= 'stimulus' src='images/baseline/road.jpg'></img></p>","null","","1551567406923","","","","","","",""
"null","","html-keyboard-response","365","4007013","0.0-8.0-0.0-16.2","50","<p><img class= 'stimulus' src='images/baseline/05280v.jpg'></img></p>","null","","1551567407023","","","","","","",""
"null","","html-keyboard-response","366","4007131","0.0-8.0-0.0-17.2","50","<p><img class= 'stimulus' src='images/baseline/landscape38.jpg'></img></p>","null","","1551567407122","","","","","","",""
"893.5000000055879","","html-button-response","367","4009033","0.0-8.0-0.0-18.2","50","<div class = ""response_question"">WAS THE IMAGE ROTATED...</div>","","1","","","4","2","neg","left","test","true"
"2078.300000051968","","html-button-response","368","4011113","0.0-8.0-0.0-0.3","50","","","0","","","","","","","",""
"null","","html-keyboard-response","369","4011185","0.0-8.0-0.0-1.3","50","<p><img class= 'stimulus' src='images/baseline/05131v.jpg'></img></p>","null","","1551567411195","","","","","","",""
"null","","html-keyboard-response","370","4011285","0.0-8.0-0.0-2.3","50","<p><img class= 'stimulus' src='images/baseline/geese-flying-over-lake-at-dusk.jpg'></img></p>","null","","1551567411294","","","","","","",""
"null","","html-keyboard-response","371","4011385","0.0-8.0-0.0-3.3","50","<p><img class= 'stimulus' src='images/baseline/house7.jpg'></img></p>","null","","1551567411396","","","","","","",""
"null","","html-keyboard-response","372","4011486","0.0-8.0-0.0-4.3","50","<p><img class= 'stimulus' src='images/baseline/meadow-with-mountain-in-background.jpg'></img></p>","null","","1551567411495","4","","","","","",""
"null","","html-keyboard-response","373","4011585","0.0-8.0-0.0-5.3","50","<p><img class= 'stimulus' src='images/baseline/building6.jpg'></img></p>","null","","1551567411595","","","","","","",""
"null","","html-keyboard-response","374","4011685","0.0-8.0-0.0-6.3","50","<p><img class= 'stimulus' src='images/neutral/Smiling face 1.jpg'></img></p>","null","","1551567411695","6","","","","","",""
"null","","html-keyboard-response","375","4011786","0.0-8.0-0.0-7.3","50","<p><img class= 'stimulus' src='images/baseline/seoul-410266_1920.jpg'></img></p>","null","","1551567411795","","","","","","",""
"null","","html-keyboard-response","376","4011887","0.0-8.0-0.0-8.3","50","<p><img class= 'stimulus' src='images/baseline/farmhouse11.jpg'></img></p>","null","","1551567411895","8","","","","","",""
"null","","html-keyboard-response","377","4011985","0.0-8.0-0.0-9.3","50","<p><img class= 'stimulus' src='images/baseline/03217v.jpg'></img></p>","null","","1551567411996","","","","","","",""
"null","","html-keyboard-response","378","4012086","0.0-8.0-0.0-10.3","50","<p><img class= 'stimulus' src='images/baseline/bird-flying-at-sunset.jpg'></img></p>","null","","1551567412095","","","","","","",""
"null","","html-keyboard-response","379","4012186","0.0-8.0-0.0-11.3","50","<p><img class= 'stimulus' src='images/baseline/landscape40.jpg'></img></p>","null","","1551567412196","","","","","","",""
"null","","html-keyboard-response","380","4012285","0.0-8.0-0.0-12.3","50","<p><img class= 'stimulus' src='images/baseline/pexels-photo-414491.jpeg'></img></p>","null","","1551567412296","12","","","","","",""
"null","","html-keyboard-response","381","4012386","0.0-8.0-0.0-13.3","50","<p><img class= 'stimulus' src='images/baseline/Street 1.jpg'></img></p>","null","","1551567412394","","","","","","",""
"null","","html-keyboard-response","382","4012485","0.0-8.0-0.0-14.3","50","<p><img class= 'stimulus left-rotate' src='images/target/building1.jpg'></img></p>","null","","1551567412495","14","","","","","",""
"null","","html-keyboard-response","383","4012586","0.0-8.0-0.0-15.3","50","<p><img class= 'stimulus' src='images/baseline/05292v.jpg'></img></p>","null","","1551567412596","","","","","","",""
"null","","html-keyboard-response","384","4012686","0.0-8.0-0.0-16.3","50","<p><img class= 'stimulus' src='images/baseline/pexels-photo-1054289.jpeg'></img></p>","null","","1551567412694","","","","","","",""
"null","","html-keyboard-response","385","4012802","0.0-8.0-0.0-17.3","50","<p><img class= 'stimulus' src='images/baseline/Niinsaare_jarv.jpg'></img></p>","null","","1551567412796","","","","","","",""
"1745.2000000048429","","html-button-response","386","4015553","0.0-8.0-0.0-18.3","50","<div class = ""response_question"">WAS THE IMAGE ROTATED...</div>","","1","","","6","8","neu","left","test","true"
"4086.299999966286","","html-button-response","387","4019641","0.0-8.0-0.0-0.4","50","","","0","","","","","","","",""
"null","","html-keyboard-response","388","4019720","0.0-8.0-0.0-1.4","50","<p><img class= 'stimulus' src='images/baseline/Cold 7.jpg'></img></p>","null","","1551567419730","","","","","","",""
"null","","html-keyboard-response","389","4019819","0.0-8.0-0.0-2.4","50","<p><img class= 'stimulus' src='images/baseline/05186v.jpg'></img></p>","null","","1551567419829","","","","","","",""
"null","","html-keyboard-response","390","4019920","0.0-8.0-0.0-3.4","50","<p><img class= 'stimulus' src='images/baseline/Freudenberg_sg_Switzerland.jpg'></img></p>","null","","1551567419928","","","","","","",""
"null","","html-keyboard-response","391","4020019","0.0-8.0-0.0-4.4","50","<p><img class= 'stimulus' src='images/baseline/04284v.jpg'></img></p>","null","","1551567420028","4","","","","","",""
"null","","html-keyboard-response","392","4020119","0.0-8.0-0.0-5.4","50","<p><img class= 'stimulus' src='images/baseline/05198v.jpg'></img></p>","null","","1551567420128","","","","","","",""
"null","","html-keyboard-response","393","4020219","0.0-8.0-0.0-6.4","50","<p><img class= 'stimulus' src='images/baseline/Paysage_karabagh_02.jpg'></img></p>","null","","1551567420228","6","","","","","",""
"null","","html-keyboard-response","394","4020319","0.0-8.0-0.0-7.4","50","<p><img class= 'stimulus' src='images/baseline/house1.jpg'></img></p>","null","","1551567420328","","","","","","",""
"null","","html-keyboard-response","395","4020419","0.0-8.0-0.0-8.4","50","<p><img class= 'stimulus' src='images/target/building3.jpg'></img></p>","null","","1551567420428","8","","","","","",""
"null","","html-keyboard-response","396","4020519","0.0-8.0-0.0-9.4","50","<p><img class= 'stimulus' src='images/baseline/04086v.jpg'></img></p>","null","","1551567420530","","","","","","",""
"null","","html-keyboard-response","397","4020619","0.0-8.0-0.0-10.4","50","<p><img class= 'stimulus' src='images/baseline/pexels-photo-210617.jpeg'></img></p>","null","","1551567420629","","","","","","",""
"null","","html-keyboard-response","398","4020719","0.0-8.0-0.0-11.4","50","<p><img class= 'stimulus' src='images/baseline/04040v.jpg'></img></p>","null","","1551567420729","","","","","","",""
"null","","html-keyboard-response","399","4020819","0.0-8.0-0.0-12.4","50","<p><img class= 'stimulus' src='images/baseline/red rocks from afar.jpg'></img></p>","null","","1551567420828","12","","","","","",""
"null","","html-keyboard-response","400","4020918","0.0-8.0-0.0-13.4","50","<p><img class= 'stimulus' src='images/baseline/farmhouse6.jpg'></img></p>","null","","1551567420930","","","","","","",""
"null","","html-keyboard-response","401","4021020","0.0-8.0-0.0-14.4","50","<p><img class= 'stimulus' src='images/baseline/building3.jpg'></img></p>","null","","1551567421030","14","","","","","",""
"null","","html-keyboard-response","402","4021120","0.0-8.0-0.0-15.4","50","<p><img class= 'stimulus' src='images/baseline/pexels-photo-259280.jpeg'></img></p>","null","","1551567421129","","","","","","",""
"null","","html-keyboard-response","403","4021219","0.0-8.0-0.0-16.4","50","<p><img class= 'stimulus' src='images/baseline/05139v.jpg'></img></p>","null","","1551567421229","","","","","","",""
"null","","html-keyboard-response","404","4021336","0.0-8.0-0.0-17.4","50","<p><img class= 'stimulus' src='images/baseline/04064v.jpg'></img></p>","null","","1551567421327","","","","","","",""
"750","","html-button-response","405","4023089","0.0-8.0-0.0-18.4","50","<div class = ""response_question"">WAS THE IMAGE ROTATED...</div>","","4","","","6","2","bas","right","test","true"
"2982.30000003241","","html-button-response","406","4026073","0.0-8.0-0.0-0.5","50","","","0","","","","","","","",""
"null","","html-keyboard-response","407","4026153","0.0-8.0-0.0-1.5","50","<p><img class= 'stimulus' src='images/baseline/snowy tree.jpg'></img></p>","null","","1551567426162","","","","","","",""
"null","","html-keyboard-response","408","4026252","0.0-8.0-0.0-2.5","50","<p><img class= 'stimulus' src='images/baseline/lake 1.jpg'></img></p>","null","","1551567426261","","","","","","",""
"null","","html-keyboard-response","409","4026353","0.0-8.0-0.0-3.5","50","<p><img class= 'stimulus' src='images/baseline/architecture-1314416_1920.jpg'></img></p>","null","","1551567426362","","","","","","",""
"null","","html-keyboard-response","410","4026452","0.0-8.0-0.0-4.5","50","<p><img class= 'stimulus' src='images/neutral/Pigeon 2.jpg'></img></p>","null","","1551567426461","4","","","","","",""
"null","","html-keyboard-response","411","4026553","0.0-8.0-0.0-5.5","50","<p><img class= 'stimulus' src='images/baseline/05203v.jpg'></img></p>","null","","1551567426563","","","","","","",""
"null","","html-keyboard-response","412","4026652","0.0-8.0-0.0-6.5","50","<p><img class= 'stimulus left-rotate' src='images/target/pexels-photo-1102846.jpeg'></img></p>","null","","1551567426662","6","","","","","",""
"null","","html-keyboard-response","413","4026752","0.0-8.0-0.0-7.5","50","<p><img class= 'stimulus' src='images/baseline/pexels-photo-280222.jpeg'></img></p>","null","","1551567426762","","","","","","",""
"null","","html-keyboard-response","414","4026853","0.0-8.0-0.0-8.5","50","<p><img class= 'stimulus' src='images/baseline/04222v.jpg'></img></p>","null","","1551567426862","8","","","","","",""
"null","","html-keyboard-response","415","4026953","0.0-8.0-0.0-9.5","50","<p><img class= 'stimulus' src='images/baseline/lake3.jpg'></img></p>","null","","1551567426962","","","","","","",""
"null","","html-keyboard-response","416","4027052","0.0-8.0-0.0-10.5","50","<p><img class= 'stimulus' src='images/baseline/field 3.jpg'></img></p>","null","","1551567427063","","","","","","",""
"null","","html-keyboard-response","417","4027152","0.0-8.0-0.0-11.5","50","<p><img class= 'stimulus' src='images/baseline/04117v.jpg'></img></p>","null","","1551567427161","","","","","","",""
"null","","html-keyboard-response","418","4027253","0.0-8.0-0.0-12.5","50","<p><img class= 'stimulus' src='images/baseline/agriculture-cereal-clouds-175389.jpg'></img></p>","null","","1551567427261","12","","","","","",""
"null","","html-keyboard-response","419","4027352","0.0-8.0-0.0-13.5","50","<p><img class= 'stimulus' src='images/baseline/05252v.jpg'></img></p>","null","","1551567427361","","","","","","",""
"null","","html-keyboard-response","420","4027452","0.0-8.0-0.0-14.5","50","<p><img class= 'stimulus' src='images/baseline/scenic-mountain-landscape.jpg'></img></p>","null","","1551567427461","14","","","","","",""
"null","","html-keyboard-response","421","4027553","0.0-8.0-0.0-15.5","50","<p><img class= 'stimulus' src='images/baseline/landscape16.jpg'></img></p>","null","","1551567427562","","","","","","",""
"null","","html-keyboard-response","422","4027653","0.0-8.0-0.0-16.5","50","<p><img class= 'stimulus' src='images/baseline/house8.jpg'></img></p>","null","","1551567427662","","","","","","",""
"null","","html-keyboard-response","423","4027768","0.0-8.0-0.0-17.5","50","<p><img class= 'stimulus' src='images/baseline/horse_statue.jpg'></img></p>","null","","1551567427761","","","","","","",""
"1338.6999999638647","","html-button-response","424","4030113","0.0-8.0-0.0-18.5","50","<div class = ""response_question"">WAS THE IMAGE ROTATED...</div>","","5","","","4","2","neu","left","test","false"
"4285.999999963678","","html-button-response","425","4034401","0.0-8.0-0.0-0.6","50","","","0","","","","","","","",""
"null","","html-keyboard-response","426","4034486","0.0-8.0-0.0-1.6","50","<p><img class= 'stimulus' src='images/baseline/kokkari-1523011968Xfr.jpg'></img></p>","null","","1551567434495","","","","","","",""
"null","","html-keyboard-response","427","4034586","0.0-8.0-0.0-2.6","50","<p><img class= 'stimulus' src='images/baseline/landscape13.jpg'></img></p>","null","","1551567434596","","","","","","",""
"null","","html-keyboard-response","428","4034686","0.0-8.0-0.0-3.6","50","<p><img class= 'stimulus' src='images/baseline/landscape34.jpg'></img></p>","null","","1551567434695","","","","","","",""
"null","","html-keyboard-response","429","4034787","0.0-8.0-0.0-4.6","50","<p><img class= 'stimulus' src='images/baseline/landscape39.jpg'></img></p>","null","","1551567434796","4","","","","","",""
"null","","html-keyboard-response","430","4034886","0.0-8.0-0.0-5.6","50","<p><img class= 'stimulus' src='images/baseline/03098v.jpg'></img></p>","null","","1551567434896","","","","","","",""
"null","","html-keyboard-response","431","4034986","0.0-8.0-0.0-6.6","50","<p><img class= 'stimulus' src='images/baseline/03148v.jpg'></img></p>","null","","1551567434997","6","","","","","",""
"null","","html-keyboard-response","432","4035085","0.0-8.0-0.0-7.6","50","<p><img class= 'stimulus' src='images/baseline/05242v.jpg'></img></p>","null","","1551567435096","","","","","","",""
"null","","html-keyboard-response","433","4035186","0.0-8.0-0.0-8.6","50","<p><img class= 'stimulus' src='images/baseline/Sailing 3.jpg'></img></p>","null","","1551567435195","8","","","","","",""
"null","","html-keyboard-response","434","4035286","0.0-8.0-0.0-9.6","50","<p><img class= 'stimulus' src='images/baseline/dirt-road-or-trail-through-park.jpg'></img></p>","null","","1551567435294","","","","","","",""
"null","","html-keyboard-response","435","4035386","0.0-8.0-0.0-10.6","50","<p><img class= 'stimulus' src='images/baseline/landscape1.jpg'></img></p>","null","","1551567435395","","","","","","",""
"null","","html-keyboard-response","436","4035486","0.0-8.0-0.0-11.6","50","<p><img class= 'stimulus' src='images/baseline/farmhouse3.jpg'></img></p>","null","","1551567435495","","","","","","",""
"null","","html-keyboard-response","437","4035586","0.0-8.0-0.0-12.6","50","<p><img class= 'stimulus' src='images/target/Tree-Landscape-Winter-Nature-Winter-Trees-Snow-2117951.jpg'></img></p>","null","","1551567435595","12","","","","","",""
"null","","html-keyboard-response","438","4035686","0.0-8.0-0.0-13.6","50","<p><img class= 'stimulus' src='images/baseline/Lake 5.jpg'></img></p>","null","","1551567435695","","","","","","",""
"null","","html-keyboard-response","439","4035786","0.0-8.0-0.0-14.6","50","<p><img class= 'stimulus' src='images/baseline/Bahia_Onelli_Parque_Nacional_Los_Glaciares_Patagonia_Argentina_Luca_Galuzzi_2005.jpg'></img></p>","null","","1551567435795","14","","","","","",""
"null","","html-keyboard-response","440","4035886","0.0-8.0-0.0-15.6","50","<p><img class= 'stimulus' src='images/baseline/05145v.jpg'></img></p>","null","","1551567435895","","","","","","",""
"null","","html-keyboard-response","441","4035985","0.0-8.0-0.0-16.6","50","<p><img class= 'stimulus' src='images/baseline/red-rocks-park.jpg'></img></p>","null","","1551567435995","","","","","","",""
"null","","html-keyboard-response","442","4036102","0.0-8.0-0.0-17.6","50","<p><img class= 'stimulus' src='images/baseline/04193v.jpg'></img></p>","null","","1551567436097","","","","","","",""
"1206.499999971129","","html-button-response","443","4038313","0.0-8.0-0.0-18.6","50","<div class = ""response_question"">WAS THE IMAGE ROTATED...</div>","","3","","","4","8","bas","right","test","true"
"3534.2999999411404","","html-button-response","444","4041849","0.0-8.0-0.0-0.7","50","","","0","","","","","","","",""
"null","","html-keyboard-response","445","4041937","0.0-8.0-0.0-1.7","50","<p><img class= 'stimulus' src='images/baseline/house3.jpg'></img></p>","null","","1551567441945","","","","","","",""
"null","","html-keyboard-response","446","4042036","0.0-8.0-0.0-2.7","50","<p><img class= 'stimulus' src='images/baseline/Road 1.jpg'></img></p>","null","","1551567442046","","","","","","",""
"null","","html-keyboard-response","447","4042136","0.0-8.0-0.0-3.7","50","<p><img class= 'stimulus' src='images/baseline/pexels-photo-351264.jpeg'></img></p>","null","","1551567442146","","","","","","",""
"null","","html-keyboard-response","448","4042236","0.0-8.0-0.0-4.7","50","<p><img class= 'stimulus' src='images/baseline/hills 3.jpg'></img></p>","null","","1551567442246","4","","","","","",""
"null","","html-keyboard-response","449","4042335","0.0-8.0-0.0-5.7","50","<p><img class= 'stimulus' src='images/baseline/lone-old-cottonwood-tree.jpg'></img></p>","null","","1551567442346","","","","","","",""
"null","","html-keyboard-response","450","4042436","0.0-8.0-0.0-6.7","50","<p><img class= 'stimulus' src='images/neutral/Picnic 2.jpg'></img></p>","null","","1551567442445","6","","","","","",""
"null","","html-keyboard-response","451","4042535","0.0-8.0-0.0-7.7","50","<p><img class= 'stimulus' src='images/baseline/landscape35.jpg'></img></p>","null","","1551567442546","","","","","","",""
"null","","html-keyboard-response","452","4042636","0.0-8.0-0.0-8.7","50","<p><img class= 'stimulus left-rotate' src='images/target/fishhouse.jpg'></img></p>","null","","1551567442646","8","","","","","",""
"null","","html-keyboard-response","453","4042736","0.0-8.0-0.0-9.7","50","<p><img class= 'stimulus' src='images/baseline/farmhouse7.jpg'></img></p>","null","","1551567442745","","","","","","",""
"null","","html-keyboard-response","454","4042836","0.0-8.0-0.0-10.7","50","<p><img class= 'stimulus' src='images/baseline/pexels-photo-59321.jpeg'></img></p>","null","","1551567442845","","","","","","",""
"null","","html-keyboard-response","455","4042937","0.0-8.0-0.0-11.7","50","<p><img class= 'stimulus' src='images/baseline/04063v.jpg'></img></p>","null","","1551567442945","","","","","","",""
"null","","html-keyboard-response","456","4043037","0.0-8.0-0.0-12.7","50","<p><img class= 'stimulus' src='images/baseline/03063v.jpg'></img></p>","null","","1551567443045","12","","","","","",""
"null","","html-keyboard-response","457","4043135","0.0-8.0-0.0-13.7","50","<p><img class= 'stimulus' src='images/baseline/architecture_modern_architecture_852928.jpg'></img></p>","null","","1551567443145","","","","","","",""
"null","","html-keyboard-response","458","4043237","0.0-8.0-0.0-14.7","50","<p><img class= 'stimulus' src='images/baseline/Street 5.jpg'></img></p>","null","","1551567443245","14","","","","","",""
"null","","html-keyboard-response","459","4043335","0.0-8.0-0.0-15.7","50","<p><img class= 'stimulus' src='images/baseline/flooded-bridge.jpg'></img></p>","null","","1551567443345","","","","","","",""
"null","","html-keyboard-response","460","4043436","0.0-8.0-0.0-16.7","50","<p><img class= 'stimulus' src='images/baseline/landscape23.jpg'></img></p>","null","","1551567443446","","","","","","",""
"null","","html-keyboard-response","461","4043553","0.0-8.0-0.0-17.7","50","<p><img class= 'stimulus' src='images/baseline/04085v.jpg'></img></p>","null","","1551567443545","","","","","","",""
"1443.5999999986961","","html-button-response","462","4046001","0.0-8.0-0.0-18.7","50","<div class = ""response_question"">WAS THE IMAGE ROTATED...</div>","","4","","","6","2","neu","left","test","false"
"1950.5000000353903","","html-button-response","463","4047953","0.0-8.0-0.0-0.8","50","","","0","","","","","","","",""
"null","","html-keyboard-response","464","4048036","0.0-8.0-0.0-1.8","50","<p><img class= 'stimulus' src='images/baseline/cyrillic.jpg'></img></p>","null","","1551567448045","","","","","","",""
"null","","html-keyboard-response","465","4048136","0.0-8.0-0.0-2.8","50","<p><img class= 'stimulus' src='images/baseline/grand-teton-mountains.jpg'></img></p>","null","","1551567448145","","","","","","",""
"null","","html-keyboard-response","466","4048236","0.0-8.0-0.0-3.8","50","<p><img class= 'stimulus' src='images/baseline/Dock 1.jpg'></img></p>","null","","1551567448246","","","","","","",""
"null","","html-keyboard-response","467","4048336","0.0-8.0-0.0-4.8","50","<p><img class= 'stimulus' src='images/baseline/05161v.jpg'></img></p>","null","","1551567448346","4","","","","","",""
"null","","html-keyboard-response","468","4048436","0.0-8.0-0.0-5.8","50","<p><img class= 'stimulus' src='images/baseline/building16.jpg'></img></p>","null","","1551567448445","","","","","","",""
"null","","html-keyboard-response","469","4048536","0.0-8.0-0.0-6.8","50","<p><img class= 'stimulus' src='images/negative/Shark 2.jpg'></img></p>","null","","1551567448545","6","","","","","",""
"null","","html-keyboard-response","470","4048636","0.0-8.0-0.0-7.8","50","<p><img class= 'stimulus' src='images/baseline/landscape11.jpg'></img></p>","null","","1551567448646","","","","","","",""
"null","","html-keyboard-response","471","4048737","0.0-8.0-0.0-8.8","50","<p><img class= 'stimulus left-rotate' src='images/target/dubai-1113262_640.jpg'></img></p>","null","","1551567448746","8","","","","","",""
"null","","html-keyboard-response","472","4048836","0.0-8.0-0.0-9.8","50","<p><img class= 'stimulus' src='images/baseline/04201v.jpg'></img></p>","null","","1551567448845","","","","","","",""
"null","","html-keyboard-response","473","4048937","0.0-8.0-0.0-10.8","50","<p><img class= 'stimulus' src='images/baseline/Sunset 3.jpg'></img></p>","null","","1551567448947","","","","","","",""
"null","","html-keyboard-response","474","4049035","0.0-8.0-0.0-11.8","50","<p><img class= 'stimulus' src='images/baseline/03056v.jpg'></img></p>","null","","1551567449045","","","","","","",""
"null","","html-keyboard-response","475","4049136","0.0-8.0-0.0-12.8","50","<p><img class= 'stimulus' src='images/baseline/04162v.jpg'></img></p>","null","","1551567449146","12","","","","","",""
"null","","html-keyboard-response","476","4049237","0.0-8.0-0.0-13.8","50","<p><img class= 'stimulus' src='images/baseline/landscape33.jpg'></img></p>","null","","1551567449246","","","","","","",""
"null","","html-keyboard-response","477","4049337","0.0-8.0-0.0-14.8","50","<p><img class= 'stimulus' src='images/baseline/landscape8.jpg'></img></p>","null","","1551567449345","14","","","","","",""
"null","","html-keyboard-response","478","4049435","0.0-8.0-0.0-15.8","50","<p><img class= 'stimulus' src='images/baseline/Aletschgletscher-Eggishorn.jpg'></img></p>","null","","1551567449446","","","","","","",""
"null","","html-keyboard-response","479","4049536","0.0-8.0-0.0-16.8","50","<p><img class= 'stimulus' src='images/baseline/road 1(1).jpg'></img></p>","null","","1551567449545","","","","","","",""
"null","","html-keyboard-response","480","4049653","0.0-8.0-0.0-17.8","50","<p><img class= 'stimulus' src='images/baseline/02960v.jpg'></img></p>","null","","1551567449645","","","","","","",""
"608.3999999100342","","html-button-response","481","4051265","0.0-8.0-0.0-18.8","50","<div class = ""response_question"">WAS THE IMAGE ROTATED...</div>","","0","","","6","2","neg","left","test","true"
"4718.600000021979","","html-button-response","482","4055986","0.0-8.0-0.0-0.9","50","","","0","","","","","","","",""
"null","","html-keyboard-response","483","4056069","0.0-8.0-0.0-1.9","50","<p><img class= 'stimulus' src='images/baseline/building5.jpg'></img></p>","null","","1551567456079","","","","","","",""
"null","","html-keyboard-response","484","4056170","0.0-8.0-0.0-2.9","50","<p><img class= 'stimulus' src='images/baseline/trees 23.jpg'></img></p>","null","","1551567456179","","","","","","",""
"null","","html-keyboard-response","485","4056268","0.0-8.0-0.0-3.9","50","<p><img class= 'stimulus' src='images/baseline/building9.jpg'></img></p>","null","","1551567456279","","","","","","",""
"null","","html-keyboard-response","486","4056369","0.0-8.0-0.0-4.9","50","<p><img class= 'stimulus' src='images/baseline/Grass 6.jpg'></img></p>","null","","1551567456379","4","","","","","",""
"null","","html-keyboard-response","487","4056470","0.0-8.0-0.0-5.9","50","<p><img class= 'stimulus' src='images/baseline/Sunset 4.jpg'></img></p>","null","","1551567456479","","","","","","",""
"null","","html-keyboard-response","488","4056569","0.0-8.0-0.0-6.9","50","<p><img class= 'stimulus' src='images/baseline/03112v.jpg'></img></p>","null","","1551567456580","6","","","","","",""
"null","","html-keyboard-response","489","4056669","0.0-8.0-0.0-7.9","50","<p><img class= 'stimulus' src='images/baseline/pexels-photo-1048039.jpeg'></img></p>","null","","1551567456679","","","","","","",""
"null","","html-keyboard-response","490","4056769","0.0-8.0-0.0-8.9","50","<p><img class= 'stimulus left-rotate' src='images/target/landscape1.jpg'></img></p>","null","","1551567456779","8","","","","","",""
"null","","html-keyboard-response","491","4056869","0.0-8.0-0.0-9.9","50","<p><img class= 'stimulus' src='images/baseline/04098v.jpg'></img></p>","null","","1551567456879","","","","","","",""
"null","","html-keyboard-response","492","4056970","0.0-8.0-0.0-10.9","50","<p><img class= 'stimulus' src='images/baseline/pexels-photo-808465.jpeg'></img></p>","null","","1551567456979","","","","","","",""
"null","","html-keyboard-response","493","4057069","0.0-8.0-0.0-11.9","50","<p><img class= 'stimulus' src='images/baseline/valley 1.jpg'></img></p>","null","","1551567457079","","","","","","",""
"null","","html-keyboard-response","494","4057170","0.0-8.0-0.0-12.9","50","<p><img class= 'stimulus' src='images/baseline/Lake 14.jpg'></img></p>","null","","1551567457179","12","","","","","",""
"null","","html-keyboard-response","495","4057270","0.0-8.0-0.0-13.9","50","<p><img class= 'stimulus' src='images/baseline/house6.jpg'></img></p>","null","","1551567457279","","","","","","",""
"null","","html-keyboard-response","496","4057370","0.0-8.0-0.0-14.9","50","<p><img class= 'stimulus' src='images/baseline/farmhouse4.jpg'></img></p>","null","","1551567457379","14","","","","","",""
"null","","html-keyboard-response","497","4057469","0.0-8.0-0.0-15.9","50","<p><img class= 'stimulus' src='images/baseline/autumn-landscape-with-lake-fall-trees-mountains.jpg'></img></p>","null","","1551567457480","","","","","","",""
"null","","html-keyboard-response","498","4057570","0.0-8.0-0.0-16.9","50","<p><img class= 'stimulus' src='images/baseline/04014v.jpg'></img></p>","null","","1551567457579","","","","","","",""
"null","","html-keyboard-response","499","4057686","0.0-8.0-0.0-17.9","50","<p><img class= 'stimulus' src='images/baseline/03114v.jpg'></img></p>","null","","1551567457679","","","","","","",""
"926.6000000061467","","html-button-response","500","4059618","0.0-8.0-0.0-18.9","50","<div class = ""response_question"">WAS THE IMAGE ROTATED...</div>","","1","","","6","2","bas","left","test","true"
"2406.3000000314787","","html-button-response","501","4062025","0.0-8.0-0.0-0.10","50","","","0","","","","","","","",""
"null","","html-keyboard-response","502","4062103","0.0-8.0-0.0-1.10","50","<p><img class= 'stimulus' src='images/baseline/Street 2.jpg'></img></p>","null","","1551567462114","","","","","","",""
"null","","html-keyboard-response","503","4062203","0.0-8.0-0.0-2.10","50","<p><img class= 'stimulus' src='images/baseline/river 1.jpg'></img></p>","null","","1551567462212","","","","","","",""
"null","","html-keyboard-response","504","4062302","0.0-8.0-0.0-3.10","50","<p><img class= 'stimulus' src='images/baseline/field 4.jpg'></img></p>","null","","1551567462313","","","","","","",""
