"rt","responses","trial_type","trial_index","time_elapsed","internal_node_id","participant_id","stimulus","key_press","button_pressed","stim_onset","sequence_position","distractor_position","target_lag","distractor_type","target_orientation","phase","correct"
"2078.39999999851","{""Q0"":""02""}","survey-text","0","2084","0.0-0.0","02","","","","","","","","","","",""
"412930.5999999996","","html-keyboard-response","1","415025","0.0-1.0","02","Welcome to the experiment.","67","","","","","","","","",""
"49168.89999999688","","html-button-response","2","464199","0.0-2.0","02","<p>Several images will be presented sequentially.        Each image will only be on the screen for about 100 milliseconds.</p>        <p> One of the images may be rotated 90 degrees right or left.        Watch for this image and remember if it is rotated right or left.</p>               <p>Images of people and animals will appear, and sometimes they will be unpleasant.        These will never be the rotated target image.</p>","","0","","","","","","","",""
"4870.100000000093","","html-button-response","3","469070","0.0-3.0","02","<p><img class=""stimulus left-rotate"" src=""images/target/lone-tree-1934897_640.jpg""></img></p><p>This is an example of an image rotated to the left.</p>","","0","","","","","","","",""
"3126.6000000032363","","html-button-response","4","472198","0.0-4.0","02","<p><img class=""stimulus"" src=""images/target/tree-740901_1280.jpg""></img></p><p>This is an example of an image rotated to the right.</p>","","0","","","","","","","",""
"14103.399999999907","","html-button-response","5","486302","0.0-5.0","02","<p>We will now begin a short practice session.</p>         <p>A + symbol will appear in the middle of the screen. Please fix your gaze on the center of the +, and then click the mouse button to begin the image sequence.</p>         <p>Please avoid blinking or eye movements while the images are on the screen.</p>        <p>The image sequence will start relatively slow. After a few sequences, it will speed up.</p>","","0","","","","","","","",""
"4942.499999997322","","html-button-response","6","491246","0.0-6.0-0.0","02","","","0","","","","","","","",""
"null","","html-keyboard-response","7","491424","0.0-6.0-1.0","02","<p><img class= 'stimulus' src='images/baseline/pexels-photo-534164.jpeg'></img></p>","null","","1549488917915","","","","","","",""
"null","","html-keyboard-response","8","491624","0.0-6.0-2.0","02","<p><img class= 'stimulus' src='images/baseline/pexels-photo-1287089.jpeg'></img></p>","null","","1549488918116","","","","","","",""
"null","","html-keyboard-response","9","491823","0.0-6.0-3.0","02","<p><img class= 'stimulus' src='images/baseline/04130v.jpg'></img></p>","null","","1549488918315","","","","","","",""
"null","","html-keyboard-response","10","492024","0.0-6.0-4.0","02","<p><img class= 'stimulus' src='images/baseline/05255v.jpg'></img></p>","null","","1549488918515","4","","","","","",""
"null","","html-keyboard-response","11","492224","0.0-6.0-5.0","02","<p><img class= 'stimulus' src='images/baseline/lake 1.jpg'></img></p>","null","","1549488918713","","","","","","",""
"null","","html-keyboard-response","12","492425","0.0-6.0-6.0","02","<p><img class= 'stimulus' src='images/target/Wild-West-South-West-Usa-Landscape-America-1663497.jpg'></img></p>","null","","1549488918915","6","","","","","",""
"null","","html-keyboard-response","13","492625","0.0-6.0-7.0","02","<p><img class= 'stimulus' src='images/baseline/Bridge 1.jpg'></img></p>","null","","1549488919115","","","","","","",""
"null","","html-keyboard-response","14","492825","0.0-6.0-8.0","02","<p><img class= 'stimulus' src='images/baseline/field 2.jpg'></img></p>","null","","1549488919315","8","","","","","",""
"null","","html-keyboard-response","15","493026","0.0-6.0-9.0","02","<p><img class= 'stimulus' src='images/baseline/05280v.jpg'></img></p>","null","","1549488919516","","","","","","",""
"null","","html-keyboard-response","16","493226","0.0-6.0-10.0","02","<p><img class= 'stimulus' src='images/baseline/05161v.jpg'></img></p>","null","","1549488919716","","","","","","",""
"null","","html-keyboard-response","17","493427","0.0-6.0-11.0","02","<p><img class= 'stimulus' src='images/baseline/farmhouse2.jpg'></img></p>","null","","1549488919916","","","","","","",""
"null","","html-keyboard-response","18","493626","0.0-6.0-12.0","02","<p><img class= 'stimulus' src='images/baseline/landscape12.jpg'></img></p>","null","","1549488920117","12","","","","","",""
"null","","html-keyboard-response","19","493827","0.0-6.0-13.0","02","<p><img class= 'stimulus' src='images/baseline/lake3.jpg'></img></p>","null","","1549488920318","","","","","","",""
"null","","html-keyboard-response","20","494027","0.0-6.0-14.0","02","<p><img class= 'stimulus' src='images/baseline/building12.jpg'></img></p>","null","","1549488920516","14","","","","","",""
"null","","html-keyboard-response","21","494225","0.0-6.0-15.0","02","<p><img class= 'stimulus' src='images/baseline/architecture-1314416_1920.jpg'></img></p>","null","","1549488920717","","","","","","",""
"null","","html-keyboard-response","22","494426","0.0-6.0-16.0","02","<p><img class= 'stimulus' src='images/baseline/02982v.jpg'></img></p>","null","","1549488920916","","","","","","",""
"null","","html-keyboard-response","23","494643","0.0-6.0-17.0","02","<p><img class= 'stimulus' src='images/baseline/architecture_modern_architecture_852928.jpg'></img></p>","null","","1549488921116","","","","","","",""
"5198.099999997823","","html-button-response","24","500847","0.0-6.0-18.0","02","<div class = ""response_question"">WAS THE IMAGE ROTATED...</div>","","3","","","4","2","bas","right","practice","true"
"5781.599999998405","","html-button-response","25","506630","0.0-6.0-0.1","02","","","0","","","","","","","",""
"null","","html-keyboard-response","26","506810","0.0-6.0-1.1","02","<p><img class= 'stimulus' src='images/baseline/pexels-photo-440731.jpeg'></img></p>","null","","1549488933300","","","","","","",""
"null","","html-keyboard-response","27","507010","0.0-6.0-2.1","02","<p><img class= 'stimulus' src='images/baseline/field 4.jpg'></img></p>","null","","1549488933499","","","","","","",""
"null","","html-keyboard-response","28","507210","0.0-6.0-3.1","02","<p><img class= 'stimulus' src='images/baseline/03212v.jpg'></img></p>","null","","1549488933700","","","","","","",""
"null","","html-keyboard-response","29","507410","0.0-6.0-4.1","02","<p><img class= 'stimulus' src='images/baseline/04201v.jpg'></img></p>","null","","1549488933900","4","","","","","",""
"null","","html-keyboard-response","30","507609","0.0-6.0-5.1","02","<p><img class= 'stimulus' src='images/baseline/landscape39.jpg'></img></p>","null","","1549488934100","","","","","","",""
"null","","html-keyboard-response","31","507809","0.0-6.0-6.1","02","<p><img class= 'stimulus' src='images/baseline/04117v.jpg'></img></p>","null","","1549488934300","6","","","","","",""
"null","","html-keyboard-response","32","508009","0.0-6.0-7.1","02","<p><img class= 'stimulus' src='images/baseline/church-silhouette-8712964986014Kb.jpg'></img></p>","null","","1549488934499","","","","","","",""
"null","","html-keyboard-response","33","508208","0.0-6.0-8.1","02","<p><img class= 'stimulus' src='images/target/adventure-desert-landscape-6778.jpg'></img></p>","null","","1549488934699","8","","","","","",""
"null","","html-keyboard-response","34","508409","0.0-6.0-9.1","02","<p><img class= 'stimulus' src='images/baseline/Nature 2.jpg'></img></p>","null","","1549488934900","","","","","","",""
"null","","html-keyboard-response","35","508609","0.0-6.0-10.1","02","<p><img class= 'stimulus' src='images/baseline/04196v.jpg'></img></p>","null","","1549488935099","","","","","","",""
"null","","html-keyboard-response","36","508809","0.0-6.0-11.1","02","<p><img class= 'stimulus' src='images/baseline/pexels-photo-210617.jpeg'></img></p>","null","","1549488935299","","","","","","",""
"null","","html-keyboard-response","37","509009","0.0-6.0-12.1","02","<p><img class= 'stimulus' src='images/baseline/03148v.jpg'></img></p>","null","","1549488935499","12","","","","","",""
"null","","html-keyboard-response","38","509209","0.0-6.0-13.1","02","<p><img class= 'stimulus' src='images/baseline/road 1(1).jpg'></img></p>","null","","1549488935700","","","","","","",""
"null","","html-keyboard-response","39","509409","0.0-6.0-14.1","02","<p><img class= 'stimulus' src='images/baseline/pexels-photo-750108.jpeg'></img></p>","null","","1549488935900","14","","","","","",""
"null","","html-keyboard-response","40","509610","0.0-6.0-15.1","02","<p><img class= 'stimulus' src='images/baseline/foreclosed_home.jpg'></img></p>","null","","1549488936099","","","","","","",""
"null","","html-keyboard-response","41","509809","0.0-6.0-16.1","02","<p><img class= 'stimulus' src='images/baseline/04193v.jpg'></img></p>","null","","1549488936299","","","","","","",""
"null","","html-keyboard-response","42","510025","0.0-6.0-17.1","02","<p><img class= 'stimulus' src='images/baseline/lake 2.jpg'></img></p>","null","","1549488936499","","","","","","",""
"2368.399999999383","","html-button-response","43","513393","0.0-6.0-18.1","02","<div class = ""response_question"">WAS THE IMAGE ROTATED...</div>","","3","","","6","2","bas","right","practice","true"
"4421.900000001187","","html-button-response","44","517817","0.0-6.0-0.2","02","","","0","","","","","","","",""
"null","","html-keyboard-response","45","518003","0.0-6.0-1.2","02","<p><img class= 'stimulus' src='images/baseline/farmhouse4.jpg'></img></p>","null","","1549488944494","","","","","","",""
"null","","html-keyboard-response","46","518203","0.0-6.0-2.2","02","<p><img class= 'stimulus' src='images/baseline/pexels-photo-259280.jpeg'></img></p>","null","","1549488944693","","","","","","",""
"null","","html-keyboard-response","47","518404","0.0-6.0-3.2","02","<p><img class= 'stimulus' src='images/baseline/05242v.jpg'></img></p>","null","","1549488944894","","","","","","",""
"null","","html-keyboard-response","48","518604","0.0-6.0-4.2","02","<p><img class= 'stimulus' src='images/baseline/05198v.jpg'></img></p>","null","","1549488945094","4","","","","","",""
"null","","html-keyboard-response","49","518804","0.0-6.0-5.2","02","<p><img class= 'stimulus' src='images/baseline/03075v.jpg'></img></p>","null","","1549488945293","","","","","","",""
"null","","html-keyboard-response","50","519004","0.0-6.0-6.2","02","<p><img class= 'stimulus left-rotate' src='images/target/tree_2.jpg'></img></p>","null","","1549488945494","6","","","","","",""
"null","","html-keyboard-response","51","519204","0.0-6.0-7.2","02","<p><img class= 'stimulus' src='images/baseline/building_at_national_conservation.jpg'></img></p>","null","","1549488945694","","","","","","",""
"null","","html-keyboard-response","52","519404","0.0-6.0-8.2","02","<p><img class= 'stimulus' src='images/baseline/lone-old-cottonwood-tree.jpg'></img></p>","null","","1549488945894","8","","","","","",""
"null","","html-keyboard-response","53","519605","0.0-6.0-9.2","02","<p><img class= 'stimulus' src='images/baseline/04162v.jpg'></img></p>","null","","1549488946094","","","","","","",""
"null","","html-keyboard-response","54","519805","0.0-6.0-10.2","02","<p><img class= 'stimulus' src='images/baseline/landscape16.jpg'></img></p>","null","","1549488946294","","","","","","",""
"null","","html-keyboard-response","55","520005","0.0-6.0-11.2","02","<p><img class= 'stimulus' src='images/baseline/lookout_tower.jpg'></img></p>","null","","1549488946495","","","","","","",""
"null","","html-keyboard-response","56","520205","0.0-6.0-12.2","02","<p><img class= 'stimulus' src='images/baseline/02977v.jpg'></img></p>","null","","1549488946695","12","","","","","",""
"null","","html-keyboard-response","57","520404","0.0-6.0-13.2","02","<p><img class= 'stimulus' src='images/baseline/house8.jpg'></img></p>","null","","1549488946895","","","","","","",""
"null","","html-keyboard-response","58","520605","0.0-6.0-14.2","02","<p><img class= 'stimulus' src='images/baseline/04060v.jpg'></img></p>","null","","1549488947094","14","","","","","",""
"null","","html-keyboard-response","59","520804","0.0-6.0-15.2","02","<p><img class= 'stimulus' src='images/baseline/Paysage_karabagh_02.jpg'></img></p>","null","","1549488947295","","","","","","",""
"null","","html-keyboard-response","60","521005","0.0-6.0-16.2","02","<p><img class= 'stimulus' src='images/baseline/Street 3.jpg'></img></p>","null","","1549488947495","","","","","","",""
"null","","html-keyboard-response","61","521221","0.0-6.0-17.2","02","<p><img class= 'stimulus' src='images/baseline/landscape15.jpg'></img></p>","null","","1549488947695","","","","","","",""
"1581.5999999977066","","html-button-response","62","523809","0.0-6.0-18.2","02","<div class = ""response_question"">WAS THE IMAGE ROTATED...</div>","","0","","","4","2","bas","left","practice","true"
"2790.499999999185","","html-button-response","63","526601","0.0-6.0-0.3","02","","","0","","","","","","","",""
"null","","html-keyboard-response","64","526787","0.0-6.0-1.3","02","<p><img class= 'stimulus' src='images/baseline/landscape37.jpg'></img></p>","null","","1549488953277","","","","","","",""
"null","","html-keyboard-response","65","526987","0.0-6.0-2.3","02","<p><img class= 'stimulus' src='images/baseline/Lake 15.jpg'></img></p>","null","","1549488953478","","","","","","",""
"null","","html-keyboard-response","66","527188","0.0-6.0-3.3","02","<p><img class= 'stimulus' src='images/baseline/tennis-court-net-buried-in-snow.jpg'></img></p>","null","","1549488953678","","","","","","",""
"null","","html-keyboard-response","67","527387","0.0-6.0-4.3","02","<p><img class= 'stimulus' src='images/baseline/landscape36.jpg'></img></p>","null","","1549488953878","4","","","","","",""
"null","","html-keyboard-response","68","527588","0.0-6.0-5.3","02","<p><img class= 'stimulus' src='images/baseline/building2.jpg'></img></p>","null","","1549488954077","","","","","","",""
"null","","html-keyboard-response","69","527788","0.0-6.0-6.3","02","<p><img class= 'stimulus' src='images/baseline/scenic-mountain-landscape.jpg'></img></p>","null","","1549488954278","6","","","","","",""
"null","","html-keyboard-response","70","527988","0.0-6.0-7.3","02","<p><img class= 'stimulus' src='images/baseline/building16.jpg'></img></p>","null","","1549488954479","","","","","","",""
"null","","html-keyboard-response","71","528189","0.0-6.0-8.3","02","<p><img class= 'stimulus left-rotate' src='images/target/tree.jpeg'></img></p>","null","","1549488954678","8","","","","","",""
"null","","html-keyboard-response","72","528388","0.0-6.0-9.3","02","<p><img class= 'stimulus' src='images/baseline/03204v.jpg'></img></p>","null","","1549488954879","","","","","","",""
"null","","html-keyboard-response","73","528589","0.0-6.0-10.3","02","<p><img class= 'stimulus' src='images/baseline/landscape34.jpg'></img></p>","null","","1549488955080","","","","","","",""
"null","","html-keyboard-response","74","528790","0.0-6.0-11.3","02","<p><img class= 'stimulus' src='images/baseline/05252v.jpg'></img></p>","null","","1549488955280","","","","","","",""
"null","","html-keyboard-response","75","528990","0.0-6.0-12.3","02","<p><img class= 'stimulus' src='images/baseline/pexels-photo-427676.jpeg'></img></p>","null","","1549488955480","12","","","","","",""
"null","","html-keyboard-response","76","529189","0.0-6.0-13.3","02","<p><img class= 'stimulus' src='images/baseline/4k-wallpaper-agriculture-clouds-842711.jpg'></img></p>","null","","1549488955681","","","","","","",""
"null","","html-keyboard-response","77","529389","0.0-6.0-14.3","02","<p><img class= 'stimulus' src='images/baseline/Kocherbaumwald-01.jpg'></img></p>","null","","1549488955881","14","","","","","",""
"null","","html-keyboard-response","78","529589","0.0-6.0-15.3","02","<p><img class= 'stimulus' src='images/baseline/landscape19.jpg'></img></p>","null","","1549488956081","","","","","","",""
"null","","html-keyboard-response","79","529788","0.0-6.0-16.3","02","<p><img class= 'stimulus' src='images/baseline/02971v.jpg'></img></p>","null","","1549488956279","","","","","","",""
"null","","html-keyboard-response","80","530005","0.0-6.0-17.3","02","<p><img class= 'stimulus' src='images/baseline/Lake 4.jpg'></img></p>","null","","1549488956479","","","","","","",""
"1118.5000000004657","","html-button-response","81","532129","0.0-6.0-18.3","02","<div class = ""response_question"">WAS THE IMAGE ROTATED...</div>","","0","","","6","2","bas","left","practice","true"
"7430.500000002212","","html-button-response","82","539561","0.0-6.0-0.4","02","","","0","","","","","","","",""
"null","","html-keyboard-response","83","539687","0.0-6.0-1.4","02","<p><img class= 'stimulus' src='images/baseline/city-silhouette-at-sunset-871291580819Esw.jpg'></img></p>","null","","1549488966229","","","","","","",""
"null","","html-keyboard-response","84","539837","0.0-6.0-2.4","02","<p><img class= 'stimulus' src='images/baseline/pexels-photo-1048039.jpeg'></img></p>","null","","1549488966378","","","","","","",""
"null","","html-keyboard-response","85","539988","0.0-6.0-3.4","02","<p><img class= 'stimulus' src='images/baseline/05292v.jpg'></img></p>","null","","1549488966528","","","","","","",""
"null","","html-keyboard-response","86","540137","0.0-6.0-4.4","02","<p><img class= 'stimulus' src='images/baseline/03114v.jpg'></img></p>","null","","1549488966677","4","","","","","",""
"null","","html-keyboard-response","87","540286","0.0-6.0-5.4","02","<p><img class= 'stimulus' src='images/baseline/Dirt 2.jpg'></img></p>","null","","1549488966827","","","","","","",""
"null","","html-keyboard-response","88","540436","0.0-6.0-6.4","02","<p><img class= 'stimulus' src='images/baseline/meadow-with-mountain-in-background.jpg'></img></p>","null","","1549488966978","6","","","","","",""
"null","","html-keyboard-response","89","540587","0.0-6.0-7.4","02","<p><img class= 'stimulus' src='images/baseline/02945v.jpg'></img></p>","null","","1549488967127","","","","","","",""
"null","","html-keyboard-response","90","540737","0.0-6.0-8.4","02","<p><img class= 'stimulus' src='images/baseline/landscape11.jpg'></img></p>","null","","1549488967277","8","","","","","",""
"null","","html-keyboard-response","91","540887","0.0-6.0-9.4","02","<p><img class= 'stimulus' src='images/baseline/landscape35.jpg'></img></p>","null","","1549488967427","","","","","","",""
"null","","html-keyboard-response","92","541036","0.0-6.0-10.4","02","<p><img class= 'stimulus' src='images/baseline/03217v.jpg'></img></p>","null","","1549488967577","","","","","","",""
"null","","html-keyboard-response","93","541186","0.0-6.0-11.4","02","<p><img class= 'stimulus' src='images/baseline/05167v.jpg'></img></p>","null","","1549488967727","","","","","","",""
"null","","html-keyboard-response","94","541336","0.0-6.0-12.4","02","<p><img class= 'stimulus' src='images/baseline/Lake 8.jpg'></img></p>","null","","1549488967877","12","","","","","",""
"null","","html-keyboard-response","95","541487","0.0-6.0-13.4","02","<p><img class= 'stimulus' src='images/baseline/hills 1.jpg'></img></p>","null","","1549488968026","","","","","","",""
"null","","html-keyboard-response","96","541637","0.0-6.0-14.4","02","<p><img class= 'stimulus left-rotate' src='images/target/pexels-photo-1534411.jpeg'></img></p>","null","","1549488968178","14","","","","","",""
"null","","html-keyboard-response","97","541785","0.0-6.0-15.4","02","<p><img class= 'stimulus' src='images/baseline/pexels-photo-459203.jpeg'></img></p>","null","","1549488968327","","","","","","",""
"null","","html-keyboard-response","98","541936","0.0-6.0-16.4","02","<p><img class= 'stimulus' src='images/baseline/valley 2.jpg'></img></p>","null","","1549488968477","","","","","","",""
"null","","html-keyboard-response","99","542103","0.0-6.0-17.4","02","<p><img class= 'stimulus' src='images/baseline/Happy pose 3.jpg'></img></p>","null","","1549488968627","","","","","","",""
"1460.2999999988824","","html-button-response","100","544569","0.0-6.0-18.4","02","<div class = ""response_question"">WAS THE IMAGE ROTATED...</div>","","0","","","6","8","bas","left","practice","true"
"2622.4999999976717","","html-button-response","101","547193","0.0-6.0-0.5","02","","","0","","","","","","","",""
"null","","html-keyboard-response","102","547319","0.0-6.0-1.5","02","<p><img class= 'stimulus' src='images/baseline/Beach 8.jpg'></img></p>","null","","1549488973860","","","","","","",""
"null","","html-keyboard-response","103","547469","0.0-6.0-2.5","02","<p><img class= 'stimulus' src='images/baseline/agriculture-bright-clouds-440731.jpg'></img></p>","null","","1549488974010","","","","","","",""
"null","","html-keyboard-response","104","547620","0.0-6.0-3.5","02","<p><img class= 'stimulus' src='images/baseline/flooded-bridge.jpg'></img></p>","null","","1549488974161","","","","","","",""
"null","","html-keyboard-response","105","547770","0.0-6.0-4.5","02","<p><img class= 'stimulus' src='images/baseline/house11.jpg'></img></p>","null","","1549488974311","4","","","","","",""
"null","","html-keyboard-response","106","547919","0.0-6.0-5.5","02","<p><img class= 'stimulus' src='images/baseline/cranes 1.jpg'></img></p>","null","","1549488974459","","","","","","",""
"null","","html-keyboard-response","107","548070","0.0-6.0-6.5","02","<p><img class= 'stimulus' src='images/baseline/Sky 1.jpg'></img></p>","null","","1549488974610","6","","","","","",""
"null","","html-keyboard-response","108","548220","0.0-6.0-7.5","02","<p><img class= 'stimulus' src='images/baseline/geese-flying-over-lake-at-dusk.jpg'></img></p>","null","","1549488974760","","","","","","",""
"null","","html-keyboard-response","109","548369","0.0-6.0-8.5","02","<p><img class= 'stimulus' src='images/baseline/landscape17.jpg'></img></p>","null","","1549488974910","8","","","","","",""
"null","","html-keyboard-response","110","548520","0.0-6.0-9.5","02","<p><img class= 'stimulus' src='images/baseline/landscape2.jpg'></img></p>","null","","1549488975060","","","","","","",""
"null","","html-keyboard-response","111","548669","0.0-6.0-10.5","02","<p><img class= 'stimulus' src='images/baseline/05203v.jpg'></img></p>","null","","1549488975210","","","","","","",""
"null","","html-keyboard-response","112","548820","0.0-6.0-11.5","02","<p><img class= 'stimulus' src='images/baseline/pexels-photo-541101.jpeg'></img></p>","null","","1549488975359","","","","","","",""
"null","","html-keyboard-response","113","548970","0.0-6.0-12.5","02","<p><img class= 'stimulus left-rotate' src='images/target/mitre peak.jpg'></img></p>","null","","1549488975510","12","","","","","",""
"null","","html-keyboard-response","114","549119","0.0-6.0-13.5","02","<p><img class= 'stimulus' src='images/baseline/04031v.jpg'></img></p>","null","","1549488975660","","","","","","",""
"null","","html-keyboard-response","115","549269","0.0-6.0-14.5","02","<p><img class= 'stimulus' src='images/baseline/Road 1.jpg'></img></p>","null","","1549488975810","14","","","","","",""
"null","","html-keyboard-response","116","549420","0.0-6.0-15.5","02","<p><img class= 'stimulus' src='images/baseline/Beach 2.jpg'></img></p>","null","","1549488975960","","","","","","",""
"null","","html-keyboard-response","117","549569","0.0-6.0-16.5","02","<p><img class= 'stimulus' src='images/baseline/03201v.jpg'></img></p>","null","","1549488976111","","","","","","",""
"null","","html-keyboard-response","118","549737","0.0-6.0-17.5","02","<p><img class= 'stimulus' src='images/baseline/05279v.jpg'></img></p>","null","","1549488976260","","","","","","",""
"1574.5999999999767","","html-button-response","119","552321","0.0-6.0-18.5","02","<div class = ""response_question"">WAS THE IMAGE ROTATED...</div>","","0","","","4","8","bas","left","practice","true"
"6302.700000000186","","html-button-response","120","558625","0.0-6.0-0.6","02","","","0","","","","","","","",""
"null","","html-keyboard-response","121","558753","0.0-6.0-1.6","02","<p><img class= 'stimulus' src='images/baseline/hiking-trail.jpg'></img></p>","null","","1549488985293","","","","","","",""
"null","","html-keyboard-response","122","558903","0.0-6.0-2.6","02","<p><img class= 'stimulus' src='images/baseline/05303v.jpg'></img></p>","null","","1549488985443","","","","","","",""
"null","","html-keyboard-response","123","559053","0.0-6.0-3.6","02","<p><img class= 'stimulus' src='images/baseline/red rocks from afar.jpg'></img></p>","null","","1549488985594","","","","","","",""
"null","","html-keyboard-response","124","559202","0.0-6.0-4.6","02","<p><img class= 'stimulus' src='images/baseline/Desert_View_Indian_Wells.jpg'></img></p>","null","","1549488985744","4","","","","","",""
"null","","html-keyboard-response","125","559352","0.0-6.0-5.6","02","<p><img class= 'stimulus' src='images/baseline/Bahia_Onelli_Parque_Nacional_Los_Glaciares_Patagonia_Argentina_Luca_Galuzzi_2005.jpg'></img></p>","null","","1549488985894","","","","","","",""
"null","","html-keyboard-response","126","559503","0.0-6.0-6.6","02","<p><img class= 'stimulus' src='images/baseline/pexels-photo-808465.jpeg'></img></p>","null","","1549488986043","6","","","","","",""
"null","","html-keyboard-response","127","559653","0.0-6.0-7.6","02","<p><img class= 'stimulus' src='images/baseline/landscape29.jpg'></img></p>","null","","1549488986194","","","","","","",""
"null","","html-keyboard-response","128","559803","0.0-6.0-8.6","02","<p><img class= 'stimulus' src='images/baseline/landscape7.jpg'></img></p>","null","","1549488986344","8","","","","","",""
"null","","html-keyboard-response","129","559953","0.0-6.0-9.6","02","<p><img class= 'stimulus' src='images/baseline/04085v.jpg'></img></p>","null","","1549488986493","","","","","","",""
"null","","html-keyboard-response","130","560102","0.0-6.0-10.6","02","<p><img class= 'stimulus' src='images/baseline/Sidewalk 4.jpg'></img></p>","null","","1549488986643","","","","","","",""
"null","","html-keyboard-response","131","560253","0.0-6.0-11.6","02","<p><img class= 'stimulus' src='images/baseline/05139v.jpg'></img></p>","null","","1549488986794","","","","","","",""
"null","","html-keyboard-response","132","560402","0.0-6.0-12.6","02","<p><img class= 'stimulus' src='images/target/building3.jpg'></img></p>","null","","1549488986943","12","","","","","",""
"null","","html-keyboard-response","133","560553","0.0-6.0-13.6","02","<p><img class= 'stimulus' src='images/baseline/02947v.jpg'></img></p>","null","","1549488987093","","","","","","",""
"null","","html-keyboard-response","134","560703","0.0-6.0-14.6","02","<p><img class= 'stimulus' src='images/baseline/Niinsaare_jarv.jpg'></img></p>","null","","1549488987244","14","","","","","",""
"null","","html-keyboard-response","135","560853","0.0-6.0-15.6","02","<p><img class= 'stimulus' src='images/baseline/landscape14.jpg'></img></p>","null","","1549488987394","","","","","","",""
"null","","html-keyboard-response","136","561003","0.0-6.0-16.6","02","<p><img class= 'stimulus' src='images/baseline/Beach 3.jpg'></img></p>","null","","1549488987544","","","","","","",""
"null","","html-keyboard-response","137","561170","0.0-6.0-17.6","02","<p><img class= 'stimulus' src='images/baseline/bird-flying-at-sunset.jpg'></img></p>","null","","1549488987693","","","","","","",""
"1611.3999999979278","","html-button-response","138","563785","0.0-6.0-18.6","02","<div class = ""response_question"">WAS THE IMAGE ROTATED...</div>","","3","","","4","8","bas","right","practice","true"
"8270.300000000163","","html-button-response","139","572056","0.0-6.0-0.7","02","","","0","","","","","","","",""
"null","","html-keyboard-response","140","572186","0.0-6.0-1.7","02","<p><img class= 'stimulus' src='images/baseline/Sunset 5.jpg'></img></p>","null","","1549488998727","","","","","","",""
"null","","html-keyboard-response","141","572337","0.0-6.0-2.7","02","<p><img class= 'stimulus' src='images/baseline/Sunset 6.jpg'></img></p>","null","","1549488998876","","","","","","",""
"null","","html-keyboard-response","142","572487","0.0-6.0-3.7","02","<p><img class= 'stimulus' src='images/baseline/Lake 3.jpg'></img></p>","null","","1549488999028","","","","","","",""
"null","","html-keyboard-response","143","572637","0.0-6.0-4.7","02","<p><img class= 'stimulus' src='images/baseline/cyrillic.jpg'></img></p>","null","","1549488999176","4","","","","","",""
"null","","html-keyboard-response","144","572786","0.0-6.0-5.7","02","<p><img class= 'stimulus' src='images/baseline/Lake 7.jpg'></img></p>","null","","1549488999327","","","","","","",""
"null","","html-keyboard-response","145","572937","0.0-6.0-6.7","02","<p><img class= 'stimulus' src='images/baseline/Skyscraper 2.jpg'></img></p>","null","","1549488999478","6","","","","","",""
"null","","html-keyboard-response","146","573086","0.0-6.0-7.7","02","<p><img class= 'stimulus' src='images/baseline/05264v.jpg'></img></p>","null","","1549488999628","","","","","","",""
"null","","html-keyboard-response","147","573236","0.0-6.0-8.7","02","<p><img class= 'stimulus' src='images/baseline/04021v.jpg'></img></p>","null","","1549488999777","8","","","","","",""
"null","","html-keyboard-response","148","573392","0.0-6.0-9.7","02","<p><img class= 'stimulus' src='images/baseline/building9.jpg'></img></p>","null","","1549488999933","","","","","","",""
"null","","html-keyboard-response","149","573543","0.0-6.0-10.7","02","<p><img class= 'stimulus' src='images/baseline/Skijump 1.jpg'></img></p>","null","","1549489000083","","","","","","",""
"null","","html-keyboard-response","150","573692","0.0-6.0-11.7","02","<p><img class= 'stimulus' src='images/baseline/Peyto_Lake-Banff_NP-Canada.jpg'></img></p>","null","","1549489000233","","","","","","",""
"null","","html-keyboard-response","151","573843","0.0-6.0-12.7","02","<p><img class= 'stimulus' src='images/baseline/Lake 5.jpg'></img></p>","null","","1549489000382","12","","","","","",""
"null","","html-keyboard-response","152","573993","0.0-6.0-13.7","02","<p><img class= 'stimulus' src='images/baseline/red-rocks-park.jpg'></img></p>","null","","1549489000533","","","","","","",""
"null","","html-keyboard-response","153","574142","0.0-6.0-14.7","02","<p><img class= 'stimulus' src='images/target/lookout_tower.jpg'></img></p>","null","","1549489000684","14","","","","","",""
"null","","html-keyboard-response","154","574292","0.0-6.0-15.7","02","<p><img class= 'stimulus' src='images/baseline/landscape22.jpg'></img></p>","null","","1549489000835","","","","","","",""
"null","","html-keyboard-response","155","574442","0.0-6.0-16.7","02","<p><img class= 'stimulus' src='images/baseline/04284v.jpg'></img></p>","null","","1549489000983","","","","","","",""
"null","","html-keyboard-response","156","574610","0.0-6.0-17.7","02","<p><img class= 'stimulus' src='images/baseline/landscape31.jpg'></img></p>","null","","1549489001134","","","","","","",""
"1230.1000000006752","","html-button-response","157","576848","0.0-6.0-18.7","02","<div class = ""response_question"">WAS THE IMAGE ROTATED...</div>","","3","","","6","8","bas","right","practice","true"
"3238.3000000008615","","html-button-response","158","580087","0.0-6.0-0.8","02","","","0","","","","","","","",""
"null","","html-keyboard-response","159","580160","0.0-6.0-1.8","02","<p><img class= 'stimulus' src='images/baseline/04014v.jpg'></img></p>","null","","1549489006749","","","","","","",""
"null","","html-keyboard-response","160","580259","0.0-6.0-2.8","02","<p><img class= 'stimulus' src='images/baseline/Aletschgletscher-Eggishorn.jpg'></img></p>","null","","1549489006851","","","","","","",""
"null","","html-keyboard-response","161","580360","0.0-6.0-3.8","02","<p><img class= 'stimulus' src='images/baseline/04064v.jpg'></img></p>","null","","1549489006949","","","","","","",""
"null","","html-keyboard-response","162","580459","0.0-6.0-4.8","02","<p><img class= 'stimulus' src='images/baseline/pexels-photo-59321.jpeg'></img></p>","null","","1549489007049","4","","","","","",""
"null","","html-keyboard-response","163","580559","0.0-6.0-5.8","02","<p><img class= 'stimulus' src='images/baseline/house1.jpg'></img></p>","null","","1549489007150","","","","","","",""
"null","","html-keyboard-response","164","580659","0.0-6.0-6.8","02","<p><img class= 'stimulus' src='images/baseline/kokkari-1523011968Xfr.jpg'></img></p>","null","","1549489007250","6","","","","","",""
"null","","html-keyboard-response","165","580759","0.0-6.0-7.8","02","<p><img class= 'stimulus' src='images/baseline/02960v.jpg'></img></p>","null","","1549489007350","","","","","","",""
"null","","html-keyboard-response","166","580859","0.0-6.0-8.8","02","<p><img class= 'stimulus' src='images/baseline/99_-_Machu_Picchu_-_Juin_2009.edit3.jpg'></img></p>","null","","1549489007450","8","","","","","",""
"null","","html-keyboard-response","167","580959","0.0-6.0-9.8","02","<p><img class= 'stimulus' src='images/baseline/farmhouse8.jpg'></img></p>","null","","1549489007551","","","","","","",""
"null","","html-keyboard-response","168","581059","0.0-6.0-10.8","02","<p><img class= 'stimulus' src='images/baseline/Lake 14.jpg'></img></p>","null","","1549489007651","","","","","","",""
"null","","html-keyboard-response","169","581160","0.0-6.0-11.8","02","<p><img class= 'stimulus' src='images/baseline/03041v.jpg'></img></p>","null","","1549489007749","","","","","","",""
"null","","html-keyboard-response","170","581259","0.0-6.0-12.8","02","<p><img class= 'stimulus' src='images/target/1937-single-tree-at-the-top-of-stone-mountain-pv.jpg'></img></p>","null","","1549489007849","12","","","","","",""
"null","","html-keyboard-response","171","581359","0.0-6.0-13.8","02","<p><img class= 'stimulus' src='images/baseline/pexels-photo-280222.jpeg'></img></p>","null","","1549489007949","","","","","","",""
"null","","html-keyboard-response","172","581459","0.0-6.0-14.8","02","<p><img class= 'stimulus' src='images/baseline/landscape40.jpg'></img></p>","null","","1549489008050","14","","","","","",""
"null","","html-keyboard-response","173","581561","0.0-6.0-15.8","02","<p><img class= 'stimulus' src='images/baseline/pexels-photo-1261728.jpeg'></img></p>","null","","1549489008150","","","","","","",""
"null","","html-keyboard-response","174","581660","0.0-6.0-16.8","02","<p><img class= 'stimulus' src='images/baseline/pexels-photo-1840893.jpeg'></img></p>","null","","1549489008250","","","","","","",""
"null","","html-keyboard-response","175","581776","0.0-6.0-17.8","02","<p><img class= 'stimulus' src='images/baseline/pexels-photo-1054289.jpeg'></img></p>","null","","1549489008350","","","","","","",""
"1339.1000000010245","","html-button-response","176","584120","0.0-6.0-18.8","02","<div class = ""response_question"">WAS THE IMAGE ROTATED...</div>","","3","","","4","8","bas","right","practice","true"
"3014.2999999988824","","html-button-response","177","587135","0.0-6.0-0.9","02","","","0","","","","","","","",""
"null","","html-keyboard-response","178","587209","0.0-6.0-1.9","02","<p><img class= 'stimulus' src='images/baseline/trees 23.jpg'></img></p>","null","","1549489013800","","","","","","",""
"null","","html-keyboard-response","179","587309","0.0-6.0-2.9","02","<p><img class= 'stimulus' src='images/baseline/river 1.jpg'></img></p>","null","","1549489013900","","","","","","",""
"null","","html-keyboard-response","180","587410","0.0-6.0-3.9","02","<p><img class= 'stimulus' src='images/baseline/house7.jpg'></img></p>","null","","1549489014000","","","","","","",""
"null","","html-keyboard-response","181","587510","0.0-6.0-4.9","02","<p><img class= 'stimulus' src='images/baseline/sun-through-winter-tree-branches1.jpg'></img></p>","null","","1549489014100","4","","","","","",""
"null","","html-keyboard-response","182","587609","0.0-6.0-5.9","02","<p><img class= 'stimulus' src='images/baseline/landscape33.jpg'></img></p>","null","","1549489014200","","","","","","",""
"null","","html-keyboard-response","183","587710","0.0-6.0-6.9","02","<p><img class= 'stimulus' src='images/baseline/house10.jpg'></img></p>","null","","1549489014300","6","","","","","",""
"null","","html-keyboard-response","184","587809","0.0-6.0-7.9","02","<p><img class= 'stimulus' src='images/baseline/Lake 16.jpg'></img></p>","null","","1549489014400","","","","","","",""
"null","","html-keyboard-response","185","587909","0.0-6.0-8.9","02","<p><img class= 'stimulus' src='images/baseline/landscape23.jpg'></img></p>","null","","1549489014500","8","","","","","",""
"null","","html-keyboard-response","186","588009","0.0-6.0-9.9","02","<p><img class= 'stimulus' src='images/baseline/sunny-landscape-with-dry-brush-and-mountain-background.jpg'></img></p>","null","","1549489014600","","","","","","",""
"null","","html-keyboard-response","187","588109","0.0-6.0-10.9","02","<p><img class= 'stimulus' src='images/baseline/pexels-photo-351264.jpeg'></img></p>","null","","1549489014700","","","","","","",""
"null","","html-keyboard-response","188","588209","0.0-6.0-11.9","02","<p><img class= 'stimulus' src='images/baseline/02988v.jpg'></img></p>","null","","1549489014801","","","","","","",""
"null","","html-keyboard-response","189","588309","0.0-6.0-12.9","02","<p><img class= 'stimulus left-rotate' src='images/target/coconut-3396945_640.jpg'></img></p>","null","","1549489014899","12","","","","","",""
"null","","html-keyboard-response","190","588409","0.0-6.0-13.9","02","<p><img class= 'stimulus' src='images/baseline/landscape38.jpg'></img></p>","null","","1549489014999","","","","","","",""
"null","","html-keyboard-response","191","588509","0.0-6.0-14.9","02","<p><img class= 'stimulus' src='images/baseline/snowy tree.jpg'></img></p>","null","","1549489015101","14","","","","","",""
"null","","html-keyboard-response","192","588609","0.0-6.0-15.9","02","<p><img class= 'stimulus' src='images/baseline/pexels-photo-414491.jpeg'></img></p>","null","","1549489015200","","","","","","",""
"null","","html-keyboard-response","193","588710","0.0-6.0-16.9","02","<p><img class= 'stimulus' src='images/baseline/Street 2.jpg'></img></p>","null","","1549489015300","","","","","","",""
"null","","html-keyboard-response","194","588827","0.0-6.0-17.9","02","<p><img class= 'stimulus' src='images/baseline/Street 5.jpg'></img></p>","null","","1549489015400","","","","","","",""
"1076.1000000020722","","html-button-response","195","590920","0.0-6.0-18.9","02","<div class = ""response_question"">WAS THE IMAGE ROTATED...</div>","","0","","","4","8","bas","left","practice","true"
"2014.2999999988824","","html-button-response","196","592936","0.0-6.0-0.10","02","","","0","","","","","","","",""
"null","","html-keyboard-response","197","593010","0.0-6.0-1.10","02","<p><img class= 'stimulus' src='images/baseline/03112v.jpg'></img></p>","null","","1549489019600","","","","","","",""
"null","","html-keyboard-response","198","593110","0.0-6.0-2.10","02","<p><img class= 'stimulus' src='images/baseline/04229v.jpg'></img></p>","null","","1549489019700","","","","","","",""
"null","","html-keyboard-response","199","593209","0.0-6.0-3.10","02","<p><img class= 'stimulus' src='images/baseline/05186v.jpg'></img></p>","null","","1549489019800","","","","","","",""
"null","","html-keyboard-response","200","593310","0.0-6.0-4.10","02","<p><img class= 'stimulus' src='images/baseline/farmhouse11.jpg'></img></p>","null","","1549489019901","4","","","","","",""
"null","","html-keyboard-response","201","593410","0.0-6.0-5.10","02","<p><img class= 'stimulus' src='images/baseline/autumn-landscape-with-lake-fall-trees-mountains.jpg'></img></p>","null","","1549489020000","","","","","","",""
"null","","html-keyboard-response","202","593510","0.0-6.0-6.10","02","<p><img class= 'stimulus' src='images/baseline/Waterfall 1.jpg'></img></p>","null","","1549489020100","6","","","","","",""
"null","","html-keyboard-response","203","593609","0.0-6.0-7.10","02","<p><img class= 'stimulus' src='images/baseline/Sailing 3.jpg'></img></p>","null","","1549489020200","","","","","","",""
"null","","html-keyboard-response","204","593709","0.0-6.0-8.10","02","<p><img class= 'stimulus' src='images/baseline/town-square-in-wroclaw-1539098440MZy.jpg'></img></p>","null","","1549489020299","8","","","","","",""
"null","","html-keyboard-response","205","593809","0.0-6.0-9.10","02","<p><img class= 'stimulus' src='images/baseline/03066v.jpg'></img></p>","null","","1549489020400","","","","","","",""
"null","","html-keyboard-response","206","593910","0.0-6.0-10.10","02","<p><img class= 'stimulus' src='images/baseline/farmhouse7.jpg'></img></p>","null","","1549489020500","","","","","","",""
"null","","html-keyboard-response","207","594010","0.0-6.0-11.10","02","<p><img class= 'stimulus' src='images/baseline/Paysage_enneige_02.jpg'></img></p>","null","","1549489020599","","","","","","",""
"null","","html-keyboard-response","208","594111","0.0-6.0-12.10","02","<p><img class= 'stimulus' src='images/baseline/agriculture-cereal-clouds-175389.jpg'></img></p>","null","","1549489020700","12","","","","","",""
"null","","html-keyboard-response","209","594210","0.0-6.0-13.10","02","<p><img class= 'stimulus' src='images/baseline/seoul-410266_1920.jpg'></img></p>","null","","1549489020800","","","","","","",""
"null","","html-keyboard-response","210","594310","0.0-6.0-14.10","02","<p><img class= 'stimulus left-rotate' src='images/target/tree-in-desert-landscape.jpg'></img></p>","null","","1549489020900","14","","","","","",""
"null","","html-keyboard-response","211","594409","0.0-6.0-15.10","02","<p><img class= 'stimulus' src='images/baseline/04158v.jpg'></img></p>","null","","1549489021000","","","","","","",""
"null","","html-keyboard-response","212","594510","0.0-6.0-16.10","02","<p><img class= 'stimulus' src='images/baseline/building4.jpg'></img></p>","null","","1549489021100","","","","","","",""
"null","","html-keyboard-response","213","594626","0.0-6.0-17.10","02","<p><img class= 'stimulus' src='images/baseline/04040v.jpg'></img></p>","null","","1549489021200","","","","","","",""
"1162.0000000002328","","html-button-response","214","596792","0.0-6.0-18.10","02","<div class = ""response_question"">WAS THE IMAGE ROTATED...</div>","","0","","","6","8","bas","left","practice","true"
"1870.1000000000931","","html-button-response","215","598663","0.0-6.0-0.11","02","","","0","","","","","","","",""
"null","","html-keyboard-response","216","598743","0.0-6.0-1.11","02","<p><img class= 'stimulus' src='images/baseline/03063v.jpg'></img></p>","null","","1549489025334","","","","","","",""
"null","","html-keyboard-response","217","598843","0.0-6.0-2.11","02","<p><img class= 'stimulus' src='images/baseline/sunset-over-the-lake.jpg'></img></p>","null","","1549489025433","","","","","","",""
"null","","html-keyboard-response","218","598944","0.0-6.0-3.11","02","<p><img class= 'stimulus' src='images/baseline/04010v.jpg'></img></p>","null","","1549489025534","","","","","","",""
"null","","html-keyboard-response","219","599042","0.0-6.0-4.11","02","<p><img class= 'stimulus' src='images/baseline/landscape1.jpg'></img></p>","null","","1549489025633","4","","","","","",""
"null","","html-keyboard-response","220","599143","0.0-6.0-5.11","02","<p><img class= 'stimulus' src='images/baseline/hills 3.jpg'></img></p>","null","","1549489025733","","","","","","",""
"null","","html-keyboard-response","221","599242","0.0-6.0-6.11","02","<p><img class= 'stimulus' src='images/baseline/02962v.jpg'></img></p>","null","","1549489025833","6","","","","","",""
"null","","html-keyboard-response","222","599343","0.0-6.0-7.11","02","<p><img class= 'stimulus' src='images/baseline/landscape4.jpg'></img></p>","null","","1549489025932","","","","","","",""
"null","","html-keyboard-response","223","599443","0.0-6.0-8.11","02","<p><img class= 'stimulus left-rotate' src='images/target/sand-3339890_640.jpg'></img></p>","null","","1549489026033","8","","","","","",""
"null","","html-keyboard-response","224","599543","0.0-6.0-9.11","02","<p><img class= 'stimulus' src='images/baseline/house6.jpg'></img></p>","null","","1549489026133","","","","","","",""
"null","","html-keyboard-response","225","599643","0.0-6.0-10.11","02","<p><img class= 'stimulus' src='images/baseline/Linden,_paysage.jpg'></img></p>","null","","1549489026233","","","","","","",""
"null","","html-keyboard-response","226","599743","0.0-6.0-11.11","02","<p><img class= 'stimulus' src='images/baseline/04179v.jpg'></img></p>","null","","1549489026334","","","","","","",""
"null","","html-keyboard-response","227","599842","0.0-6.0-12.11","02","<p><img class= 'stimulus' src='images/baseline/Skyscraper 1.jpg'></img></p>","null","","1549489026433","12","","","","","",""
"null","","html-keyboard-response","228","599942","0.0-6.0-13.11","02","<p><img class= 'stimulus' src='images/baseline/Street 4.jpg'></img></p>","null","","1549489026534","","","","","","",""
"null","","html-keyboard-response","229","600044","0.0-6.0-14.11","02","<p><img class= 'stimulus' src='images/baseline/Dock 1.jpg'></img></p>","null","","1549489026633","14","","","","","",""
"null","","html-keyboard-response","230","600142","0.0-6.0-15.11","02","<p><img class= 'stimulus' src='images/baseline/__08_-_ITALY_-_Forli_under_snow_-_winter_landscape_of_city_(christmas).jpg'></img></p>","null","","1549489026734","","","","","","",""
"null","","html-keyboard-response","231","600243","0.0-6.0-16.11","02","<p><img class= 'stimulus' src='images/baseline/landscape8.jpg'></img></p>","null","","1549489026833","","","","","","",""
"null","","html-keyboard-response","232","600359","0.0-6.0-17.11","02","<p><img class= 'stimulus' src='images/baseline/farmhouse9.jpg'></img></p>","null","","1549489026933","","","","","","",""
"795.6000000012573","","html-button-response","233","602159","0.0-6.0-18.11","02","<div class = ""response_question"">WAS THE IMAGE ROTATED...</div>","","0","","","6","2","bas","left","practice","true"
"3374.2999999994645","","html-button-response","234","605536","0.0-6.0-0.12","02","","","0","","","","","","","",""
"null","","html-keyboard-response","235","605609","0.0-6.0-1.12","02","<p><img class= 'stimulus' src='images/baseline/pexels-photo-568236.jpeg'></img></p>","null","","1549489032200","","","","","","",""
"null","","html-keyboard-response","236","605710","0.0-6.0-2.12","02","<p><img class= 'stimulus' src='images/baseline/building5.jpg'></img></p>","null","","1549489032300","","","","","","",""
"null","","html-keyboard-response","237","605809","0.0-6.0-3.12","02","<p><img class= 'stimulus' src='images/baseline/03098v.jpg'></img></p>","null","","1549489032399","","","","","","",""
"null","","html-keyboard-response","238","605910","0.0-6.0-4.12","02","<p><img class= 'stimulus' src='images/baseline/autumn-in-red-rocks-park.jpg'></img></p>","null","","1549489032500","4","","","","","",""
"null","","html-keyboard-response","239","606011","0.0-6.0-5.12","02","<p><img class= 'stimulus' src='images/baseline/Path 1.jpg'></img></p>","null","","1549489032600","","","","","","",""
"null","","html-keyboard-response","240","606110","0.0-6.0-6.12","02","<p><img class= 'stimulus' src='images/baseline/landscape3.jpg'></img></p>","null","","1549489032700","6","","","","","",""
"null","","html-keyboard-response","241","606210","0.0-6.0-7.12","02","<p><img class= 'stimulus' src='images/baseline/building8.jpg'></img></p>","null","","1549489032800","","","","","","",""
"null","","html-keyboard-response","242","606310","0.0-6.0-8.12","02","<p><img class= 'stimulus' src='images/target/lighthouse-843522_640.jpg'></img></p>","null","","1549489032900","8","","","","","",""
"null","","html-keyboard-response","243","606410","0.0-6.0-9.12","02","<p><img class= 'stimulus' src='images/baseline/pexels-photo-894312.jpeg'></img></p>","null","","1549489033000","","","","","","",""
"null","","html-keyboard-response","244","606509","0.0-6.0-10.12","02","<p><img class= 'stimulus' src='images/baseline/04063v.jpg'></img></p>","null","","1549489033100","","","","","","",""
"null","","html-keyboard-response","245","606610","0.0-6.0-11.12","02","<p><img class= 'stimulus' src='images/baseline/05179v.jpg'></img></p>","null","","1549489033201","","","","","","",""
"null","","html-keyboard-response","246","606710","0.0-6.0-12.12","02","<p><img class= 'stimulus' src='images/baseline/04222v.jpg'></img></p>","null","","1549489033301","12","","","","","",""
"null","","html-keyboard-response","247","606810","0.0-6.0-13.12","02","<p><img class= 'stimulus' src='images/baseline/empire-state-building.jpg'></img></p>","null","","1549489033400","","","","","","",""
"null","","html-keyboard-response","248","606909","0.0-6.0-14.12","02","<p><img class= 'stimulus' src='images/baseline/04098v.jpg'></img></p>","null","","1549489033499","14","","","","","",""
"null","","html-keyboard-response","249","607009","0.0-6.0-15.12","02","<p><img class= 'stimulus' src='images/baseline/farmhouse6.jpg'></img></p>","null","","1549489033600","","","","","","",""
"null","","html-keyboard-response","250","607110","0.0-6.0-16.12","02","<p><img class= 'stimulus' src='images/baseline/pexels-photo-221125.jpeg'></img></p>","null","","1549489033700","","","","","","",""
"null","","html-keyboard-response","251","607226","0.0-6.0-17.12","02","<p><img class= 'stimulus' src='images/baseline/building6.jpg'></img></p>","null","","1549489033799","","","","","","",""
"1106.2999999994645","","html-button-response","252","609336","0.0-6.0-18.12","02","<div class = ""response_question"">WAS THE IMAGE ROTATED...</div>","","3","","","6","2","bas","right","practice","true"
"2046.3999999992084","","html-button-response","253","611383","0.0-6.0-0.13","02","","","0","","","","","","","",""
"null","","html-keyboard-response","254","611460","0.0-6.0-1.13","02","<p><img class= 'stimulus' src='images/baseline/Sunset 4.jpg'></img></p>","null","","1549489038050","","","","","","",""
"null","","html-keyboard-response","255","611559","0.0-6.0-2.13","02","<p><img class= 'stimulus' src='images/baseline/field 1.jpg'></img></p>","null","","1549489038150","","","","","","",""
"null","","html-keyboard-response","256","611660","0.0-6.0-3.13","02","<p><img class= 'stimulus' src='images/baseline/Nature 1.jpg'></img></p>","null","","1549489038250","","","","","","",""
"null","","html-keyboard-response","257","611760","0.0-6.0-4.13","02","<p><img class= 'stimulus' src='images/baseline/03220v.jpg'></img></p>","null","","1549489038350","4","","","","","",""
"null","","html-keyboard-response","258","611859","0.0-6.0-5.13","02","<p><img class= 'stimulus' src='images/baseline/landscape6.jpg'></img></p>","null","","1549489038450","","","","","","",""
"null","","html-keyboard-response","259","611959","0.0-6.0-6.13","02","<p><img class= 'stimulus' src='images/target/buildin5.jpg'></img></p>","null","","1549489038550","6","","","","","",""
"null","","html-keyboard-response","260","612060","0.0-6.0-7.13","02","<p><img class= 'stimulus' src='images/baseline/Sunset 3.jpg'></img></p>","null","","1549489038650","","","","","","",""
"null","","html-keyboard-response","261","612161","0.0-6.0-8.13","02","<p><img class= 'stimulus' src='images/baseline/valley 1.jpg'></img></p>","null","","1549489038750","8","","","","","",""
"null","","html-keyboard-response","262","612259","0.0-6.0-9.13","02","<p><img class= 'stimulus' src='images/baseline/Cold 7.jpg'></img></p>","null","","1549489038852","","","","","","",""
"null","","html-keyboard-response","263","612360","0.0-6.0-10.13","02","<p><img class= 'stimulus' src='images/baseline/hills 4.jpg'></img></p>","null","","1549489038950","","","","","","",""
"null","","html-keyboard-response","264","612460","0.0-6.0-11.13","02","<p><img class= 'stimulus' src='images/baseline/pexels-photo-1837621.jpeg'></img></p>","null","","1549489039051","","","","","","",""
"null","","html-keyboard-response","265","612559","0.0-6.0-12.13","02","<p><img class= 'stimulus' src='images/baseline/05131v.jpg'></img></p>","null","","1549489039151","12","","","","","",""
"null","","html-keyboard-response","266","612659","0.0-6.0-13.13","02","<p><img class= 'stimulus' src='images/baseline/agriculture-countryside-crop-259280.jpg'></img></p>","null","","1549489039249","","","","","","",""
"null","","html-keyboard-response","267","612760","0.0-6.0-14.13","02","<p><img class= 'stimulus' src='images/baseline/05240v.jpg'></img></p>","null","","1549489039351","14","","","","","",""
"null","","html-keyboard-response","268","612860","0.0-6.0-15.13","02","<p><img class= 'stimulus' src='images/baseline/house3.jpg'></img></p>","null","","1549489039450","","","","","","",""
"null","","html-keyboard-response","269","612960","0.0-6.0-16.13","02","<p><img class= 'stimulus' src='images/baseline/Grass 6.jpg'></img></p>","null","","1549489039550","","","","","","",""
"null","","html-keyboard-response","270","613077","0.0-6.0-17.13","02","<p><img class= 'stimulus' src='images/baseline/horse_statue.jpg'></img></p>","null","","1549489039650","","","","","","",""
"702.8000000027241","","html-button-response","271","614783","0.0-6.0-18.13","02","<div class = ""response_question"">WAS THE IMAGE ROTATED...</div>","","3","","","4","2","bas","right","practice","true"
"1878.1999999991385","","html-button-response","272","616663","0.0-6.0-0.14","02","","","0","","","","","","","",""
"null","","html-keyboard-response","273","616761","0.0-6.0-1.14","02","<p><img class= 'stimulus' src='images/baseline/farmhouse1.jpg'></img></p>","null","","1549489043350","","","","","","",""
"null","","html-keyboard-response","274","616859","0.0-6.0-2.14","02","<p><img class= 'stimulus' src='images/baseline/architecture-956332_1280.jpg'></img></p>","null","","1549489043450","","","","","","",""
"null","","html-keyboard-response","275","616960","0.0-6.0-3.14","02","<p><img class= 'stimulus' src='images/baseline/dirt-road-or-trail-through-park.jpg'></img></p>","null","","1549489043551","","","","","","",""
"null","","html-keyboard-response","276","617060","0.0-6.0-4.14","02","<p><img class= 'stimulus' src='images/baseline/04300v.jpg'></img></p>","null","","1549489043649","4","","","","","",""
"null","","html-keyboard-response","277","617160","0.0-6.0-5.14","02","<p><img class= 'stimulus' src='images/baseline/building3.jpg'></img></p>","null","","1549489043749","","","","","","",""
"null","","html-keyboard-response","278","617260","0.0-6.0-6.14","02","<p><img class= 'stimulus left-rotate' src='images/target/landscape1.jpg'></img></p>","null","","1549489043850","6","","","","","",""
"null","","html-keyboard-response","279","617360","0.0-6.0-7.14","02","<p><img class= 'stimulus' src='images/baseline/05189v.jpg'></img></p>","null","","1549489043950","","","","","","",""
"null","","html-keyboard-response","280","617460","0.0-6.0-8.14","02","<p><img class= 'stimulus' src='images/baseline/house2.jpg'></img></p>","null","","1549489044051","8","","","","","",""
"null","","html-keyboard-response","281","617561","0.0-6.0-9.14","02","<p><img class= 'stimulus' src='images/baseline/04086v.jpg'></img></p>","null","","1549489044150","","","","","","",""
"null","","html-keyboard-response","282","617659","0.0-6.0-10.14","02","<p><img class= 'stimulus' src='images/baseline/03056v.jpg'></img></p>","null","","1549489044250","","","","","","",""
"null","","html-keyboard-response","283","617760","0.0-6.0-11.14","02","<p><img class= 'stimulus' src='images/baseline/field 3.jpg'></img></p>","null","","1549489044351","","","","","","",""
"null","","html-keyboard-response","284","617860","0.0-6.0-12.14","02","<p><img class= 'stimulus' src='images/baseline/grand-teton-mountains.jpg'></img></p>","null","","1549489044450","12","","","","","",""
"null","","html-keyboard-response","285","617959","0.0-6.0-13.14","02","<p><img class= 'stimulus' src='images/baseline/vintage-art-deco-storefront.jpg'></img></p>","null","","1549489044551","","","","","","",""
"null","","html-keyboard-response","286","618060","0.0-6.0-14.14","02","<p><img class= 'stimulus' src='images/baseline/05158v.jpg'></img></p>","null","","1549489044651","14","","","","","",""
"null","","html-keyboard-response","287","618160","0.0-6.0-15.14","02","<p><img class= 'stimulus' src='images/baseline/Lake 9.jpg'></img></p>","null","","1549489044749","","","","","","",""
"null","","html-keyboard-response","288","618260","0.0-6.0-16.14","02","<p><img class= 'stimulus' src='images/baseline/03045v.jpg'></img></p>","null","","1549489044850","","","","","","",""
"null","","html-keyboard-response","289","618377","0.0-6.0-17.14","02","<p><img class= 'stimulus' src='images/baseline/landscape13.jpg'></img></p>","null","","1549489044951","","","","","","",""
"811.2999999976018","","html-button-response","290","620191","0.0-6.0-18.14","02","<div class = ""response_question"">WAS THE IMAGE ROTATED...</div>","","0","","","4","2","bas","left","practice","true"
"3062.0000000017462","","html-button-response","291","623255","0.0-6.0-0.15","02","","","0","","","","","","","",""
"null","","html-keyboard-response","292","623344","0.0-6.0-1.15","02","<p><img class= 'stimulus' src='images/baseline/Camping 10.jpg'></img></p>","null","","1549489049934","","","","","","",""
"null","","html-keyboard-response","293","623444","0.0-6.0-2.15","02","<p><img class= 'stimulus' src='images/baseline/05145v.jpg'></img></p>","null","","1549489050034","","","","","","",""
"null","","html-keyboard-response","294","623544","0.0-6.0-3.15","02","<p><img class= 'stimulus' src='images/baseline/03162v.jpg'></img></p>","null","","1549489050134","","","","","","",""
"null","","html-keyboard-response","295","623644","0.0-6.0-4.15","02","<p><img class= 'stimulus' src='images/baseline/03180v.jpg'></img></p>","null","","1549489050233","4","","","","","",""
"null","","html-keyboard-response","296","623743","0.0-6.0-5.15","02","<p><img class= 'stimulus' src='images/baseline/chicago-skyline-at-night-1476869511p8U.jpg'></img></p>","null","","1549489050334","","","","","","",""
"null","","html-keyboard-response","297","623844","0.0-6.0-6.15","02","<p><img class= 'stimulus' src='images/baseline/Freudenberg_sg_Switzerland.jpg'></img></p>","null","","1549489050434","6","","","","","",""
"null","","html-keyboard-response","298","623943","0.0-6.0-7.15","02","<p><img class= 'stimulus' src='images/baseline/farmhouse3.jpg'></img></p>","null","","1549489050534","","","","","","",""
"null","","html-keyboard-response","299","624043","0.0-6.0-8.15","02","<p><img class= 'stimulus' src='images/baseline/Street 1.jpg'></img></p>","null","","1549489050634","8","","","","","",""
"null","","html-keyboard-response","300","624143","0.0-6.0-9.15","02","<p><img class= 'stimulus' src='images/baseline/05247v.jpg'></img></p>","null","","1549489050734","","","","","","",""
"null","","html-keyboard-response","301","624243","0.0-6.0-10.15","02","<p><img class= 'stimulus' src='images/baseline/Lake 13.jpg'></img></p>","null","","1549489050833","","","","","","",""
"null","","html-keyboard-response","302","624343","0.0-6.0-11.15","02","<p><img class= 'stimulus' src='images/baseline/04062v.jpg'></img></p>","null","","1549489050934","","","","","","",""
"null","","html-keyboard-response","303","624443","0.0-6.0-12.15","02","<p><img class= 'stimulus' src='images/baseline/road.jpg'></img></p>","null","","1549489051034","12","","","","","",""
"null","","html-keyboard-response","304","624543","0.0-6.0-13.15","02","<p><img class= 'stimulus' src='images/baseline/landscape23.jpg'></img></p>","null","","1549489051133","","","","","","",""
"null","","html-keyboard-response","305","624643","0.0-6.0-14.15","02","<p><img class= 'stimulus' src='images/target/tree_1.jpg'></img></p>","null","","1549489051233","14","","","","","",""
"null","","html-keyboard-response","306","624744","0.0-6.0-15.15","02","<p><img class= 'stimulus' src='images/baseline/Aletschgletscher-Eggishorn.jpg'></img></p>","null","","1549489051334","","","","","","",""
"null","","html-keyboard-response","307","624843","0.0-6.0-16.15","02","<p><img class= 'stimulus' src='images/baseline/03212v.jpg'></img></p>","null","","1549489051433","","","","","","",""
"null","","html-keyboard-response","308","624960","0.0-6.0-17.15","02","<p><img class= 'stimulus' src='images/baseline/house2.jpg'></img></p>","null","","1549489051533","","","","","","",""
"1172.9000000014203","","html-button-response","309","627136","0.0-6.0-18.15","02","<div class = ""response_question"">WAS THE IMAGE ROTATED...</div>","","3","","","6","8","bas","right","practice","true"
"11758.399999998743","","html-button-response","310","638889","0.0-7.0","02","<p>You have now completed the practice phase. We will now begin the real trials.         This is a reminder that you will be searching for a rotated image among the series of upright images.</p>         <p>Remember, please do not blink or move your eyes while the images are on the screen.</p>         <p>At the end of the experiment, the experimenter will be able to show you how accurate you were.</p>","","0","","","","","","","",""
"4838.700000000303","","html-button-response","311","643728","0.0-8.0-0.0-0.0","02","","","0","","","","","","","",""
"null","","html-keyboard-response","312","643803","0.0-8.0-0.0-1.0","02","<p><img class= 'stimulus' src='images/baseline/lake 2.jpg'></img></p>","null","","1549489070393","","","","","","",""
"null","","html-keyboard-response","313","643904","0.0-8.0-0.0-2.0","02","<p><img class= 'stimulus' src='images/baseline/Skyscraper 2.jpg'></img></p>","null","","1549489070493","","","","","","",""
"null","","html-keyboard-response","314","644004","0.0-8.0-0.0-3.0","02","<p><img class= 'stimulus' src='images/baseline/Street 3.jpg'></img></p>","null","","1549489070594","","","","","","",""
"null","","html-keyboard-response","315","644103","0.0-8.0-0.0-4.0","02","<p><img class= 'stimulus' src='images/baseline/road.jpg'></img></p>","null","","1549489070693","4","","","","","",""
"null","","html-keyboard-response","316","644203","0.0-8.0-0.0-5.0","02","<p><img class= 'stimulus' src='images/baseline/landscape4.jpg'></img></p>","null","","1549489070794","","","","","","",""
"null","","html-keyboard-response","317","644303","0.0-8.0-0.0-6.0","02","<p><img class= 'stimulus' src='images/baseline/04222v.jpg'></img></p>","null","","1549489070893","6","","","","","",""
"null","","html-keyboard-response","318","644403","0.0-8.0-0.0-7.0","02","<p><img class= 'stimulus' src='images/baseline/04284v.jpg'></img></p>","null","","1549489070993","","","","","","",""
"null","","html-keyboard-response","319","644503","0.0-8.0-0.0-8.0","02","<p><img class= 'stimulus' src='images/baseline/Lake 15.jpg'></img></p>","null","","1549489071093","8","","","","","",""
"null","","html-keyboard-response","320","644604","0.0-8.0-0.0-9.0","02","<p><img class= 'stimulus' src='images/baseline/meadow-with-mountain-in-background.jpg'></img></p>","null","","1549489071194","","","","","","",""
"null","","html-keyboard-response","321","644704","0.0-8.0-0.0-10.0","02","<p><img class= 'stimulus' src='images/baseline/03041v.jpg'></img></p>","null","","1549489071294","","","","","","",""
"null","","html-keyboard-response","322","644803","0.0-8.0-0.0-11.0","02","<p><img class= 'stimulus' src='images/baseline/dirt-road-or-trail-through-park.jpg'></img></p>","null","","1549489071394","","","","","","",""
"null","","html-keyboard-response","323","644903","0.0-8.0-0.0-12.0","02","<p><img class= 'stimulus' src='images/target/building17.jpg'></img></p>","null","","1549489071494","12","","","","","",""
"null","","html-keyboard-response","324","645003","0.0-8.0-0.0-13.0","02","<p><img class= 'stimulus' src='images/baseline/building6.jpg'></img></p>","null","","1549489071594","","","","","","",""
"null","","html-keyboard-response","325","645104","0.0-8.0-0.0-14.0","02","<p><img class= 'stimulus' src='images/baseline/04162v.jpg'></img></p>","null","","1549489071694","14","","","","","",""
"null","","html-keyboard-response","326","645203","0.0-8.0-0.0-15.0","02","<p><img class= 'stimulus' src='images/baseline/Skyscraper 1.jpg'></img></p>","null","","1549489071794","","","","","","",""
"null","","html-keyboard-response","327","645303","0.0-8.0-0.0-16.0","02","<p><img class= 'stimulus' src='images/baseline/04086v.jpg'></img></p>","null","","1549489071894","","","","","","",""
"null","","html-keyboard-response","328","645420","0.0-8.0-0.0-17.0","02","<p><img class= 'stimulus' src='images/baseline/pexels-photo-259280.jpeg'></img></p>","null","","1549489071993","","","","","","",""
"688.2999999980675","","html-button-response","329","647112","0.0-8.0-0.0-18.0","02","<div class = ""response_question"">WAS THE IMAGE ROTATED...</div>","","3","","","4","8","bas","right","test","true"
"1862.1999999996042","","html-button-response","330","648976","0.0-8.0-0.0-0.1","02","","","0","","","","","","","",""
"null","","html-keyboard-response","331","649054","0.0-8.0-0.0-1.1","02","<p><img class= 'stimulus' src='images/baseline/Street 2.jpg'></img></p>","null","","1549489075644","","","","","","",""
"null","","html-keyboard-response","332","649154","0.0-8.0-0.0-2.1","02","<p><img class= 'stimulus' src='images/baseline/sunset-over-the-lake.jpg'></img></p>","null","","1549489075744","","","","","","",""
"null","","html-keyboard-response","333","649253","0.0-8.0-0.0-3.1","02","<p><img class= 'stimulus' src='images/baseline/house7.jpg'></img></p>","null","","1549489075843","","","","","","",""
"null","","html-keyboard-response","334","649353","0.0-8.0-0.0-4.1","02","<p><img class= 'stimulus' src='images/baseline/agriculture-countryside-crop-259280.jpg'></img></p>","null","","1549489075944","4","","","","","",""
"null","","html-keyboard-response","335","649454","0.0-8.0-0.0-5.1","02","<p><img class= 'stimulus' src='images/baseline/Dirt 2.jpg'></img></p>","null","","1549489076044","","","","","","",""
"null","","html-keyboard-response","336","649553","0.0-8.0-0.0-6.1","02","<p><img class= 'stimulus left-rotate' src='images/target/petronas-towers-433081_1920.jpg'></img></p>","null","","1549489076145","6","","","","","",""
"null","","html-keyboard-response","337","649653","0.0-8.0-0.0-7.1","02","<p><img class= 'stimulus' src='images/baseline/Cold 7.jpg'></img></p>","null","","1549489076244","","","","","","",""
"null","","html-keyboard-response","338","649754","0.0-8.0-0.0-8.1","02","<p><img class= 'stimulus' src='images/baseline/04179v.jpg'></img></p>","null","","1549489076343","8","","","","","",""
"null","","html-keyboard-response","339","649853","0.0-8.0-0.0-9.1","02","<p><img class= 'stimulus' src='images/baseline/farmhouse8.jpg'></img></p>","null","","1549489076443","","","","","","",""
"null","","html-keyboard-response","340","649953","0.0-8.0-0.0-10.1","02","<p><img class= 'stimulus' src='images/baseline/landscape11.jpg'></img></p>","null","","1549489076544","","","","","","",""
"null","","html-keyboard-response","341","650054","0.0-8.0-0.0-11.1","02","<p><img class= 'stimulus' src='images/baseline/Road 1.jpg'></img></p>","null","","1549489076643","","","","","","",""
"null","","html-keyboard-response","342","650153","0.0-8.0-0.0-12.1","02","<p><img class= 'stimulus' src='images/baseline/Nature 2.jpg'></img></p>","null","","1549489076743","12","","","","","",""
"null","","html-keyboard-response","343","650254","0.0-8.0-0.0-13.1","02","<p><img class= 'stimulus' src='images/baseline/landscape33.jpg'></img></p>","null","","1549489076844","","","","","","",""
"null","","html-keyboard-response","344","650354","0.0-8.0-0.0-14.1","02","<p><img class= 'stimulus' src='images/baseline/sun-through-winter-tree-branches1.jpg'></img></p>","null","","1549489076944","14","","","","","",""
"null","","html-keyboard-response","345","650453","0.0-8.0-0.0-15.1","02","<p><img class= 'stimulus' src='images/baseline/05264v.jpg'></img></p>","null","","1549489077044","","","","","","",""
"null","","html-keyboard-response","346","650554","0.0-8.0-0.0-16.1","02","<p><img class= 'stimulus' src='images/baseline/landscape31.jpg'></img></p>","null","","1549489077145","","","","","","",""
"null","","html-keyboard-response","347","650670","0.0-8.0-0.0-17.1","02","<p><img class= 'stimulus' src='images/baseline/Lake 5.jpg'></img></p>","null","","1549489077245","","","","","","",""
"678.4999999981374","","html-button-response","348","652352","0.0-8.0-0.0-18.1","02","<div class = ""response_question"">WAS THE IMAGE ROTATED...</div>","","0","","","4","2","bas","left","test","true"
"1302.299999999348","","html-button-response","349","653656","0.0-8.0-0.0-0.2","02","","","0","","","","","","","",""
"null","","html-keyboard-response","350","653737","0.0-8.0-0.0-1.2","02","<p><img class= 'stimulus' src='images/baseline/scenic-mountain-landscape.jpg'></img></p>","null","","1549489080326","","","","","","",""
"null","","html-keyboard-response","351","653836","0.0-8.0-0.0-2.2","02","<p><img class= 'stimulus' src='images/baseline/chicago-skyline-at-night-1476869511p8U.jpg'></img></p>","null","","1549489080426","","","","","","",""
"null","","html-keyboard-response","352","653937","0.0-8.0-0.0-3.2","02","<p><img class= 'stimulus' src='images/baseline/Street 5.jpg'></img></p>","null","","1549489080528","","","","","","",""
"null","","html-keyboard-response","353","654037","0.0-8.0-0.0-4.2","02","<p><img class= 'stimulus' src='images/baseline/Camping 10.jpg'></img></p>","null","","1549489080628","4","","","","","",""
"null","","html-keyboard-response","354","654138","0.0-8.0-0.0-5.2","02","<p><img class= 'stimulus' src='images/baseline/04158v.jpg'></img></p>","null","","1549489080727","","","","","","",""
"null","","html-keyboard-response","355","654237","0.0-8.0-0.0-6.2","02","<p><img class= 'stimulus' src='images/target/torrotito-375925_640.jpg'></img></p>","null","","1549489080827","6","","","","","",""
"null","","html-keyboard-response","356","654336","0.0-8.0-0.0-7.2","02","<p><img class= 'stimulus' src='images/baseline/05131v.jpg'></img></p>","null","","1549489080928","","","","","","",""
"null","","html-keyboard-response","357","654437","0.0-8.0-0.0-8.2","02","<p><img class= 'stimulus' src='images/baseline/autumn-in-red-rocks-park.jpg'></img></p>","null","","1549489081028","8","","","","","",""
"null","","html-keyboard-response","358","654537","0.0-8.0-0.0-9.2","02","<p><img class= 'stimulus' src='images/baseline/hills 1.jpg'></img></p>","null","","1549489081128","","","","","","",""
"null","","html-keyboard-response","359","654637","0.0-8.0-0.0-10.2","02","<p><img class= 'stimulus' src='images/baseline/landscape34.jpg'></img></p>","null","","1549489081228","","","","","","",""
"null","","html-keyboard-response","360","654736","0.0-8.0-0.0-11.2","02","<p><img class= 'stimulus' src='images/baseline/02988v.jpg'></img></p>","null","","1549489081328","","","","","","",""
"null","","html-keyboard-response","361","654837","0.0-8.0-0.0-12.2","02","<p><img class= 'stimulus' src='images/baseline/agriculture-bright-clouds-440731.jpg'></img></p>","null","","1549489081426","12","","","","","",""
"null","","html-keyboard-response","362","654937","0.0-8.0-0.0-13.2","02","<p><img class= 'stimulus' src='images/baseline/Lake 13.jpg'></img></p>","null","","1549489081527","","","","","","",""
"null","","html-keyboard-response","363","655036","0.0-8.0-0.0-14.2","02","<p><img class= 'stimulus' src='images/baseline/river 1.jpg'></img></p>","null","","1549489081628","14","","","","","",""
"null","","html-keyboard-response","364","655137","0.0-8.0-0.0-15.2","02","<p><img class= 'stimulus' src='images/baseline/foreclosed_home.jpg'></img></p>","null","","1549489081727","","","","","","",""
"null","","html-keyboard-response","365","655237","0.0-8.0-0.0-16.2","02","<p><img class= 'stimulus' src='images/baseline/building3.jpg'></img></p>","null","","1549489081827","","","","","","",""
"null","","html-keyboard-response","366","655353","0.0-8.0-0.0-17.2","02","<p><img class= 'stimulus' src='images/baseline/__08_-_ITALY_-_Forli_under_snow_-_winter_landscape_of_city_(christmas).jpg'></img></p>","null","","1549489081928","","","","","","",""
"932.7999999986496","","html-button-response","367","657289","0.0-8.0-0.0-18.2","02","<div class = ""response_question"">WAS THE IMAGE ROTATED...</div>","","3","","","4","2","bas","right","test","true"
"1253.999999997206","","html-button-response","368","658545","0.0-8.0-0.0-0.3","02","","","0","","","","","","","",""
"null","","html-keyboard-response","369","658621","0.0-8.0-0.0-1.3","02","<p><img class= 'stimulus' src='images/baseline/04117v.jpg'></img></p>","null","","1549489085210","","","","","","",""
"null","","html-keyboard-response","370","658720","0.0-8.0-0.0-2.3","02","<p><img class= 'stimulus' src='images/baseline/05203v.jpg'></img></p>","null","","1549489085311","","","","","","",""
"null","","html-keyboard-response","371","658820","0.0-8.0-0.0-3.3","02","<p><img class= 'stimulus' src='images/baseline/03098v.jpg'></img></p>","null","","1549489085412","","","","","","",""
"null","","html-keyboard-response","372","658920","0.0-8.0-0.0-4.3","02","<p><img class= 'stimulus' src='images/baseline/04201v.jpg'></img></p>","null","","1549489085511","4","","","","","",""
"null","","html-keyboard-response","373","659020","0.0-8.0-0.0-5.3","02","<p><img class= 'stimulus' src='images/baseline/Sailing 3.jpg'></img></p>","null","","1549489085611","","","","","","",""
"null","","html-keyboard-response","374","659120","0.0-8.0-0.0-6.3","02","<p><img class= 'stimulus' src='images/target/mexico_tower_latin_american.jpg'></img></p>","null","","1549489085710","6","","","","","",""
"null","","html-keyboard-response","375","659220","0.0-8.0-0.0-7.3","02","<p><img class= 'stimulus' src='images/baseline/architecture-1314416_1920.jpg'></img></p>","null","","1549489085811","","","","","","",""
"null","","html-keyboard-response","376","659320","0.0-8.0-0.0-8.3","02","<p><img class= 'stimulus' src='images/baseline/landscape12.jpg'></img></p>","null","","1549489085911","8","","","","","",""
"null","","html-keyboard-response","377","659420","0.0-8.0-0.0-9.3","02","<p><img class= 'stimulus' src='images/baseline/Freudenberg_sg_Switzerland.jpg'></img></p>","null","","1549489086010","","","","","","",""
"null","","html-keyboard-response","378","659520","0.0-8.0-0.0-10.3","02","<p><img class= 'stimulus' src='images/baseline/Sunset 5.jpg'></img></p>","null","","1549489086112","","","","","","",""
"null","","html-keyboard-response","379","659621","0.0-8.0-0.0-11.3","02","<p><img class= 'stimulus' src='images/baseline/04040v.jpg'></img></p>","null","","1549489086210","","","","","","",""
"null","","html-keyboard-response","380","659720","0.0-8.0-0.0-12.3","02","<p><img class= 'stimulus' src='images/baseline/house1.jpg'></img></p>","null","","1549489086311","12","","","","","",""
"null","","html-keyboard-response","381","659821","0.0-8.0-0.0-13.3","02","<p><img class= 'stimulus' src='images/baseline/05186v.jpg'></img></p>","null","","1549489086410","","","","","","",""
"null","","html-keyboard-response","382","659920","0.0-8.0-0.0-14.3","02","<p><img class= 'stimulus' src='images/baseline/trees 23.jpg'></img></p>","null","","1549489086510","14","","","","","",""
"null","","html-keyboard-response","383","660020","0.0-8.0-0.0-15.3","02","<p><img class= 'stimulus' src='images/baseline/pexels-photo-568236.jpeg'></img></p>","null","","1549489086611","","","","","","",""
"null","","html-keyboard-response","384","660120","0.0-8.0-0.0-16.3","02","<p><img class= 'stimulus' src='images/baseline/landscape40.jpg'></img></p>","null","","1549489086711","","","","","","",""
"null","","html-keyboard-response","385","660237","0.0-8.0-0.0-17.3","02","<p><img class= 'stimulus' src='images/baseline/Lake 9.jpg'></img></p>","null","","1549489086810","","","","","","",""
"1038.5000000024447","","html-button-response","386","662289","0.0-8.0-0.0-18.3","02","<div class = ""response_question"">WAS THE IMAGE ROTATED...</div>","","3","","","4","2","bas","right","test","true"
"1733.2999999999302","","html-button-response","387","664024","0.0-8.0-0.0-0.4","02","","","0","","","","","","","",""
"null","","html-keyboard-response","388","664103","0.0-8.0-0.0-1.4","02","<p><img class= 'stimulus' src='images/baseline/autumn-landscape-with-lake-fall-trees-mountains.jpg'></img></p>","null","","1549489090694","","","","","","",""
"null","","html-keyboard-response","389","664203","0.0-8.0-0.0-2.4","02","<p><img class= 'stimulus' src='images/baseline/road 1(1).jpg'></img></p>","null","","1549489090795","","","","","","",""
"null","","html-keyboard-response","390","664304","0.0-8.0-0.0-3.4","02","<p><img class= 'stimulus' src='images/baseline/hills 4.jpg'></img></p>","null","","1549489090894","","","","","","",""
"null","","html-keyboard-response","391","664404","0.0-8.0-0.0-4.4","02","<p><img class= 'stimulus' src='images/baseline/landscape39.jpg'></img></p>","null","","1549489090995","4","","","","","",""
"null","","html-keyboard-response","392","664504","0.0-8.0-0.0-5.4","02","<p><img class= 'stimulus' src='images/baseline/tennis-court-net-buried-in-snow.jpg'></img></p>","null","","1549489091094","","","","","","",""
"null","","html-keyboard-response","393","664604","0.0-8.0-0.0-6.4","02","<p><img class= 'stimulus' src='images/negative/Shark 4.jpg'></img></p>","null","","1549489091194","6","","","","","",""
"null","","html-keyboard-response","394","664703","0.0-8.0-0.0-7.4","02","<p><img class= 'stimulus' src='images/baseline/landscape1.jpg'></img></p>","null","","1549489091294","","","","","","",""
"null","","html-keyboard-response","395","664803","0.0-8.0-0.0-8.4","02","<p><img class= 'stimulus' src='images/target/Tree-Landscape-Winter-Nature-Winter-Trees-Snow-2117951.jpg'></img></p>","null","","1549489091396","8","","","","","",""
"null","","html-keyboard-response","396","664903","0.0-8.0-0.0-9.4","02","<p><img class= 'stimulus' src='images/baseline/05179v.jpg'></img></p>","null","","1549489091496","","","","","","",""
"null","","html-keyboard-response","397","665004","0.0-8.0-0.0-10.4","02","<p><img class= 'stimulus' src='images/baseline/05161v.jpg'></img></p>","null","","1549489091595","","","","","","",""
"null","","html-keyboard-response","398","665103","0.0-8.0-0.0-11.4","02","<p><img class= 'stimulus' src='images/baseline/05145v.jpg'></img></p>","null","","1549489091694","","","","","","",""
"null","","html-keyboard-response","399","665203","0.0-8.0-0.0-12.4","02","<p><img class= 'stimulus' src='images/baseline/05198v.jpg'></img></p>","null","","1549489091794","12","","","","","",""
"null","","html-keyboard-response","400","665303","0.0-8.0-0.0-13.4","02","<p><img class= 'stimulus' src='images/baseline/building16.jpg'></img></p>","null","","1549489091894","","","","","","",""
"null","","html-keyboard-response","401","665404","0.0-8.0-0.0-14.4","02","<p><img class= 'stimulus' src='images/baseline/farmhouse9.jpg'></img></p>","null","","1549489091994","14","","","","","",""
"null","","html-keyboard-response","402","665504","0.0-8.0-0.0-15.4","02","<p><img class= 'stimulus' src='images/baseline/landscape22.jpg'></img></p>","null","","1549489092095","","","","","","",""
"null","","html-keyboard-response","403","665603","0.0-8.0-0.0-16.4","02","<p><img class= 'stimulus' src='images/baseline/Beach 2.jpg'></img></p>","null","","1549489092194","","","","","","",""
"null","","html-keyboard-response","404","665719","0.0-8.0-0.0-17.4","02","<p><img class= 'stimulus' src='images/baseline/landscape29.jpg'></img></p>","null","","1549489092294","","","","","","",""
"2221.800000002957","","html-button-response","405","668944","0.0-8.0-0.0-18.4","02","<div class = ""response_question"">WAS THE IMAGE ROTATED...</div>","","2","","","6","2","neg","right","test","false"
"1950.8000000023749","","html-button-response","406","670897","0.0-8.0-0.0-0.5","02","","","0","","","","","","","",""
"null","","html-keyboard-response","407","670969","0.0-8.0-0.0-1.5","02","<p><img class= 'stimulus' src='images/baseline/04031v.jpg'></img></p>","null","","1549489097562","","","","","","",""
"null","","html-keyboard-response","408","671071","0.0-8.0-0.0-2.5","02","<p><img class= 'stimulus' src='images/baseline/landscape37.jpg'></img></p>","null","","1549489097662","","","","","","",""
"null","","html-keyboard-response","409","671170","0.0-8.0-0.0-3.5","02","<p><img class= 'stimulus' src='images/baseline/field 1.jpg'></img></p>","null","","1549489097761","","","","","","",""
"null","","html-keyboard-response","410","671270","0.0-8.0-0.0-4.5","02","<p><img class= 'stimulus' src='images/neutral/listening to music.jpg'></img></p>","null","","1549489097862","4","","","","","",""
"null","","html-keyboard-response","411","671370","0.0-8.0-0.0-5.5","02","<p><img class= 'stimulus' src='images/baseline/horse_statue.jpg'></img></p>","null","","1549489097961","","","","","","",""
"null","","html-keyboard-response","412","671470","0.0-8.0-0.0-6.5","02","<p><img class= 'stimulus' src='images/baseline/red-rocks-park.jpg'></img></p>","null","","1549489098060","6","","","","","",""
"null","","html-keyboard-response","413","671570","0.0-8.0-0.0-7.5","02","<p><img class= 'stimulus' src='images/baseline/field 2.jpg'></img></p>","null","","1549489098160","","","","","","",""
"null","","html-keyboard-response","414","671670","0.0-8.0-0.0-8.5","02","<p><img class= 'stimulus' src='images/baseline/landscape6.jpg'></img></p>","null","","1549489098260","8","","","","","",""
"null","","html-keyboard-response","415","671771","0.0-8.0-0.0-9.5","02","<p><img class= 'stimulus' src='images/baseline/04085v.jpg'></img></p>","null","","1549489098361","","","","","","",""
"null","","html-keyboard-response","416","671870","0.0-8.0-0.0-10.5","02","<p><img class= 'stimulus' src='images/baseline/04196v.jpg'></img></p>","null","","1549489098461","","","","","","",""
"null","","html-keyboard-response","417","671971","0.0-8.0-0.0-11.5","02","<p><img class= 'stimulus' src='images/baseline/house6.jpg'></img></p>","null","","1549489098562","","","","","","",""
"null","","html-keyboard-response","418","672070","0.0-8.0-0.0-12.5","02","<p><img class= 'stimulus' src='images/target/tree-197536_640.jpg'></img></p>","null","","1549489098661","12","","","","","",""
"null","","html-keyboard-response","419","672170","0.0-8.0-0.0-13.5","02","<p><img class= 'stimulus' src='images/baseline/Lake 3.jpg'></img></p>","null","","1549489098761","","","","","","",""
"null","","html-keyboard-response","420","672271","0.0-8.0-0.0-14.5","02","<p><img class= 'stimulus' src='images/baseline/farmhouse3.jpg'></img></p>","null","","1549489098861","14","","","","","",""
"null","","html-keyboard-response","421","672370","0.0-8.0-0.0-15.5","02","<p><img class= 'stimulus' src='images/baseline/snowy tree.jpg'></img></p>","null","","1549489098961","","","","","","",""
"null","","html-keyboard-response","422","672469","0.0-8.0-0.0-16.5","02","<p><img class= 'stimulus' src='images/baseline/valley 1.jpg'></img></p>","null","","1549489099061","","","","","","",""
"null","","html-keyboard-response","423","672587","0.0-8.0-0.0-17.5","02","<p><img class= 'stimulus' src='images/baseline/landscape38.jpg'></img></p>","null","","1549489099160","","","","","","",""
"538.300000000163","","html-button-response","424","674128","0.0-8.0-0.0-18.5","02","<div class = ""response_question"">WAS THE IMAGE ROTATED...</div>","","3","","","4","8","neu","right","test","true"
"2134.0000000018626","","html-button-response","425","676264","0.0-8.0-0.0-0.6","02","","","0","","","","","","","",""
"null","","html-keyboard-response","426","676354","0.0-8.0-0.0-1.6","02","<p><img class= 'stimulus' src='images/baseline/cranes 1.jpg'></img></p>","null","","1549489102944","","","","","","",""
"null","","html-keyboard-response","427","676453","0.0-8.0-0.0-2.6","02","<p><img class= 'stimulus' src='images/baseline/03063v.jpg'></img></p>","null","","1549489103045","","","","","","",""
"null","","html-keyboard-response","428","676554","0.0-8.0-0.0-3.6","02","<p><img class= 'stimulus' src='images/baseline/03056v.jpg'></img></p>","null","","1549489103144","","","","","","",""
"null","","html-keyboard-response","429","676654","0.0-8.0-0.0-4.6","02","<p><img class= 'stimulus' src='images/baseline/house3.jpg'></img></p>","null","","1549489103244","4","","","","","",""
"null","","html-keyboard-response","430","676754","0.0-8.0-0.0-5.6","02","<p><img class= 'stimulus' src='images/baseline/empire-state-building.jpg'></img></p>","null","","1549489103345","","","","","","",""
"null","","html-keyboard-response","431","676854","0.0-8.0-0.0-6.6","02","<p><img class= 'stimulus' src='images/baseline/kokkari-1523011968Xfr.jpg'></img></p>","null","","1549489103443","6","","","","","",""
"null","","html-keyboard-response","432","676953","0.0-8.0-0.0-7.6","02","<p><img class= 'stimulus' src='images/baseline/Niinsaare_jarv.jpg'></img></p>","null","","1549489103544","","","","","","",""
"null","","html-keyboard-response","433","677054","0.0-8.0-0.0-8.6","02","<p><img class= 'stimulus' src='images/baseline/05158v.jpg'></img></p>","null","","1549489103644","8","","","","","",""
"null","","html-keyboard-response","434","677154","0.0-8.0-0.0-9.6","02","<p><img class= 'stimulus' src='images/baseline/Lake 4.jpg'></img></p>","null","","1549489103743","","","","","","",""
"null","","html-keyboard-response","435","677253","0.0-8.0-0.0-10.6","02","<p><img class= 'stimulus' src='images/baseline/building2.jpg'></img></p>","null","","1549489103844","","","","","","",""
"null","","html-keyboard-response","436","677354","0.0-8.0-0.0-11.6","02","<p><img class= 'stimulus' src='images/baseline/cyrillic.jpg'></img></p>","null","","1549489103944","","","","","","",""
"null","","html-keyboard-response","437","677455","0.0-8.0-0.0-12.6","02","<p><img class= 'stimulus' src='images/baseline/Lake 16.jpg'></img></p>","null","","1549489104044","12","","","","","",""
"null","","html-keyboard-response","438","677554","0.0-8.0-0.0-13.6","02","<p><img class= 'stimulus' src='images/baseline/pexels-photo-750108.jpeg'></img></p>","null","","1549489104145","","","","","","",""
"null","","html-keyboard-response","439","677654","0.0-8.0-0.0-14.6","02","<p><img class= 'stimulus left-rotate' src='images/target/oak-456524_640.jpg'></img></p>","null","","1549489104244","14","","","","","",""
"null","","html-keyboard-response","440","677753","0.0-8.0-0.0-15.6","02","<p><img class= 'stimulus' src='images/baseline/Paysage_karabagh_02.jpg'></img></p>","null","","1549489104346","","","","","","",""
"null","","html-keyboard-response","441","677853","0.0-8.0-0.0-16.6","02","<p><img class= 'stimulus' src='images/baseline/landscape16.jpg'></img></p>","null","","1549489104445","","","","","","",""
"null","","html-keyboard-response","442","677971","0.0-8.0-0.0-17.6","02","<p><img class= 'stimulus' src='images/baseline/pexels-photo-1048039.jpeg'></img></p>","null","","1549489104544","","","","","","",""
"442.299999998766","","html-button-response","443","679416","0.0-8.0-0.0-18.6","02","<div class = ""response_question"">WAS THE IMAGE ROTATED...</div>","","0","","","6","8","bas","left","test","true"
"1397.8999999999069","","html-button-response","444","680816","0.0-8.0-0.0-0.7","02","","","0","","","","","","","",""
"null","","html-keyboard-response","445","680904","0.0-8.0-0.0-1.7","02","<p><img class= 'stimulus' src='images/baseline/02977v.jpg'></img></p>","null","","1549489107493","","","","","","",""
"null","","html-keyboard-response","446","681004","0.0-8.0-0.0-2.7","02","<p><img class= 'stimulus' src='images/baseline/03220v.jpg'></img></p>","null","","1549489107594","","","","","","",""
"null","","html-keyboard-response","447","681103","0.0-8.0-0.0-3.7","02","<p><img class= 'stimulus' src='images/baseline/geese-flying-over-lake-at-dusk.jpg'></img></p>","null","","1549489107694","","","","","","",""
"null","","html-keyboard-response","448","681204","0.0-8.0-0.0-4.7","02","<p><img class= 'stimulus' src='images/baseline/Path 1.jpg'></img></p>","null","","1549489107794","4","","","","","",""
"null","","html-keyboard-response","449","681304","0.0-8.0-0.0-5.7","02","<p><img class= 'stimulus' src='images/baseline/03217v.jpg'></img></p>","null","","1549489107894","","","","","","",""
"null","","html-keyboard-response","450","681404","0.0-8.0-0.0-6.7","02","<p><img class= 'stimulus' src='images/baseline/Lake 7.jpg'></img></p>","null","","1549489107994","6","","","","","",""
"null","","html-keyboard-response","451","681504","0.0-8.0-0.0-7.7","02","<p><img class= 'stimulus' src='images/baseline/03204v.jpg'></img></p>","null","","1549489108095","","","","","","",""
"null","","html-keyboard-response","452","681604","0.0-8.0-0.0-8.7","02","<p><img class= 'stimulus' src='images/target/specphotops-563427-unsplash.jpg'></img></p>","null","","1549489108195","8","","","","","",""
"null","","html-keyboard-response","453","681704","0.0-8.0-0.0-9.7","02","<p><img class= 'stimulus' src='images/baseline/05303v.jpg'></img></p>","null","","1549489108294","","","","","","",""
"null","","html-keyboard-response","454","681803","0.0-8.0-0.0-10.7","02","<p><img class= 'stimulus' src='images/baseline/Dock 1.jpg'></img></p>","null","","1549489108395","","","","","","",""
"null","","html-keyboard-response","455","681904","0.0-8.0-0.0-11.7","02","<p><img class= 'stimulus' src='images/baseline/farmhouse11.jpg'></img></p>","null","","1549489108493","","","","","","",""
"null","","html-keyboard-response","456","682004","0.0-8.0-0.0-12.7","02","<p><img class= 'stimulus' src='images/baseline/pexels-photo-210617.jpeg'></img></p>","null","","1549489108595","12","","","","","",""
"null","","html-keyboard-response","457","682104","0.0-8.0-0.0-13.7","02","<p><img class= 'stimulus' src='images/baseline/pexels-photo-351264.jpeg'></img></p>","null","","1549489108693","","","","","","",""
"null","","html-keyboard-response","458","682204","0.0-8.0-0.0-14.7","02","<p><img class= 'stimulus' src='images/baseline/landscape19.jpg'></img></p>","null","","1549489108794","14","","","","","",""
"null","","html-keyboard-response","459","682304","0.0-8.0-0.0-15.7","02","<p><img class= 'stimulus' src='images/baseline/pexels-photo-1054289.jpeg'></img></p>","null","","1549489108895","","","","","","",""
"null","","html-keyboard-response","460","682404","0.0-8.0-0.0-16.7","02","<p><img class= 'stimulus' src='images/baseline/05255v.jpg'></img></p>","null","","1549489108994","","","","","","",""
"null","","html-keyboard-response","461","682520","0.0-8.0-0.0-17.7","02","<p><img class= 'stimulus' src='images/baseline/red rocks from afar.jpg'></img></p>","null","","1549489109094","","","","","","",""
"739.7000000019325","","html-button-response","462","684264","0.0-8.0-0.0-18.7","02","<div class = ""response_question"">WAS THE IMAGE ROTATED...</div>","","3","","","6","2","bas","right","test","true"
"1238.1999999997206","","html-button-response","463","685505","0.0-8.0-0.0-0.8","02","","","0","","","","","","","",""
"null","","html-keyboard-response","464","685588","0.0-8.0-0.0-1.8","02","<p><img class= 'stimulus' src='images/baseline/05242v.jpg'></img></p>","null","","1549489112178","","","","","","",""
"null","","html-keyboard-response","465","685687","0.0-8.0-0.0-2.8","02","<p><img class= 'stimulus' src='images/baseline/04060v.jpg'></img></p>","null","","1549489112277","","","","","","",""
"null","","html-keyboard-response","466","685788","0.0-8.0-0.0-3.8","02","<p><img class= 'stimulus' src='images/baseline/pexels-photo-1837621.jpeg'></img></p>","null","","1549489112377","","","","","","",""
"null","","html-keyboard-response","467","685887","0.0-8.0-0.0-4.8","02","<p><img class= 'stimulus' src='images/baseline/Sidewalk 4.jpg'></img></p>","null","","1549489112477","4","","","","","",""
"null","","html-keyboard-response","468","685987","0.0-8.0-0.0-5.8","02","<p><img class= 'stimulus' src='images/baseline/grand-teton-mountains.jpg'></img></p>","null","","1549489112578","","","","","","",""
"null","","html-keyboard-response","469","686087","0.0-8.0-0.0-6.8","02","<p><img class= 'stimulus left-rotate' src='images/target/buildin2.png'></img></p>","null","","1549489112678","6","","","","","",""
"null","","html-keyboard-response","470","686187","0.0-8.0-0.0-7.8","02","<p><img class= 'stimulus' src='images/baseline/field 4.jpg'></img></p>","null","","1549489112779","","","","","","",""
"null","","html-keyboard-response","471","686288","0.0-8.0-0.0-8.8","02","<p><img class= 'stimulus' src='images/baseline/04014v.jpg'></img></p>","null","","1549489112877","8","","","","","",""
"null","","html-keyboard-response","472","686388","0.0-8.0-0.0-9.8","02","<p><img class= 'stimulus' src='images/baseline/Peyto_Lake-Banff_NP-Canada.jpg'></img></p>","null","","1549489112978","","","","","","",""
"null","","html-keyboard-response","473","686488","0.0-8.0-0.0-10.8","02","<p><img class= 'stimulus' src='images/baseline/pexels-photo-221125.jpeg'></img></p>","null","","1549489113077","","","","","","",""
"null","","html-keyboard-response","474","686589","0.0-8.0-0.0-11.8","02","<p><img class= 'stimulus' src='images/baseline/pexels-photo-59321.jpeg'></img></p>","null","","1549489113177","","","","","","",""
"null","","html-keyboard-response","475","686688","0.0-8.0-0.0-12.8","02","<p><img class= 'stimulus' src='images/baseline/02971v.jpg'></img></p>","null","","1549489113277","12","","","","","",""
"null","","html-keyboard-response","476","686787","0.0-8.0-0.0-13.8","02","<p><img class= 'stimulus' src='images/baseline/building8.jpg'></img></p>","null","","1549489113378","","","","","","",""
"null","","html-keyboard-response","477","686887","0.0-8.0-0.0-14.8","02","<p><img class= 'stimulus' src='images/baseline/landscape3.jpg'></img></p>","null","","1549489113477","14","","","","","",""
"null","","html-keyboard-response","478","686987","0.0-8.0-0.0-15.8","02","<p><img class= 'stimulus' src='images/baseline/Sunset 4.jpg'></img></p>","null","","1549489113578","","","","","","",""
"null","","html-keyboard-response","479","687087","0.0-8.0-0.0-16.8","02","<p><img class= 'stimulus' src='images/baseline/Lake 14.jpg'></img></p>","null","","1549489113677","","","","","","",""
"null","","html-keyboard-response","480","687204","0.0-8.0-0.0-17.8","02","<p><img class= 'stimulus' src='images/baseline/Sunset 6.jpg'></img></p>","null","","1549489113778","","","","","","",""
"577.8000000027241","","html-button-response","481","688785","0.0-8.0-0.0-18.8","02","<div class = ""response_question"">WAS THE IMAGE ROTATED...</div>","","0","","","4","2","bas","left","test","true"
"846.3000000009779","","html-button-response","482","689633","0.0-8.0-0.0-0.9","02","","","0","","","","","","","",""
"null","","html-keyboard-response","483","689721","0.0-8.0-0.0-1.9","02","<p><img class= 'stimulus' src='images/baseline/04130v.jpg'></img></p>","null","","1549489116311","","","","","","",""
"null","","html-keyboard-response","484","689821","0.0-8.0-0.0-2.9","02","<p><img class= 'stimulus' src='images/baseline/Kocherbaumwald-01.jpg'></img></p>","null","","1549489116411","","","","","","",""
"null","","html-keyboard-response","485","689921","0.0-8.0-0.0-3.9","02","<p><img class= 'stimulus' src='images/baseline/Skijump 1.jpg'></img></p>","null","","1549489116511","","","","","","",""
"null","","html-keyboard-response","486","690021","0.0-8.0-0.0-4.9","02","<p><img class= 'stimulus' src='images/negative/Fire 7.jpg'></img></p>","null","","1549489116611","4","","","","","",""
"null","","html-keyboard-response","487","690121","0.0-8.0-0.0-5.9","02","<p><img class= 'stimulus' src='images/baseline/99_-_Machu_Picchu_-_Juin_2009.edit3.jpg'></img></p>","null","","1549489116711","","","","","","",""
"null","","html-keyboard-response","488","690221","0.0-8.0-0.0-6.9","02","<p><img class= 'stimulus' src='images/target/cactus2.jpg'></img></p>","null","","1549489116812","6","","","","","",""
"null","","html-keyboard-response","489","690321","0.0-8.0-0.0-7.9","02","<p><img class= 'stimulus' src='images/baseline/03066v.jpg'></img></p>","null","","1549489116911","","","","","","",""
"null","","html-keyboard-response","490","690421","0.0-8.0-0.0-8.9","02","<p><img class= 'stimulus' src='images/baseline/pexels-photo-894312.jpeg'></img></p>","null","","1549489117011","8","","","","","",""
"null","","html-keyboard-response","491","690520","0.0-8.0-0.0-9.9","02","<p><img class= 'stimulus' src='images/baseline/Desert_View_Indian_Wells.jpg'></img></p>","null","","1549489117111","","","","","","",""
"null","","html-keyboard-response","492","690621","0.0-8.0-0.0-10.9","02","<p><img class= 'stimulus' src='images/baseline/valley 2.jpg'></img></p>","null","","1549489117211","","","","","","",""
"null","","html-keyboard-response","493","690720","0.0-8.0-0.0-11.9","02","<p><img class= 'stimulus' src='images/baseline/building9.jpg'></img></p>","null","","1549489117312","","","","","","",""
"null","","html-keyboard-response","494","690821","0.0-8.0-0.0-12.9","02","<p><img class= 'stimulus' src='images/baseline/church-silhouette-8712964986014Kb.jpg'></img></p>","null","","1549489117410","12","","","","","",""
"null","","html-keyboard-response","495","690922","0.0-8.0-0.0-13.9","02","<p><img class= 'stimulus' src='images/baseline/house11.jpg'></img></p>","null","","1549489117511","","","","","","",""
"null","","html-keyboard-response","496","691020","0.0-8.0-0.0-14.9","02","<p><img class= 'stimulus' src='images/baseline/05280v.jpg'></img></p>","null","","1549489117610","14","","","","","",""
"null","","html-keyboard-response","497","691121","0.0-8.0-0.0-15.9","02","<p><img class= 'stimulus' src='images/baseline/pexels-photo-1287089.jpeg'></img></p>","null","","1549489117711","","","","","","",""
"null","","html-keyboard-response","498","691220","0.0-8.0-0.0-16.9","02","<p><img class= 'stimulus' src='images/baseline/lake 1.jpg'></img></p>","null","","1549489117811","","","","","","",""
"null","","html-keyboard-response","499","691337","0.0-8.0-0.0-17.9","02","<p><img class= 'stimulus' src='images/baseline/Beach 3.jpg'></img></p>","null","","1549489117911","","","","","","",""
"646.3000000003958","","html-button-response","500","692993","0.0-8.0-0.0-18.9","02","<div class = ""response_question"">WAS THE IMAGE ROTATED...</div>","","3","","","4","2","neg","right","test","true"
"1310.300000000978","","html-button-response","501","694304","0.0-8.0-0.0-0.10","02","","","0","","","","","","","",""
"null","","html-keyboard-response","502","694388","0.0-8.0-0.0-1.10","02","<p><img class= 'stimulus' src='images/baseline/pexels-photo-541101.jpeg'></img></p>","null","","1549489120977","","","","","","",""
"null","","html-keyboard-response","503","694488","0.0-8.0-0.0-2.10","02","<p><img class= 'stimulus' src='images/baseline/lookout_tower.jpg'></img></p>","null","","1549489121078","","","","","","",""
"null","","html-keyboard-response","504","694587","0.0-8.0-0.0-3.10","02","<p><img class= 'stimulus' src='images/baseline/farmhouse7.jpg'></img></p>","null","","1549489121178","","","","","","",""
"null","","html-keyboard-response","505","694687","0.0-8.0-0.0-4.10","02","<p><img class= 'stimulus' src='images/baseline/Street 4.jpg'></img></p>","null","","1549489121278","4","","","","","",""
"null","","html-keyboard-response","506","694787","0.0-8.0-0.0-5.10","02","<p><img class= 'stimulus' src='images/baseline/Beach 8.jpg'></img></p>","null","","1549489121379","","","","","","",""
"null","","html-keyboard-response","507","694887","0.0-8.0-0.0-6.10","02","<p><img class= 'stimulus' src='images/baseline/02945v.jpg'></img></p>","null","","1549489121478","6","","","","","",""
"null","","html-keyboard-response","508","694988","0.0-8.0-0.0-7.10","02","<p><img class= 'stimulus' src='images/baseline/04229v.jpg'></img></p>","null","","1549489121577","","","","","","",""
"null","","html-keyboard-response","509","695087","0.0-8.0-0.0-8.10","02","<p><img class= 'stimulus left-rotate' src='images/target/chicago-673558_640.jpg'></img></p>","null","","1549489121677","8","","","","","",""
