"rt","responses","trial_type","trial_index","time_elapsed","internal_node_id","participant_id","stimulus","key_press","button_pressed","stim_onset","sequence_position","distractor_position","target_lag","distractor_type","target_orientation","phase","correct"
"3095.19999998156","{""Q0"":""40""}","survey-text","0","3101","0.0-0.0","40","","","","","","","","","","",""
"1618834.600000002","","html-keyboard-response","1","1621945","0.0-1.0","40","Welcome to the experiment.","67","","","","","","","","",""
"14806.700000015553","","html-button-response","2","1636758","0.0-2.0","40","<p>Several images will be presented sequentially.        Each image will only be on the screen for about 100 milliseconds.</p>        <p> One of the images may be rotated 90 degrees right or left.        Watch for this image and remember if it is rotated right or left.</p>               <p>Images of people and animals will appear, and sometimes they will be unpleasant.        These will never be the rotated target image.</p>","","0","","","","","","","",""
"2046.0999999777414","","html-button-response","3","1638800","0.0-3.0","40","<p><img class=""stimulus left-rotate"" src=""images/target/landscape3.jpg""></img></p><p>This is an example of an image rotated to the left.</p>","","0","","","","","","","",""
"3142.699999996694","","html-button-response","4","1641943","0.0-4.0","40","<p><img class=""stimulus"" src=""images/target/buildin.png""></img></p><p>This is an example of an image rotated to the right.</p>","","0","","","","","","","",""
"39471.3000000047","","html-button-response","5","1681415","0.0-5.0","40","<p>We will now begin a short practice session.</p>         <p>A + symbol will appear in the middle of the screen. Please fix your gaze on the center of the +, and then click the mouse button to begin the image sequence.</p>         <p>Please avoid blinking or eye movements while the images are on the screen.</p>        <p>The image sequence will start relatively slow. After a few sequences, it will speed up.</p>","","0","","","","","","","",""
"15814.59999998333","","html-button-response","6","1697232","0.0-6.0-0.0","40","","","0","","","","","","","",""
"null","","html-keyboard-response","7","1697417","0.0-6.0-1.0","40","<p><img class= 'stimulus' src='images/baseline/architecture-1314416_1920.jpg'></img></p>","null","","1551212639021","","","","","","",""
"null","","html-keyboard-response","8","1697616","0.0-6.0-2.0","40","<p><img class= 'stimulus' src='images/baseline/town-square-in-wroclaw-1539098440MZy.jpg'></img></p>","null","","1551212639221","","","","","","",""
"null","","html-keyboard-response","9","1697818","0.0-6.0-3.0","40","<p><img class= 'stimulus' src='images/baseline/Lake 7.jpg'></img></p>","null","","1551212639422","","","","","","",""
"null","","html-keyboard-response","10","1698016","0.0-6.0-4.0","40","<p><img class= 'stimulus' src='images/baseline/02982v.jpg'></img></p>","null","","1551212639622","4","","","","","",""
"null","","html-keyboard-response","11","1698218","0.0-6.0-5.0","40","<p><img class= 'stimulus' src='images/baseline/04062v.jpg'></img></p>","null","","1551212639821","","","","","","",""
"null","","html-keyboard-response","12","1698416","0.0-6.0-6.0","40","<p><img class= 'stimulus' src='images/baseline/house8.jpg'></img></p>","null","","1551212640023","6","","","","","",""
"null","","html-keyboard-response","13","1698623","0.0-6.0-7.0","40","<p><img class= 'stimulus' src='images/baseline/Beach 8.jpg'></img></p>","null","","1551212640223","","","","","","",""
"null","","html-keyboard-response","14","1698823","0.0-6.0-8.0","40","<p><img class= 'stimulus' src='images/target/buildin2.png'></img></p>","null","","1551212640427","8","","","","","",""
"null","","html-keyboard-response","15","1699022","0.0-6.0-9.0","40","<p><img class= 'stimulus' src='images/baseline/03098v.jpg'></img></p>","null","","1551212640628","","","","","","",""
"null","","html-keyboard-response","16","1699223","0.0-6.0-10.0","40","<p><img class= 'stimulus' src='images/baseline/Lake 3.jpg'></img></p>","null","","1551212640827","","","","","","",""
"null","","html-keyboard-response","17","1699423","0.0-6.0-11.0","40","<p><img class= 'stimulus' src='images/baseline/building2.jpg'></img></p>","null","","1551212641028","","","","","","",""
"null","","html-keyboard-response","18","1699622","0.0-6.0-12.0","40","<p><img class= 'stimulus' src='images/baseline/river 1.jpg'></img></p>","null","","1551212641228","12","","","","","",""
"null","","html-keyboard-response","19","1699823","0.0-6.0-13.0","40","<p><img class= 'stimulus' src='images/baseline/Skyscraper 1.jpg'></img></p>","null","","1551212641429","","","","","","",""
"null","","html-keyboard-response","20","1700023","0.0-6.0-14.0","40","<p><img class= 'stimulus' src='images/baseline/house2.jpg'></img></p>","null","","1551212641628","14","","","","","",""
"null","","html-keyboard-response","21","1700223","0.0-6.0-15.0","40","<p><img class= 'stimulus' src='images/baseline/landscape33.jpg'></img></p>","null","","1551212641828","","","","","","",""
"null","","html-keyboard-response","22","1700423","0.0-6.0-16.0","40","<p><img class= 'stimulus' src='images/baseline/03045v.jpg'></img></p>","null","","1551212642028","","","","","","",""
"null","","html-keyboard-response","23","1700639","0.0-6.0-17.0","40","<p><img class= 'stimulus' src='images/baseline/05161v.jpg'></img></p>","null","","1551212642228","","","","","","",""
"3099.7000000206754","","html-button-response","24","1704750","0.0-6.0-18.0","40","<div class = ""response_question"">WAS THE IMAGE ROTATED...</div>","","3","","","6","2","bas","right","practice","true"
"1837.599999998929","","html-button-response","25","1706591","0.0-6.0-0.1","40","","","0","","","","","","","",""
"null","","html-keyboard-response","26","1706772","0.0-6.0-1.1","40","<p><img class= 'stimulus' src='images/baseline/autumn-in-red-rocks-park.jpg'></img></p>","null","","1551212648377","","","","","","",""
"null","","html-keyboard-response","27","1706973","0.0-6.0-2.1","40","<p><img class= 'stimulus' src='images/baseline/Lake 14.jpg'></img></p>","null","","1551212648577","","","","","","",""
"null","","html-keyboard-response","28","1707173","0.0-6.0-3.1","40","<p><img class= 'stimulus' src='images/baseline/pexels-photo-1054289.jpeg'></img></p>","null","","1551212648776","","","","","","",""
"null","","html-keyboard-response","29","1707374","0.0-6.0-4.1","40","<p><img class= 'stimulus' src='images/baseline/Sunset 5.jpg'></img></p>","null","","1551212648977","4","","","","","",""
"null","","html-keyboard-response","30","1707574","0.0-6.0-5.1","40","<p><img class= 'stimulus' src='images/baseline/04098v.jpg'></img></p>","null","","1551212649177","","","","","","",""
"null","","html-keyboard-response","31","1707772","0.0-6.0-6.1","40","<p><img class= 'stimulus' src='images/baseline/pexels-photo-1048039.jpeg'></img></p>","null","","1551212649377","6","","","","","",""
"null","","html-keyboard-response","32","1707972","0.0-6.0-7.1","40","<p><img class= 'stimulus' src='images/baseline/landscape38.jpg'></img></p>","null","","1551212649578","","","","","","",""
"null","","html-keyboard-response","33","1708173","0.0-6.0-8.1","40","<p><img class= 'stimulus' src='images/baseline/05264v.jpg'></img></p>","null","","1551212649777","8","","","","","",""
"null","","html-keyboard-response","34","1708374","0.0-6.0-9.1","40","<p><img class= 'stimulus' src='images/baseline/pexels-photo-459203.jpeg'></img></p>","null","","1551212649976","","","","","","",""
"null","","html-keyboard-response","35","1708574","0.0-6.0-10.1","40","<p><img class= 'stimulus' src='images/baseline/landscape12.jpg'></img></p>","null","","1551212650177","","","","","","",""
"null","","html-keyboard-response","36","1708773","0.0-6.0-11.1","40","<p><img class= 'stimulus' src='images/baseline/Sailing 3.jpg'></img></p>","null","","1551212650377","","","","","","",""
"null","","html-keyboard-response","37","1708972","0.0-6.0-12.1","40","<p><img class= 'stimulus' src='images/baseline/04158v.jpg'></img></p>","null","","1551212650578","12","","","","","",""
"null","","html-keyboard-response","38","1709173","0.0-6.0-13.1","40","<p><img class= 'stimulus' src='images/baseline/house1.jpg'></img></p>","null","","1551212650778","","","","","","",""
"null","","html-keyboard-response","39","1709372","0.0-6.0-14.1","40","<p><img class= 'stimulus left-rotate' src='images/target/9525-a-lonely-single-tree-in-a-field-pv.jpg'></img></p>","null","","1551212650976","14","","","","","",""
"null","","html-keyboard-response","40","1709573","0.0-6.0-15.1","40","<p><img class= 'stimulus' src='images/baseline/03063v.jpg'></img></p>","null","","1551212651177","","","","","","",""
"null","","html-keyboard-response","41","1709773","0.0-6.0-16.1","40","<p><img class= 'stimulus' src='images/baseline/pexels-photo-808465.jpeg'></img></p>","null","","1551212651378","","","","","","",""
"null","","html-keyboard-response","42","1709989","0.0-6.0-17.1","40","<p><img class= 'stimulus' src='images/baseline/Street 5.jpg'></img></p>","null","","1551212651577","","","","","","",""
"1782.100000011269","","html-button-response","43","1712774","0.0-6.0-18.1","40","<div class = ""response_question"">WAS THE IMAGE ROTATED...</div>","","0","","","6","8","bas","left","practice","true"
"1230.5000000051223","","html-button-response","44","1714006","0.0-6.0-0.2","40","","","0","","","","","","","",""
"null","","html-keyboard-response","45","1714189","0.0-6.0-1.2","40","<p><img class= 'stimulus' src='images/baseline/hiking-trail.jpg'></img></p>","null","","1551212655795","","","","","","",""
"null","","html-keyboard-response","46","1714390","0.0-6.0-2.2","40","<p><img class= 'stimulus' src='images/baseline/Lake 15.jpg'></img></p>","null","","1551212655993","","","","","","",""
"null","","html-keyboard-response","47","1714590","0.0-6.0-3.2","40","<p><img class= 'stimulus' src='images/baseline/landscape34.jpg'></img></p>","null","","1551212656195","","","","","","",""
"null","","html-keyboard-response","48","1714790","0.0-6.0-4.2","40","<p><img class= 'stimulus' src='images/baseline/red rocks from afar.jpg'></img></p>","null","","1551212656394","4","","","","","",""
"null","","html-keyboard-response","49","1714990","0.0-6.0-5.2","40","<p><img class= 'stimulus' src='images/baseline/02977v.jpg'></img></p>","null","","1551212656594","","","","","","",""
"null","","html-keyboard-response","50","1715189","0.0-6.0-6.2","40","<p><img class= 'stimulus' src='images/target/oak-1913194_640.jpg'></img></p>","null","","1551212656796","6","","","","","",""
"null","","html-keyboard-response","51","1715390","0.0-6.0-7.2","40","<p><img class= 'stimulus' src='images/baseline/05292v.jpg'></img></p>","null","","1551212656995","","","","","","",""
"null","","html-keyboard-response","52","1715589","0.0-6.0-8.2","40","<p><img class= 'stimulus' src='images/baseline/Bridge 1.jpg'></img></p>","null","","1551212657194","8","","","","","",""
"null","","html-keyboard-response","53","1715790","0.0-6.0-9.2","40","<p><img class= 'stimulus' src='images/baseline/cranes 1.jpg'></img></p>","null","","1551212657395","","","","","","",""
"null","","html-keyboard-response","54","1715990","0.0-6.0-10.2","40","<p><img class= 'stimulus' src='images/baseline/05303v.jpg'></img></p>","null","","1551212657595","","","","","","",""
"null","","html-keyboard-response","55","1716190","0.0-6.0-11.2","40","<p><img class= 'stimulus' src='images/baseline/03056v.jpg'></img></p>","null","","1551212657796","","","","","","",""
"null","","html-keyboard-response","56","1716390","0.0-6.0-12.2","40","<p><img class= 'stimulus' src='images/baseline/building12.jpg'></img></p>","null","","1551212657995","12","","","","","",""
"null","","html-keyboard-response","57","1716589","0.0-6.0-13.2","40","<p><img class= 'stimulus' src='images/baseline/04222v.jpg'></img></p>","null","","1551212658195","","","","","","",""
"null","","html-keyboard-response","58","1716789","0.0-6.0-14.2","40","<p><img class= 'stimulus' src='images/baseline/lookout_tower.jpg'></img></p>","null","","1551212658393","14","","","","","",""
"null","","html-keyboard-response","59","1716990","0.0-6.0-15.2","40","<p><img class= 'stimulus' src='images/baseline/03220v.jpg'></img></p>","null","","1551212658594","","","","","","",""
"null","","html-keyboard-response","60","1717190","0.0-6.0-16.2","40","<p><img class= 'stimulus' src='images/baseline/house3.jpg'></img></p>","null","","1551212658795","","","","","","",""
"null","","html-keyboard-response","61","1717406","0.0-6.0-17.2","40","<p><img class= 'stimulus' src='images/baseline/02971v.jpg'></img></p>","null","","1551212658995","","","","","","",""
"1383.7999999814201","","html-button-response","62","1719798","0.0-6.0-18.2","40","<div class = ""response_question"">WAS THE IMAGE ROTATED...</div>","","3","","","4","2","bas","right","practice","true"
"1438.39999998454","","html-button-response","63","1721238","0.0-6.0-0.3","40","","","0","","","","","","","",""
"null","","html-keyboard-response","64","1721424","0.0-6.0-1.3","40","<p><img class= 'stimulus' src='images/baseline/landscape8.jpg'></img></p>","null","","1551212663027","","","","","","",""
"null","","html-keyboard-response","65","1721624","0.0-6.0-2.3","40","<p><img class= 'stimulus' src='images/baseline/04040v.jpg'></img></p>","null","","1551212663227","","","","","","",""
"null","","html-keyboard-response","66","1721823","0.0-6.0-3.3","40","<p><img class= 'stimulus' src='images/baseline/tennis-court-net-buried-in-snow.jpg'></img></p>","null","","1551212663429","","","","","","",""
"null","","html-keyboard-response","67","1722023","0.0-6.0-4.3","40","<p><img class= 'stimulus' src='images/baseline/road 1(1).jpg'></img></p>","null","","1551212663629","4","","","","","",""
"null","","html-keyboard-response","68","1722223","0.0-6.0-5.3","40","<p><img class= 'stimulus' src='images/baseline/Happy pose 3.jpg'></img></p>","null","","1551212663827","","","","","","",""
"null","","html-keyboard-response","69","1722423","0.0-6.0-6.3","40","<p><img class= 'stimulus' src='images/baseline/05279v.jpg'></img></p>","null","","1551212664027","6","","","","","",""
"null","","html-keyboard-response","70","1722623","0.0-6.0-7.3","40","<p><img class= 'stimulus' src='images/baseline/landscape4.jpg'></img></p>","null","","1551212664228","","","","","","",""
"null","","html-keyboard-response","71","1722823","0.0-6.0-8.3","40","<p><img class= 'stimulus' src='images/baseline/Dock 1.jpg'></img></p>","null","","1551212664428","8","","","","","",""
"null","","html-keyboard-response","72","1723023","0.0-6.0-9.3","40","<p><img class= 'stimulus' src='images/baseline/landscape15.jpg'></img></p>","null","","1551212664628","","","","","","",""
"null","","html-keyboard-response","73","1723223","0.0-6.0-10.3","40","<p><img class= 'stimulus' src='images/baseline/Bahia_Onelli_Parque_Nacional_Los_Glaciares_Patagonia_Argentina_Luca_Galuzzi_2005.jpg'></img></p>","null","","1551212664829","","","","","","",""
"null","","html-keyboard-response","74","1723423","0.0-6.0-11.3","40","<p><img class= 'stimulus' src='images/baseline/horse_statue.jpg'></img></p>","null","","1551212665028","","","","","","",""
"null","","html-keyboard-response","75","1723623","0.0-6.0-12.3","40","<p><img class= 'stimulus' src='images/baseline/flooded-bridge.jpg'></img></p>","null","","1551212665227","12","","","","","",""
"null","","html-keyboard-response","76","1723823","0.0-6.0-13.3","40","<p><img class= 'stimulus' src='images/baseline/Nature 2.jpg'></img></p>","null","","1551212665428","","","","","","",""
"null","","html-keyboard-response","77","1724023","0.0-6.0-14.3","40","<p><img class= 'stimulus' src='images/target/house-estate-1100x733.jpg'></img></p>","null","","1551212665628","14","","","","","",""
"null","","html-keyboard-response","78","1724223","0.0-6.0-15.3","40","<p><img class= 'stimulus' src='images/baseline/agriculture-cereal-clouds-175389.jpg'></img></p>","null","","1551212665829","","","","","","",""
"null","","html-keyboard-response","79","1724423","0.0-6.0-16.3","40","<p><img class= 'stimulus' src='images/baseline/Lake 5.jpg'></img></p>","null","","1551212666027","","","","","","",""
"null","","html-keyboard-response","80","1724640","0.0-6.0-17.3","40","<p><img class= 'stimulus' src='images/baseline/04031v.jpg'></img></p>","null","","1551212666227","","","","","","",""
"2113.7000000162516","","html-button-response","81","1727758","0.0-6.0-18.3","40","<div class = ""response_question"">WAS THE IMAGE ROTATED...</div>","","4","","","6","8","bas","right","practice","true"
"1406.4000000071246","","html-button-response","82","1729166","0.0-6.0-0.4","40","","","0","","","","","","","",""
"null","","html-keyboard-response","83","1729289","0.0-6.0-1.4","40","<p><img class= 'stimulus' src='images/baseline/pexels-photo-894312.jpeg'></img></p>","null","","1551212670944","","","","","","",""
"null","","html-keyboard-response","84","1729440","0.0-6.0-2.4","40","<p><img class= 'stimulus' src='images/baseline/field 1.jpg'></img></p>","null","","1551212671095","","","","","","",""
"null","","html-keyboard-response","85","1729589","0.0-6.0-3.4","40","<p><img class= 'stimulus' src='images/baseline/04117v.jpg'></img></p>","null","","1551212671245","","","","","","",""
"null","","html-keyboard-response","86","1729741","0.0-6.0-4.4","40","<p><img class= 'stimulus' src='images/baseline/cyrillic.jpg'></img></p>","null","","1551212671395","4","","","","","",""
"null","","html-keyboard-response","87","1729890","0.0-6.0-5.4","40","<p><img class= 'stimulus' src='images/baseline/pexels-photo-1261728.jpeg'></img></p>","null","","1551212671545","","","","","","",""
"null","","html-keyboard-response","88","1730040","0.0-6.0-6.4","40","<p><img class= 'stimulus' src='images/baseline/04010v.jpg'></img></p>","null","","1551212671695","6","","","","","",""
"null","","html-keyboard-response","89","1730190","0.0-6.0-7.4","40","<p><img class= 'stimulus' src='images/baseline/sunset-over-the-lake.jpg'></img></p>","null","","1551212671844","","","","","","",""
"null","","html-keyboard-response","90","1730340","0.0-6.0-8.4","40","<p><img class= 'stimulus' src='images/baseline/pexels-photo-541101.jpeg'></img></p>","null","","1551212671996","8","","","","","",""
"null","","html-keyboard-response","91","1730490","0.0-6.0-9.4","40","<p><img class= 'stimulus' src='images/baseline/red-rocks-park.jpg'></img></p>","null","","1551212672145","","","","","","",""
"null","","html-keyboard-response","92","1730639","0.0-6.0-10.4","40","<p><img class= 'stimulus' src='images/baseline/05240v.jpg'></img></p>","null","","1551212672296","","","","","","",""
"null","","html-keyboard-response","93","1730790","0.0-6.0-11.4","40","<p><img class= 'stimulus' src='images/baseline/05242v.jpg'></img></p>","null","","1551212672443","","","","","","",""
"null","","html-keyboard-response","94","1730940","0.0-6.0-12.4","40","<p><img class= 'stimulus' src='images/target/lone-tree-1934897_640.jpg'></img></p>","null","","1551212672594","12","","","","","",""
"null","","html-keyboard-response","95","1731090","0.0-6.0-13.4","40","<p><img class= 'stimulus' src='images/baseline/snowy tree.jpg'></img></p>","null","","1551212672743","","","","","","",""
"null","","html-keyboard-response","96","1731240","0.0-6.0-14.4","40","<p><img class= 'stimulus' src='images/baseline/Skijump 1.jpg'></img></p>","null","","1551212672895","14","","","","","",""
"null","","html-keyboard-response","97","1731389","0.0-6.0-15.4","40","<p><img class= 'stimulus' src='images/baseline/04179v.jpg'></img></p>","null","","1551212673045","","","","","","",""
"null","","html-keyboard-response","98","1731540","0.0-6.0-16.4","40","<p><img class= 'stimulus' src='images/baseline/pexels-photo-210617.jpeg'></img></p>","null","","1551212673195","","","","","","",""
"null","","html-keyboard-response","99","1731706","0.0-6.0-17.4","40","<p><img class= 'stimulus' src='images/baseline/Sunset 6.jpg'></img></p>","null","","1551212673346","","","","","","",""
"1134.699999995064","","html-button-response","100","1733847","0.0-6.0-18.4","40","<div class = ""response_question"">WAS THE IMAGE ROTATED...</div>","","3","","","4","8","bas","right","practice","true"
"1238.7000000162516","","html-button-response","101","1735086","0.0-6.0-0.5","40","","","0","","","","","","","",""
"null","","html-keyboard-response","102","1735224","0.0-6.0-1.5","40","<p><img class= 'stimulus' src='images/baseline/landscape37.jpg'></img></p>","null","","1551212676878","","","","","","",""
"null","","html-keyboard-response","103","1735374","0.0-6.0-2.5","40","<p><img class= 'stimulus' src='images/baseline/pexels-photo-1287089.jpeg'></img></p>","null","","1551212677028","","","","","","",""
"null","","html-keyboard-response","104","1735524","0.0-6.0-3.5","40","<p><img class= 'stimulus' src='images/baseline/pexels-photo-351264.jpeg'></img></p>","null","","1551212677177","","","","","","",""
"null","","html-keyboard-response","105","1735673","0.0-6.0-4.5","40","<p><img class= 'stimulus' src='images/baseline/03148v.jpg'></img></p>","null","","1551212677329","4","","","","","",""
"null","","html-keyboard-response","106","1735823","0.0-6.0-5.5","40","<p><img class= 'stimulus' src='images/baseline/pexels-photo-414491.jpeg'></img></p>","null","","1551212677477","","","","","","",""
"null","","html-keyboard-response","107","1735973","0.0-6.0-6.5","40","<p><img class= 'stimulus left-rotate' src='images/target/tree-197536_640.jpg'></img></p>","null","","1551212677627","6","","","","","",""
"null","","html-keyboard-response","108","1736123","0.0-6.0-7.5","40","<p><img class= 'stimulus' src='images/baseline/04193v.jpg'></img></p>","null","","1551212677777","","","","","","",""
"null","","html-keyboard-response","109","1736274","0.0-6.0-8.5","40","<p><img class= 'stimulus' src='images/baseline/lake 1.jpg'></img></p>","null","","1551212677929","8","","","","","",""
"null","","html-keyboard-response","110","1736423","0.0-6.0-9.5","40","<p><img class= 'stimulus' src='images/baseline/kokkari-1523011968Xfr.jpg'></img></p>","null","","1551212678078","","","","","","",""
"null","","html-keyboard-response","111","1736574","0.0-6.0-10.5","40","<p><img class= 'stimulus' src='images/baseline/landscape6.jpg'></img></p>","null","","1551212678228","","","","","","",""
"null","","html-keyboard-response","112","1736723","0.0-6.0-11.5","40","<p><img class= 'stimulus' src='images/baseline/Road 1.jpg'></img></p>","null","","1551212678379","","","","","","",""
"null","","html-keyboard-response","113","1736873","0.0-6.0-12.5","40","<p><img class= 'stimulus' src='images/baseline/sun-through-winter-tree-branches1.jpg'></img></p>","null","","1551212678528","12","","","","","",""
"null","","html-keyboard-response","114","1737023","0.0-6.0-13.5","40","<p><img class= 'stimulus' src='images/baseline/04064v.jpg'></img></p>","null","","1551212678678","","","","","","",""
"null","","html-keyboard-response","115","1737173","0.0-6.0-14.5","40","<p><img class= 'stimulus' src='images/baseline/farmhouse4.jpg'></img></p>","null","","1551212678827","14","","","","","",""
"null","","html-keyboard-response","116","1737324","0.0-6.0-15.5","40","<p><img class= 'stimulus' src='images/baseline/05186v.jpg'></img></p>","null","","1551212678978","","","","","","",""
"null","","html-keyboard-response","117","1737474","0.0-6.0-16.5","40","<p><img class= 'stimulus' src='images/baseline/building16.jpg'></img></p>","null","","1551212679128","","","","","","",""
"null","","html-keyboard-response","118","1737641","0.0-6.0-17.5","40","<p><img class= 'stimulus' src='images/baseline/Niinsaare_jarv.jpg'></img></p>","null","","1551212679278","","","","","","",""
"1001.9999999785796","","html-button-response","119","1739646","0.0-6.0-18.5","40","<div class = ""response_question"">WAS THE IMAGE ROTATED...</div>","","0","","","4","2","bas","left","practice","true"
"1110.499999980675","","html-button-response","120","1740758","0.0-6.0-0.6","40","","","0","","","","","","","",""
"null","","html-keyboard-response","121","1740890","0.0-6.0-1.6","40","<p><img class= 'stimulus' src='images/baseline/landscape11.jpg'></img></p>","null","","1551212682544","","","","","","",""
"null","","html-keyboard-response","122","1741040","0.0-6.0-2.6","40","<p><img class= 'stimulus' src='images/baseline/02960v.jpg'></img></p>","null","","1551212682694","","","","","","",""
"null","","html-keyboard-response","123","1741189","0.0-6.0-3.6","40","<p><img class= 'stimulus' src='images/baseline/04086v.jpg'></img></p>","null","","1551212682846","","","","","","",""
"null","","html-keyboard-response","124","1741340","0.0-6.0-4.6","40","<p><img class= 'stimulus' src='images/baseline/landscape7.jpg'></img></p>","null","","1551212682995","4","","","","","",""
"null","","html-keyboard-response","125","1741490","0.0-6.0-5.6","40","<p><img class= 'stimulus' src='images/baseline/lake 2.jpg'></img></p>","null","","1551212683144","","","","","","",""
"null","","html-keyboard-response","126","1741640","0.0-6.0-6.6","40","<p><img class= 'stimulus' src='images/baseline/03075v.jpg'></img></p>","null","","1551212683295","6","","","","","",""
"null","","html-keyboard-response","127","1741790","0.0-6.0-7.6","40","<p><img class= 'stimulus' src='images/baseline/Beach 2.jpg'></img></p>","null","","1551212683444","","","","","","",""
"null","","html-keyboard-response","128","1741940","0.0-6.0-8.6","40","<p><img class= 'stimulus' src='images/baseline/empire-state-building.jpg'></img></p>","null","","1551212683594","8","","","","","",""
"null","","html-keyboard-response","129","1742089","0.0-6.0-9.6","40","<p><img class= 'stimulus' src='images/baseline/landscape36.jpg'></img></p>","null","","1551212683744","","","","","","",""
"null","","html-keyboard-response","130","1742240","0.0-6.0-10.6","40","<p><img class= 'stimulus' src='images/baseline/04201v.jpg'></img></p>","null","","1551212683894","","","","","","",""
"null","","html-keyboard-response","131","1742389","0.0-6.0-11.6","40","<p><img class= 'stimulus' src='images/baseline/landscape31.jpg'></img></p>","null","","1551212684044","","","","","","",""
"null","","html-keyboard-response","132","1742539","0.0-6.0-12.6","40","<p><img class= 'stimulus left-rotate' src='images/target/dubai-1113262_640.jpg'></img></p>","null","","1551212684195","12","","","","","",""
"null","","html-keyboard-response","133","1742690","0.0-6.0-13.6","40","<p><img class= 'stimulus' src='images/baseline/city-silhouette-at-sunset-871291580819Esw.jpg'></img></p>","null","","1551212684344","","","","","","",""
"null","","html-keyboard-response","134","1742840","0.0-6.0-14.6","40","<p><img class= 'stimulus' src='images/baseline/03112v.jpg'></img></p>","null","","1551212684494","14","","","","","",""
"null","","html-keyboard-response","135","1742991","0.0-6.0-15.6","40","<p><img class= 'stimulus' src='images/baseline/building6.jpg'></img></p>","null","","1551212684645","","","","","","",""
"null","","html-keyboard-response","136","1743140","0.0-6.0-16.6","40","<p><img class= 'stimulus' src='images/baseline/pexels-photo-280222.jpeg'></img></p>","null","","1551212684795","","","","","","",""
"null","","html-keyboard-response","137","1743307","0.0-6.0-17.6","40","<p><img class= 'stimulus' src='images/baseline/4k-wallpaper-agriculture-clouds-842711.jpg'></img></p>","null","","1551212684944","","","","","","",""
"1712.9000000131782","","html-button-response","138","1746022","0.0-6.0-18.6","40","<div class = ""response_question"">WAS THE IMAGE ROTATED...</div>","","1","","","4","8","bas","left","practice","true"
"3534.299999999348","","html-button-response","139","1749558","0.0-6.0-0.7","40","","","0","","","","","","","",""
"null","","html-keyboard-response","140","1749690","0.0-6.0-1.7","40","<p><img class= 'stimulus' src='images/baseline/farmhouse8.jpg'></img></p>","null","","1551212691345","","","","","","",""
"null","","html-keyboard-response","141","1749840","0.0-6.0-2.7","40","<p><img class= 'stimulus' src='images/baseline/05158v.jpg'></img></p>","null","","1551212691494","","","","","","",""
"null","","html-keyboard-response","142","1749990","0.0-6.0-3.7","40","<p><img class= 'stimulus' src='images/baseline/04060v.jpg'></img></p>","null","","1551212691645","","","","","","",""
"null","","html-keyboard-response","143","1750141","0.0-6.0-4.7","40","<p><img class= 'stimulus' src='images/baseline/05167v.jpg'></img></p>","null","","1551212691796","4","","","","","",""
"null","","html-keyboard-response","144","1750290","0.0-6.0-5.7","40","<p><img class= 'stimulus' src='images/baseline/landscape40.jpg'></img></p>","null","","1551212691944","","","","","","",""
"null","","html-keyboard-response","145","1750440","0.0-6.0-6.7","40","<p><img class= 'stimulus' src='images/baseline/05203v.jpg'></img></p>","null","","1551212692094","6","","","","","",""
"null","","html-keyboard-response","146","1750590","0.0-6.0-7.7","40","<p><img class= 'stimulus' src='images/baseline/Paysage_enneige_02.jpg'></img></p>","null","","1551212692244","","","","","","",""
"null","","html-keyboard-response","147","1750740","0.0-6.0-8.7","40","<p><img class= 'stimulus left-rotate' src='images/target/pexels-photo-1123982.jpeg'></img></p>","null","","1551212692395","8","","","","","",""
"null","","html-keyboard-response","148","1750890","0.0-6.0-9.7","40","<p><img class= 'stimulus' src='images/baseline/04063v.jpg'></img></p>","null","","1551212692546","","","","","","",""
"null","","html-keyboard-response","149","1751040","0.0-6.0-10.7","40","<p><img class= 'stimulus' src='images/baseline/church-silhouette-8712964986014Kb.jpg'></img></p>","null","","1551212692695","","","","","","",""
"null","","html-keyboard-response","150","1751189","0.0-6.0-11.7","40","<p><img class= 'stimulus' src='images/baseline/hills 1.jpg'></img></p>","null","","1551212692844","","","","","","",""
"null","","html-keyboard-response","151","1751340","0.0-6.0-12.7","40","<p><img class= 'stimulus' src='images/baseline/05198v.jpg'></img></p>","null","","1551212692995","12","","","","","",""
"null","","html-keyboard-response","152","1751490","0.0-6.0-13.7","40","<p><img class= 'stimulus' src='images/baseline/field 2.jpg'></img></p>","null","","1551212693144","","","","","","",""
"null","","html-keyboard-response","153","1751640","0.0-6.0-14.7","40","<p><img class= 'stimulus' src='images/baseline/02945v.jpg'></img></p>","null","","1551212693295","14","","","","","",""
"null","","html-keyboard-response","154","1751790","0.0-6.0-15.7","40","<p><img class= 'stimulus' src='images/baseline/Cold 7.jpg'></img></p>","null","","1551212693444","","","","","","",""
"null","","html-keyboard-response","155","1751940","0.0-6.0-16.7","40","<p><img class= 'stimulus' src='images/baseline/lake3.jpg'></img></p>","null","","1551212693594","","","","","","",""
"null","","html-keyboard-response","156","1752107","0.0-6.0-17.7","40","<p><img class= 'stimulus' src='images/baseline/landscape23.jpg'></img></p>","null","","1551212693746","","","","","","",""
"2244.1000000108033","","html-button-response","157","1755367","0.0-6.0-18.7","40","<div class = ""response_question"">WAS THE IMAGE ROTATED...</div>","","1","","","6","2","bas","left","practice","true"
"1966.1999999952968","","html-button-response","158","1757334","0.0-6.0-0.8","40","","","0","","","","","","","",""
"null","","html-keyboard-response","159","1757407","0.0-6.0-1.8","40","<p><img class= 'stimulus' src='images/baseline/03204v.jpg'></img></p>","null","","1551212699111","","","","","","",""
"null","","html-keyboard-response","160","1757507","0.0-6.0-2.8","40","<p><img class= 'stimulus' src='images/baseline/autumn-landscape-with-lake-fall-trees-mountains.jpg'></img></p>","null","","1551212699212","","","","","","",""
"null","","html-keyboard-response","161","1757606","0.0-6.0-3.8","40","<p><img class= 'stimulus' src='images/baseline/landscape3.jpg'></img></p>","null","","1551212699313","","","","","","",""
"null","","html-keyboard-response","162","1757707","0.0-6.0-4.8","40","<p><img class= 'stimulus' src='images/baseline/pexels-photo-1840893.jpeg'></img></p>","null","","1551212699411","4","","","","","",""
"null","","html-keyboard-response","163","1757807","0.0-6.0-5.8","40","<p><img class= 'stimulus' src='images/baseline/farmhouse1.jpg'></img></p>","null","","1551212699510","","","","","","",""
"null","","html-keyboard-response","164","1757907","0.0-6.0-6.8","40","<p><img class= 'stimulus' src='images/baseline/05252v.jpg'></img></p>","null","","1551212699610","6","","","","","",""
"null","","html-keyboard-response","165","1758007","0.0-6.0-7.8","40","<p><img class= 'stimulus' src='images/baseline/05131v.jpg'></img></p>","null","","1551212699710","","","","","","",""
"null","","html-keyboard-response","166","1758108","0.0-6.0-8.8","40","<p><img class= 'stimulus left-rotate' src='images/target/shotstash_0036-1-1100x734.jpg'></img></p>","null","","1551212699810","8","","","","","",""
"null","","html-keyboard-response","167","1758208","0.0-6.0-9.8","40","<p><img class= 'stimulus' src='images/baseline/05145v.jpg'></img></p>","null","","1551212699911","","","","","","",""
"null","","html-keyboard-response","168","1758308","0.0-6.0-10.8","40","<p><img class= 'stimulus' src='images/baseline/sunny-landscape-with-dry-brush-and-mountain-background.jpg'></img></p>","null","","1551212700012","","","","","","",""
"null","","html-keyboard-response","169","1758406","0.0-6.0-11.8","40","<p><img class= 'stimulus' src='images/baseline/grand-teton-mountains.jpg'></img></p>","null","","1551212700112","","","","","","",""
"null","","html-keyboard-response","170","1758506","0.0-6.0-12.8","40","<p><img class= 'stimulus' src='images/baseline/Sunset 3.jpg'></img></p>","null","","1551212700213","12","","","","","",""
"null","","html-keyboard-response","171","1758607","0.0-6.0-13.8","40","<p><img class= 'stimulus' src='images/baseline/pexels-photo-568236.jpeg'></img></p>","null","","1551212700312","","","","","","",""
"null","","html-keyboard-response","172","1758707","0.0-6.0-14.8","40","<p><img class= 'stimulus' src='images/baseline/03217v.jpg'></img></p>","null","","1551212700412","14","","","","","",""
"null","","html-keyboard-response","173","1758806","0.0-6.0-15.8","40","<p><img class= 'stimulus' src='images/baseline/scenic-mountain-landscape.jpg'></img></p>","null","","1551212700513","","","","","","",""
"null","","html-keyboard-response","174","1758907","0.0-6.0-16.8","40","<p><img class= 'stimulus' src='images/baseline/landscape16.jpg'></img></p>","null","","1551212700610","","","","","","",""
"null","","html-keyboard-response","175","1759023","0.0-6.0-17.8","40","<p><img class= 'stimulus' src='images/baseline/road.jpg'></img></p>","null","","1551212700711","","","","","","",""
"1505.299999989802","","html-button-response","176","1761534","0.0-6.0-18.8","40","<div class = ""response_question"">WAS THE IMAGE ROTATED...</div>","","2","","","6","2","bas","left","practice","false"
"1774.4000000238884","","html-button-response","177","1763310","0.0-6.0-0.9","40","","","0","","","","","","","",""
"null","","html-keyboard-response","178","1763390","0.0-6.0-1.9","40","<p><img class= 'stimulus' src='images/baseline/pexels-photo-440731.jpeg'></img></p>","null","","1551212705095","","","","","","",""
"null","","html-keyboard-response","179","1763490","0.0-6.0-2.9","40","<p><img class= 'stimulus' src='images/baseline/Street 2.jpg'></img></p>","null","","1551212705195","","","","","","",""
"null","","html-keyboard-response","180","1763591","0.0-6.0-3.9","40","<p><img class= 'stimulus' src='images/baseline/house7.jpg'></img></p>","null","","1551212705294","","","","","","",""
"null","","html-keyboard-response","181","1763690","0.0-6.0-4.9","40","<p><img class= 'stimulus' src='images/baseline/landscape29.jpg'></img></p>","null","","1551212705395","4","","","","","",""
"null","","html-keyboard-response","182","1763790","0.0-6.0-5.9","40","<p><img class= 'stimulus' src='images/baseline/architecture-956332_1280.jpg'></img></p>","null","","1551212705495","","","","","","",""
"null","","html-keyboard-response","183","1763891","0.0-6.0-6.9","40","<p><img class= 'stimulus' src='images/target/Wild-West-South-West-Usa-Landscape-America-1663497.jpg'></img></p>","null","","1551212705596","6","","","","","",""
"null","","html-keyboard-response","184","1763990","0.0-6.0-7.9","40","<p><img class= 'stimulus' src='images/baseline/vintage-art-deco-storefront.jpg'></img></p>","null","","1551212705695","","","","","","",""
"null","","html-keyboard-response","185","1764090","0.0-6.0-8.9","40","<p><img class= 'stimulus' src='images/baseline/landscape14.jpg'></img></p>","null","","1551212705796","8","","","","","",""
"null","","html-keyboard-response","186","1764189","0.0-6.0-9.9","40","<p><img class= 'stimulus' src='images/baseline/pexels-photo-59321.jpeg'></img></p>","null","","1551212705894","","","","","","",""
"null","","html-keyboard-response","187","1764290","0.0-6.0-10.9","40","<p><img class= 'stimulus' src='images/baseline/hills 3.jpg'></img></p>","null","","1551212705994","","","","","","",""
"null","","html-keyboard-response","188","1764390","0.0-6.0-11.9","40","<p><img class= 'stimulus' src='images/baseline/05247v.jpg'></img></p>","null","","1551212706094","","","","","","",""
"null","","html-keyboard-response","189","1764490","0.0-6.0-12.9","40","<p><img class= 'stimulus' src='images/baseline/04014v.jpg'></img></p>","null","","1551212706195","12","","","","","",""
"null","","html-keyboard-response","190","1764590","0.0-6.0-13.9","40","<p><img class= 'stimulus' src='images/baseline/landscape17.jpg'></img></p>","null","","1551212706295","","","","","","",""
"null","","html-keyboard-response","191","1764690","0.0-6.0-14.9","40","<p><img class= 'stimulus' src='images/baseline/Nature 1.jpg'></img></p>","null","","1551212706395","14","","","","","",""
"null","","html-keyboard-response","192","1764791","0.0-6.0-15.9","40","<p><img class= 'stimulus' src='images/baseline/Camping 10.jpg'></img></p>","null","","1551212706495","","","","","","",""
"null","","html-keyboard-response","193","1764889","0.0-6.0-16.9","40","<p><img class= 'stimulus' src='images/baseline/Sunset 4.jpg'></img></p>","null","","1551212706594","","","","","","",""
"null","","html-keyboard-response","194","1765007","0.0-6.0-17.9","40","<p><img class= 'stimulus' src='images/baseline/pexels-photo-259280.jpeg'></img></p>","null","","1551212706696","","","","","","",""
"786.3000000070315","","html-button-response","195","1766798","0.0-6.0-18.9","40","<div class = ""response_question"">WAS THE IMAGE ROTATED...</div>","","5","","","4","2","bas","right","practice","false"
"2334.000000002561","","html-button-response","196","1769134","0.0-6.0-0.10","40","","","0","","","","","","","",""
"null","","html-keyboard-response","197","1769206","0.0-6.0-1.10","40","<p><img class= 'stimulus' src='images/baseline/04300v.jpg'></img></p>","null","","1551212710911","","","","","","",""
"null","","html-keyboard-response","198","1769308","0.0-6.0-2.10","40","<p><img class= 'stimulus' src='images/baseline/Street 3.jpg'></img></p>","null","","1551212711012","","","","","","",""
"null","","html-keyboard-response","199","1769408","0.0-6.0-3.10","40","<p><img class= 'stimulus' src='images/baseline/trees 23.jpg'></img></p>","null","","1551212711113","","","","","","",""
"null","","html-keyboard-response","200","1769507","0.0-6.0-4.10","40","<p><img class= 'stimulus' src='images/baseline/Kocherbaumwald-01.jpg'></img></p>","null","","1551212711213","4","","","","","",""
"null","","html-keyboard-response","201","1769606","0.0-6.0-5.10","40","<p><img class= 'stimulus' src='images/baseline/farmhouse7.jpg'></img></p>","null","","1551212711311","","","","","","",""
"null","","html-keyboard-response","202","1769707","0.0-6.0-6.10","40","<p><img class= 'stimulus' src='images/baseline/farmhouse3.jpg'></img></p>","null","","1551212711410","6","","","","","",""
"null","","html-keyboard-response","203","1769807","0.0-6.0-7.10","40","<p><img class= 'stimulus' src='images/baseline/Street 1.jpg'></img></p>","null","","1551212711511","","","","","","",""
"null","","html-keyboard-response","204","1769907","0.0-6.0-8.10","40","<p><img class= 'stimulus' src='images/baseline/seoul-410266_1920.jpg'></img></p>","null","","1551212711612","8","","","","","",""
"null","","html-keyboard-response","205","1770007","0.0-6.0-9.10","40","<p><img class= 'stimulus' src='images/baseline/Freudenberg_sg_Switzerland.jpg'></img></p>","null","","1551212711712","","","","","","",""
"null","","html-keyboard-response","206","1770108","0.0-6.0-10.10","40","<p><img class= 'stimulus' src='images/baseline/04229v.jpg'></img></p>","null","","1551212711811","","","","","","",""
"null","","html-keyboard-response","207","1770207","0.0-6.0-11.10","40","<p><img class= 'stimulus' src='images/baseline/04162v.jpg'></img></p>","null","","1551212711912","","","","","","",""
"null","","html-keyboard-response","208","1770306","0.0-6.0-12.10","40","<p><img class= 'stimulus left-rotate' src='images/target/cactus2.jpg'></img></p>","null","","1551212712012","12","","","","","",""
"null","","html-keyboard-response","209","1770408","0.0-6.0-13.10","40","<p><img class= 'stimulus' src='images/baseline/landscape19.jpg'></img></p>","null","","1551212712113","","","","","","",""
"null","","html-keyboard-response","210","1770507","0.0-6.0-14.10","40","<p><img class= 'stimulus' src='images/baseline/building9.jpg'></img></p>","null","","1551212712211","14","","","","","",""
"null","","html-keyboard-response","211","1770607","0.0-6.0-15.10","40","<p><img class= 'stimulus' src='images/baseline/pexels-photo-427676.jpeg'></img></p>","null","","1551212712313","","","","","","",""
"null","","html-keyboard-response","212","1770706","0.0-6.0-16.10","40","<p><img class= 'stimulus' src='images/baseline/Peyto_Lake-Banff_NP-Canada.jpg'></img></p>","null","","1551212712410","","","","","","",""
"null","","html-keyboard-response","213","1770824","0.0-6.0-17.10","40","<p><img class= 'stimulus' src='images/baseline/pexels-photo-750108.jpeg'></img></p>","null","","1551212712511","","","","","","",""
"618.9000000013039","","html-button-response","214","1772446","0.0-6.0-18.10","40","<div class = ""response_question"">WAS THE IMAGE ROTATED...</div>","","1","","","4","8","bas","left","practice","true"
"1214.2999999923632","","html-button-response","215","1773662","0.0-6.0-0.11","40","","","0","","","","","","","",""
"null","","html-keyboard-response","216","1773741","0.0-6.0-1.11","40","<p><img class= 'stimulus' src='images/baseline/04196v.jpg'></img></p>","null","","1551212715444","","","","","","",""
"null","","html-keyboard-response","217","1773840","0.0-6.0-2.11","40","<p><img class= 'stimulus' src='images/baseline/lone-old-cottonwood-tree.jpg'></img></p>","null","","1551212715545","","","","","","",""
"null","","html-keyboard-response","218","1773940","0.0-6.0-3.11","40","<p><img class= 'stimulus' src='images/baseline/__08_-_ITALY_-_Forli_under_snow_-_winter_landscape_of_city_(christmas).jpg'></img></p>","null","","1551212715644","","","","","","",""
"null","","html-keyboard-response","219","1774041","0.0-6.0-4.11","40","<p><img class= 'stimulus' src='images/baseline/building_at_national_conservation.jpg'></img></p>","null","","1551212715744","4","","","","","",""
"null","","html-keyboard-response","220","1774141","0.0-6.0-5.11","40","<p><img class= 'stimulus' src='images/baseline/05255v.jpg'></img></p>","null","","1551212715845","","","","","","",""
"null","","html-keyboard-response","221","1774239","0.0-6.0-6.11","40","<p><img class= 'stimulus' src='images/baseline/valley 2.jpg'></img></p>","null","","1551212715946","6","","","","","",""
"null","","html-keyboard-response","222","1774340","0.0-6.0-7.11","40","<p><img class= 'stimulus' src='images/baseline/building3.jpg'></img></p>","null","","1551212716045","","","","","","",""
"null","","html-keyboard-response","223","1774441","0.0-6.0-8.11","40","<p><img class= 'stimulus' src='images/baseline/foreclosed_home.jpg'></img></p>","null","","1551212716146","8","","","","","",""
"null","","html-keyboard-response","224","1774540","0.0-6.0-9.11","40","<p><img class= 'stimulus' src='images/baseline/02962v.jpg'></img></p>","null","","1551212716245","","","","","","",""
"null","","html-keyboard-response","225","1774640","0.0-6.0-10.11","40","<p><img class= 'stimulus' src='images/baseline/hills 4.jpg'></img></p>","null","","1551212716346","","","","","","",""
"null","","html-keyboard-response","226","1774740","0.0-6.0-11.11","40","<p><img class= 'stimulus' src='images/baseline/03180v.jpg'></img></p>","null","","1551212716444","","","","","","",""
"null","","html-keyboard-response","227","1774840","0.0-6.0-12.11","40","<p><img class= 'stimulus' src='images/baseline/field 4.jpg'></img></p>","null","","1551212716544","12","","","","","",""
"null","","html-keyboard-response","228","1774940","0.0-6.0-13.11","40","<p><img class= 'stimulus' src='images/baseline/05139v.jpg'></img></p>","null","","1551212716644","","","","","","",""
"null","","html-keyboard-response","229","1775040","0.0-6.0-14.11","40","<p><img class= 'stimulus' src='images/target/tree-740901_1280.jpg'></img></p>","null","","1551212716744","14","","","","","",""
"null","","html-keyboard-response","230","1775140","0.0-6.0-15.11","40","<p><img class= 'stimulus' src='images/baseline/building4.jpg'></img></p>","null","","1551212716845","","","","","","",""
"null","","html-keyboard-response","231","1775241","0.0-6.0-16.11","40","<p><img class= 'stimulus' src='images/baseline/landscape22.jpg'></img></p>","null","","1551212716946","","","","","","",""
"null","","html-keyboard-response","232","1775357","0.0-6.0-17.11","40","<p><img class= 'stimulus' src='images/baseline/Sidewalk 4.jpg'></img></p>","null","","1551212717045","","","","","","",""
"1084.2000000120606","","html-button-response","233","1777446","0.0-6.0-18.11","40","<div class = ""response_question"">WAS THE IMAGE ROTATED...</div>","","3","","","6","8","bas","right","practice","true"
"878.100000001723","","html-button-response","234","1778326","0.0-6.0-0.12","40","","","0","","","","","","","",""
"null","","html-keyboard-response","235","1778407","0.0-6.0-1.12","40","<p><img class= 'stimulus' src='images/baseline/Dirt 2.jpg'></img></p>","null","","1551212720111","","","","","","",""
"null","","html-keyboard-response","236","1778507","0.0-6.0-2.12","40","<p><img class= 'stimulus' src='images/baseline/house10.jpg'></img></p>","null","","1551212720212","","","","","","",""
"null","","html-keyboard-response","237","1778606","0.0-6.0-3.12","40","<p><img class= 'stimulus' src='images/baseline/bird-flying-at-sunset.jpg'></img></p>","null","","1551212720313","","","","","","",""
"null","","html-keyboard-response","238","1778707","0.0-6.0-4.12","40","<p><img class= 'stimulus' src='images/baseline/landscape39.jpg'></img></p>","null","","1551212720412","4","","","","","",""
"null","","html-keyboard-response","239","1778807","0.0-6.0-5.12","40","<p><img class= 'stimulus' src='images/baseline/Linden,_paysage.jpg'></img></p>","null","","1551212720513","","","","","","",""
"null","","html-keyboard-response","240","1778907","0.0-6.0-6.12","40","<p><img class= 'stimulus' src='images/baseline/03212v.jpg'></img></p>","null","","1551212720613","6","","","","","",""
"null","","html-keyboard-response","241","1779006","0.0-6.0-7.12","40","<p><img class= 'stimulus' src='images/baseline/04021v.jpg'></img></p>","null","","1551212720711","","","","","","",""
"null","","html-keyboard-response","242","1779107","0.0-6.0-8.12","40","<p><img class= 'stimulus' src='images/baseline/field 3.jpg'></img></p>","null","","1551212720811","8","","","","","",""
"null","","html-keyboard-response","243","1779206","0.0-6.0-9.12","40","<p><img class= 'stimulus' src='images/baseline/Lake 8.jpg'></img></p>","null","","1551212720912","","","","","","",""
"null","","html-keyboard-response","244","1779307","0.0-6.0-10.12","40","<p><img class= 'stimulus' src='images/baseline/Path 1.jpg'></img></p>","null","","1551212721011","","","","","","",""
"null","","html-keyboard-response","245","1779407","0.0-6.0-11.12","40","<p><img class= 'stimulus' src='images/baseline/04085v.jpg'></img></p>","null","","1551212721111","","","","","","",""
"null","","html-keyboard-response","246","1779507","0.0-6.0-12.12","40","<p><img class= 'stimulus' src='images/target/landscape20.jpg'></img></p>","null","","1551212721213","12","","","","","",""
"null","","html-keyboard-response","247","1779607","0.0-6.0-13.12","40","<p><img class= 'stimulus' src='images/baseline/Lake 16.jpg'></img></p>","null","","1551212721312","","","","","","",""
"null","","html-keyboard-response","248","1779706","0.0-6.0-14.12","40","<p><img class= 'stimulus' src='images/baseline/farmhouse2.jpg'></img></p>","null","","1551212721412","14","","","","","",""
"null","","html-keyboard-response","249","1779806","0.0-6.0-15.12","40","<p><img class= 'stimulus' src='images/baseline/pexels-photo-1837621.jpeg'></img></p>","null","","1551212721513","","","","","","",""
"null","","html-keyboard-response","250","1779908","0.0-6.0-16.12","40","<p><img class= 'stimulus' src='images/baseline/landscape1.jpg'></img></p>","null","","1551212721612","","","","","","",""
"null","","html-keyboard-response","251","1780024","0.0-6.0-17.12","40","<p><img class= 'stimulus' src='images/baseline/house6.jpg'></img></p>","null","","1551212721712","","","","","","",""
"836.9999999995343","","html-button-response","252","1781878","0.0-6.0-18.12","40","<div class = ""response_question"">WAS THE IMAGE ROTATED...</div>","","5","","","4","8","bas","right","practice","false"
"2318.3999999891967","","html-button-response","253","1784198","0.0-6.0-0.13","40","","","0","","","","","","","",""
"null","","html-keyboard-response","254","1784274","0.0-6.0-1.13","40","<p><img class= 'stimulus' src='images/baseline/05179v.jpg'></img></p>","null","","1551212725978","","","","","","",""
"null","","html-keyboard-response","255","1784374","0.0-6.0-2.13","40","<p><img class= 'stimulus' src='images/baseline/Lake 4.jpg'></img></p>","null","","1551212726079","","","","","","",""
"null","","html-keyboard-response","256","1784473","0.0-6.0-3.13","40","<p><img class= 'stimulus' src='images/baseline/agriculture-bright-clouds-440731.jpg'></img></p>","null","","1551212726179","","","","","","",""
"null","","html-keyboard-response","257","1784574","0.0-6.0-4.13","40","<p><img class= 'stimulus' src='images/baseline/Waterfall 1.jpg'></img></p>","null","","1551212726277","4","","","","","",""
"null","","html-keyboard-response","258","1784673","0.0-6.0-5.13","40","<p><img class= 'stimulus' src='images/baseline/02988v.jpg'></img></p>","null","","1551212726377","","","","","","",""
"null","","html-keyboard-response","259","1784774","0.0-6.0-6.13","40","<p><img class= 'stimulus' src='images/baseline/meadow-with-mountain-in-background.jpg'></img></p>","null","","1551212726477","6","","","","","",""
"null","","html-keyboard-response","260","1784874","0.0-6.0-7.13","40","<p><img class= 'stimulus' src='images/baseline/building5.jpg'></img></p>","null","","1551212726579","","","","","","",""
"null","","html-keyboard-response","261","1784974","0.0-6.0-8.13","40","<p><img class= 'stimulus' src='images/baseline/Skyscraper 2.jpg'></img></p>","null","","1551212726678","8","","","","","",""
"null","","html-keyboard-response","262","1785074","0.0-6.0-9.13","40","<p><img class= 'stimulus' src='images/baseline/Lake 13.jpg'></img></p>","null","","1551212726779","","","","","","",""
"null","","html-keyboard-response","263","1785174","0.0-6.0-10.13","40","<p><img class= 'stimulus' src='images/baseline/03114v.jpg'></img></p>","null","","1551212726879","","","","","","",""
"null","","html-keyboard-response","264","1785273","0.0-6.0-11.13","40","<p><img class= 'stimulus' src='images/baseline/agriculture-countryside-crop-259280.jpg'></img></p>","null","","1551212726979","","","","","","",""
"null","","html-keyboard-response","265","1785374","0.0-6.0-12.13","40","<p><img class= 'stimulus' src='images/baseline/pexels-photo-534164.jpeg'></img></p>","null","","1551212727080","12","","","","","",""
"null","","html-keyboard-response","266","1785474","0.0-6.0-13.13","40","<p><img class= 'stimulus' src='images/baseline/03201v.jpg'></img></p>","null","","1551212727178","","","","","","",""
"null","","html-keyboard-response","267","1785573","0.0-6.0-14.13","40","<p><img class= 'stimulus left-rotate' src='images/target/petronas-towers-433081_1920.jpg'></img></p>","null","","1551212727278","14","","","","","",""
"null","","html-keyboard-response","268","1785674","0.0-6.0-15.13","40","<p><img class= 'stimulus' src='images/baseline/farmhouse9.jpg'></img></p>","null","","1551212727379","","","","","","",""
"null","","html-keyboard-response","269","1785774","0.0-6.0-16.13","40","<p><img class= 'stimulus' src='images/baseline/house11.jpg'></img></p>","null","","1551212727477","","","","","","",""
"null","","html-keyboard-response","270","1785890","0.0-6.0-17.13","40","<p><img class= 'stimulus' src='images/baseline/02947v.jpg'></img></p>","null","","1551212727578","","","","","","",""
"1381.3999999838416","","html-button-response","271","1788278","0.0-6.0-18.13","40","<div class = ""response_question"">WAS THE IMAGE ROTATED...</div>","","2","","","6","8","bas","left","practice","false"
"1958.5000000079162","","html-button-response","272","1790238","0.0-6.0-0.14","40","","","0","","","","","","","",""
"null","","html-keyboard-response","273","1790323","0.0-6.0-1.14","40","<p><img class= 'stimulus' src='images/baseline/Desert_View_Indian_Wells.jpg'></img></p>","null","","1551212732028","","","","","","",""
"null","","html-keyboard-response","274","1790424","0.0-6.0-2.14","40","<p><img class= 'stimulus' src='images/baseline/04284v.jpg'></img></p>","null","","1551212732130","","","","","","",""
"null","","html-keyboard-response","275","1790523","0.0-6.0-3.14","40","<p><img class= 'stimulus' src='images/baseline/99_-_Machu_Picchu_-_Juin_2009.edit3.jpg'></img></p>","null","","1551212732229","","","","","","",""
"null","","html-keyboard-response","276","1790624","0.0-6.0-4.14","40","<p><img class= 'stimulus' src='images/baseline/dirt-road-or-trail-through-park.jpg'></img></p>","null","","1551212732330","4","","","","","",""
"null","","html-keyboard-response","277","1790724","0.0-6.0-5.14","40","<p><img class= 'stimulus' src='images/baseline/landscape13.jpg'></img></p>","null","","1551212732428","","","","","","",""
"null","","html-keyboard-response","278","1790824","0.0-6.0-6.14","40","<p><img class= 'stimulus' src='images/baseline/Lake 9.jpg'></img></p>","null","","1551212732528","6","","","","","",""
"null","","html-keyboard-response","279","1790924","0.0-6.0-7.14","40","<p><img class= 'stimulus' src='images/baseline/architecture_modern_architecture_852928.jpg'></img></p>","null","","1551212732628","","","","","","",""
"null","","html-keyboard-response","280","1791024","0.0-6.0-8.14","40","<p><img class= 'stimulus' src='images/target/skyscraper-3855012_640.jpg'></img></p>","null","","1551212732728","8","","","","","",""
"null","","html-keyboard-response","281","1791124","0.0-6.0-9.14","40","<p><img class= 'stimulus' src='images/baseline/Sky 1.jpg'></img></p>","null","","1551212732829","","","","","","",""
"null","","html-keyboard-response","282","1791224","0.0-6.0-10.14","40","<p><img class= 'stimulus' src='images/baseline/Street 4.jpg'></img></p>","null","","1551212732929","","","","","","",""
"null","","html-keyboard-response","283","1791325","0.0-6.0-11.14","40","<p><img class= 'stimulus' src='images/baseline/geese-flying-over-lake-at-dusk.jpg'></img></p>","null","","1551212733028","","","","","","",""
"null","","html-keyboard-response","284","1791424","0.0-6.0-12.14","40","<p><img class= 'stimulus' src='images/baseline/Grass 6.jpg'></img></p>","null","","1551212733130","12","","","","","",""
"null","","html-keyboard-response","285","1791524","0.0-6.0-13.14","40","<p><img class= 'stimulus' src='images/baseline/landscape35.jpg'></img></p>","null","","1551212733228","","","","","","",""
"null","","html-keyboard-response","286","1791624","0.0-6.0-14.14","40","<p><img class= 'stimulus' src='images/baseline/05189v.jpg'></img></p>","null","","1551212733329","14","","","","","",""
"null","","html-keyboard-response","287","1791724","0.0-6.0-15.14","40","<p><img class= 'stimulus' src='images/baseline/landscape2.jpg'></img></p>","null","","1551212733429","","","","","","",""
"null","","html-keyboard-response","288","1791824","0.0-6.0-16.14","40","<p><img class= 'stimulus' src='images/baseline/04130v.jpg'></img></p>","null","","1551212733527","","","","","","",""
"null","","html-keyboard-response","289","1791941","0.0-6.0-17.14","40","<p><img class= 'stimulus' src='images/baseline/farmhouse6.jpg'></img></p>","null","","1551212733628","","","","","","",""
"2275.099999998929","","html-button-response","290","1795222","0.0-6.0-18.14","40","<div class = ""response_question"">WAS THE IMAGE ROTATED...</div>","","5","","","6","2","bas","right","practice","false"
"1781.7000000213739","","html-button-response","291","1797006","0.0-6.0-0.15","40","","","0","","","","","","","",""
"null","","html-keyboard-response","292","1797091","0.0-6.0-1.15","40","<p><img class= 'stimulus' src='images/baseline/building8.jpg'></img></p>","null","","1551212738794","","","","","","",""
"null","","html-keyboard-response","293","1797191","0.0-6.0-2.15","40","<p><img class= 'stimulus' src='images/baseline/03162v.jpg'></img></p>","null","","1551212738895","","","","","","",""
"null","","html-keyboard-response","294","1797291","0.0-6.0-3.15","40","<p><img class= 'stimulus' src='images/baseline/valley 1.jpg'></img></p>","null","","1551212738994","","","","","","",""
"null","","html-keyboard-response","295","1797390","0.0-6.0-4.15","40","<p><img class= 'stimulus' src='images/baseline/05280v.jpg'></img></p>","null","","1551212739096","4","","","","","",""
"null","","html-keyboard-response","296","1797491","0.0-6.0-5.15","40","<p><img class= 'stimulus' src='images/baseline/pexels-photo-221125.jpeg'></img></p>","null","","1551212739196","","","","","","",""
"null","","html-keyboard-response","297","1797592","0.0-6.0-6.15","40","<p><img class= 'stimulus left-rotate' src='images/target/building15.jpg'></img></p>","null","","1551212739296","6","","","","","",""
"null","","html-keyboard-response","298","1797691","0.0-6.0-7.15","40","<p><img class= 'stimulus' src='images/baseline/farmhouse11.jpg'></img></p>","null","","1551212739396","","","","","","",""
"null","","html-keyboard-response","299","1797790","0.0-6.0-8.15","40","<p><img class= 'stimulus' src='images/baseline/Aletschgletscher-Eggishorn.jpg'></img></p>","null","","1551212739496","8","","","","","",""
"null","","html-keyboard-response","300","1797890","0.0-6.0-9.15","40","<p><img class= 'stimulus' src='images/baseline/Beach 3.jpg'></img></p>","null","","1551212739595","","","","","","",""
"null","","html-keyboard-response","301","1797991","0.0-6.0-10.15","40","<p><img class= 'stimulus' src='images/baseline/03066v.jpg'></img></p>","null","","1551212739696","","","","","","",""
"null","","html-keyboard-response","302","1798090","0.0-6.0-11.15","40","<p><img class= 'stimulus' src='images/baseline/chicago-skyline-at-night-1476869511p8U.jpg'></img></p>","null","","1551212739796","","","","","","",""
"null","","html-keyboard-response","303","1798190","0.0-6.0-12.15","40","<p><img class= 'stimulus' src='images/baseline/03041v.jpg'></img></p>","null","","1551212739896","12","","","","","",""
"null","","html-keyboard-response","304","1798291","0.0-6.0-13.15","40","<p><img class= 'stimulus' src='images/baseline/Paysage_karabagh_02.jpg'></img></p>","null","","1551212739994","","","","","","",""
"null","","html-keyboard-response","305","1798390","0.0-6.0-14.15","40","<p><img class= 'stimulus' src='images/baseline/05139v.jpg'></img></p>","null","","1551212740095","14","","","","","",""
"null","","html-keyboard-response","306","1798490","0.0-6.0-15.15","40","<p><img class= 'stimulus' src='images/baseline/Cold 7.jpg'></img></p>","null","","1551212740195","","","","","","",""
"null","","html-keyboard-response","307","1798591","0.0-6.0-16.15","40","<p><img class= 'stimulus' src='images/baseline/building6.jpg'></img></p>","null","","1551212740294","","","","","","",""
"null","","html-keyboard-response","308","1798707","0.0-6.0-17.15","40","<p><img class= 'stimulus' src='images/baseline/house7.jpg'></img></p>","null","","1551212740396","","","","","","",""
"3134.300000005169","","html-button-response","309","1802846","0.0-6.0-18.15","40","<div class = ""response_question"">WAS THE IMAGE ROTATED...</div>","","2","","","4","2","bas","left","practice","false"
"58238.6000000115","","html-button-response","310","1861086","0.0-7.0","40","<p>You have now completed the practice phase. We will now begin the real trials.         This is a reminder that you will be searching for a rotated image among the series of upright images.</p>         <p>Remember, please do not blink or move your eyes while the images are on the screen.</p>         <p>At the end of the experiment, the experimenter will be able to show you how accurate you were.</p>","","0","","","","","","","",""
"3382.6999999873806","","html-button-response","311","1864470","0.0-8.0-0.0-0.0","40","","","0","","","","","","","",""
"null","","html-keyboard-response","312","1864541","0.0-8.0-0.0-1.0","40","<p><img class= 'stimulus' src='images/baseline/05167v.jpg'></img></p>","null","","1551212806245","","","","","","",""
"null","","html-keyboard-response","313","1864641","0.0-8.0-0.0-2.0","40","<p><img class= 'stimulus' src='images/baseline/pexels-photo-1261728.jpeg'></img></p>","null","","1551212806346","","","","","","",""
"null","","html-keyboard-response","314","1864741","0.0-8.0-0.0-3.0","40","<p><img class= 'stimulus' src='images/baseline/Street 5.jpg'></img></p>","null","","1551212806445","","","","","","",""
"null","","html-keyboard-response","315","1864841","0.0-8.0-0.0-4.0","40","<p><img class= 'stimulus' src='images/negative/Injury 2.jpg'></img></p>","null","","1551212806546","4","","","","","",""
"null","","html-keyboard-response","316","1864941","0.0-8.0-0.0-5.0","40","<p><img class= 'stimulus' src='images/baseline/agriculture-bright-clouds-440731.jpg'></img></p>","null","","1551212806645","","","","","","",""
"null","","html-keyboard-response","317","1865040","0.0-8.0-0.0-6.0","40","<p><img class= 'stimulus' src='images/baseline/Desert_View_Indian_Wells.jpg'></img></p>","null","","1551212806745","6","","","","","",""
"null","","html-keyboard-response","318","1865141","0.0-8.0-0.0-7.0","40","<p><img class= 'stimulus' src='images/baseline/pexels-photo-351264.jpeg'></img></p>","null","","1551212806846","","","","","","",""
"null","","html-keyboard-response","319","1865240","0.0-8.0-0.0-8.0","40","<p><img class= 'stimulus' src='images/baseline/pexels-photo-1287089.jpeg'></img></p>","null","","1551212806946","8","","","","","",""
"null","","html-keyboard-response","320","1865341","0.0-8.0-0.0-9.0","40","<p><img class= 'stimulus' src='images/baseline/05279v.jpg'></img></p>","null","","1551212807047","","","","","","",""
"null","","html-keyboard-response","321","1865441","0.0-8.0-0.0-10.0","40","<p><img class= 'stimulus' src='images/baseline/Dock 1.jpg'></img></p>","null","","1551212807145","","","","","","",""
"null","","html-keyboard-response","322","1865541","0.0-8.0-0.0-11.0","40","<p><img class= 'stimulus' src='images/baseline/pexels-photo-534164.jpeg'></img></p>","null","","1551212807245","","","","","","",""
"null","","html-keyboard-response","323","1865641","0.0-8.0-0.0-12.0","40","<p><img class= 'stimulus' src='images/target/chicago-673558_640.jpg'></img></p>","null","","1551212807345","12","","","","","",""
"null","","html-keyboard-response","324","1865741","0.0-8.0-0.0-13.0","40","<p><img class= 'stimulus' src='images/baseline/Lake 7.jpg'></img></p>","null","","1551212807444","","","","","","",""
"null","","html-keyboard-response","325","1865841","0.0-8.0-0.0-14.0","40","<p><img class= 'stimulus' src='images/baseline/house11.jpg'></img></p>","null","","1551212807545","14","","","","","",""
"null","","html-keyboard-response","326","1865941","0.0-8.0-0.0-15.0","40","<p><img class= 'stimulus' src='images/baseline/Street 4.jpg'></img></p>","null","","1551212807646","","","","","","",""
"null","","html-keyboard-response","327","1866041","0.0-8.0-0.0-16.0","40","<p><img class= 'stimulus' src='images/baseline/pexels-photo-440731.jpeg'></img></p>","null","","1551212807746","","","","","","",""
"null","","html-keyboard-response","328","1866157","0.0-8.0-0.0-17.0","40","<p><img class= 'stimulus' src='images/baseline/landscape3.jpg'></img></p>","null","","1551212807847","","","","","","",""
"3195.1999999873806","","html-button-response","329","1870358","0.0-8.0-0.0-18.0","40","<div class = ""response_question"">WAS THE IMAGE ROTATED...</div>","","2","","","4","8","neg","right","test","false"
"3438.400000013644","","html-button-response","330","1873798","0.0-8.0-0.0-0.1","40","","","0","","","","","","","",""
"null","","html-keyboard-response","331","1873875","0.0-8.0-0.0-1.1","40","<p><img class= 'stimulus' src='images/baseline/autumn-landscape-with-lake-fall-trees-mountains.jpg'></img></p>","null","","1551212815578","","","","","","",""
"null","","html-keyboard-response","332","1873974","0.0-8.0-0.0-2.1","40","<p><img class= 'stimulus' src='images/baseline/Freudenberg_sg_Switzerland.jpg'></img></p>","null","","1551212815680","","","","","","",""
"null","","html-keyboard-response","333","1874074","0.0-8.0-0.0-3.1","40","<p><img class= 'stimulus' src='images/baseline/vintage-art-deco-storefront.jpg'></img></p>","null","","1551212815781","","","","","","",""
"null","","html-keyboard-response","334","1874174","0.0-8.0-0.0-4.1","40","<p><img class= 'stimulus' src='images/neutral/Pig 1.jpg'></img></p>","null","","1551212815878","4","","","","","",""
"null","","html-keyboard-response","335","1874274","0.0-8.0-0.0-5.1","40","<p><img class= 'stimulus' src='images/baseline/landscape17.jpg'></img></p>","null","","1551212815979","","","","","","",""
"null","","html-keyboard-response","336","1874375","0.0-8.0-0.0-6.1","40","<p><img class= 'stimulus' src='images/baseline/04063v.jpg'></img></p>","null","","1551212816080","6","","","","","",""
"null","","html-keyboard-response","337","1874476","0.0-8.0-0.0-7.1","40","<p><img class= 'stimulus' src='images/baseline/landscape4.jpg'></img></p>","null","","1551212816178","","","","","","",""
"null","","html-keyboard-response","338","1874576","0.0-8.0-0.0-8.1","40","<p><img class= 'stimulus' src='images/baseline/Lake 3.jpg'></img></p>","null","","1551212816279","8","","","","","",""
"null","","html-keyboard-response","339","1874675","0.0-8.0-0.0-9.1","40","<p><img class= 'stimulus' src='images/baseline/Lake 16.jpg'></img></p>","null","","1551212816379","","","","","","",""
"null","","html-keyboard-response","340","1874773","0.0-8.0-0.0-10.1","40","<p><img class= 'stimulus' src='images/baseline/Sunset 5.jpg'></img></p>","null","","1551212816480","","","","","","",""
"null","","html-keyboard-response","341","1874874","0.0-8.0-0.0-11.1","40","<p><img class= 'stimulus' src='images/baseline/landscape31.jpg'></img></p>","null","","1551212816580","","","","","","",""
"null","","html-keyboard-response","342","1874975","0.0-8.0-0.0-12.1","40","<p><img class= 'stimulus' src='images/target/palm-trees-1209125_640.jpg'></img></p>","null","","1551212816680","12","","","","","",""
"null","","html-keyboard-response","343","1875074","0.0-8.0-0.0-13.1","40","<p><img class= 'stimulus' src='images/baseline/4k-wallpaper-agriculture-clouds-842711.jpg'></img></p>","null","","1551212816780","","","","","","",""
"null","","html-keyboard-response","344","1875175","0.0-8.0-0.0-14.1","40","<p><img class= 'stimulus' src='images/baseline/03041v.jpg'></img></p>","null","","1551212816881","14","","","","","",""
"null","","html-keyboard-response","345","1875274","0.0-8.0-0.0-15.1","40","<p><img class= 'stimulus' src='images/baseline/02988v.jpg'></img></p>","null","","1551212816978","","","","","","",""
"null","","html-keyboard-response","346","1875375","0.0-8.0-0.0-16.1","40","<p><img class= 'stimulus' src='images/baseline/__08_-_ITALY_-_Forli_under_snow_-_winter_landscape_of_city_(christmas).jpg'></img></p>","null","","1551212817079","","","","","","",""
"null","","html-keyboard-response","347","1875493","0.0-8.0-0.0-17.1","40","<p><img class= 'stimulus' src='images/baseline/landscape8.jpg'></img></p>","null","","1551212817179","","","","","","",""
"4013.999999995576","","html-button-response","348","1880510","0.0-8.0-0.0-18.1","40","<div class = ""response_question"">WAS THE IMAGE ROTATED...</div>","","4","","","4","8","neu","right","test","true"
"2750.3000000142492","","html-button-response","349","1883262","0.0-8.0-0.0-0.2","40","","","0","","","","","","","",""
"null","","html-keyboard-response","350","1883340","0.0-8.0-0.0-1.2","40","<p><img class= 'stimulus' src='images/baseline/building12.jpg'></img></p>","null","","1551212825046","","","","","","",""
"null","","html-keyboard-response","351","1883441","0.0-8.0-0.0-2.2","40","<p><img class= 'stimulus' src='images/baseline/house8.jpg'></img></p>","null","","1551212825145","","","","","","",""
"null","","html-keyboard-response","352","1883541","0.0-8.0-0.0-3.2","40","<p><img class= 'stimulus' src='images/baseline/field 3.jpg'></img></p>","null","","1551212825245","","","","","","",""
"null","","html-keyboard-response","353","1883641","0.0-8.0-0.0-4.2","40","<p><img class= 'stimulus' src='images/neutral/Crow 1.jpg'></img></p>","null","","1551212825345","4","","","","","",""
"null","","html-keyboard-response","354","1883741","0.0-8.0-0.0-5.2","40","<p><img class= 'stimulus' src='images/baseline/hiking-trail.jpg'></img></p>","null","","1551212825445","","","","","","",""
"null","","html-keyboard-response","355","1883842","0.0-8.0-0.0-6.2","40","<p><img class= 'stimulus left-rotate' src='images/target/building4.jpg'></img></p>","null","","1551212825545","6","","","","","",""
"null","","html-keyboard-response","356","1883941","0.0-8.0-0.0-7.2","40","<p><img class= 'stimulus' src='images/baseline/03217v.jpg'></img></p>","null","","1551212825645","","","","","","",""
"null","","html-keyboard-response","357","1884041","0.0-8.0-0.0-8.2","40","<p><img class= 'stimulus' src='images/baseline/03180v.jpg'></img></p>","null","","1551212825747","8","","","","","",""
"null","","html-keyboard-response","358","1884140","0.0-8.0-0.0-9.2","40","<p><img class= 'stimulus' src='images/baseline/architecture-956332_1280.jpg'></img></p>","null","","1551212825847","","","","","","",""
"null","","html-keyboard-response","359","1884240","0.0-8.0-0.0-10.2","40","<p><img class= 'stimulus' src='images/baseline/Lake 15.jpg'></img></p>","null","","1551212825946","","","","","","",""
"null","","html-keyboard-response","360","1884340","0.0-8.0-0.0-11.2","40","<p><img class= 'stimulus' src='images/baseline/farmhouse6.jpg'></img></p>","null","","1551212826047","","","","","","",""
"null","","html-keyboard-response","361","1884441","0.0-8.0-0.0-12.2","40","<p><img class= 'stimulus' src='images/baseline/building4.jpg'></img></p>","null","","1551212826147","12","","","","","",""
"null","","html-keyboard-response","362","1884541","0.0-8.0-0.0-13.2","40","<p><img class= 'stimulus' src='images/baseline/landscape13.jpg'></img></p>","null","","1551212826245","","","","","","",""
"null","","html-keyboard-response","363","1884641","0.0-8.0-0.0-14.2","40","<p><img class= 'stimulus' src='images/baseline/autumn-in-red-rocks-park.jpg'></img></p>","null","","1551212826345","14","","","","","",""
"null","","html-keyboard-response","364","1884741","0.0-8.0-0.0-15.2","40","<p><img class= 'stimulus' src='images/baseline/sun-through-winter-tree-branches1.jpg'></img></p>","null","","1551212826446","","","","","","",""
"null","","html-keyboard-response","365","1884841","0.0-8.0-0.0-16.2","40","<p><img class= 'stimulus' src='images/baseline/landscape33.jpg'></img></p>","null","","1551212826545","","","","","","",""
"null","","html-keyboard-response","366","1884958","0.0-8.0-0.0-17.2","40","<p><img class= 'stimulus' src='images/baseline/05145v.jpg'></img></p>","null","","1551212826646","","","","","","",""
"1115.4000000096858","","html-button-response","367","1887078","0.0-8.0-0.0-18.2","40","<div class = ""response_question"">WAS THE IMAGE ROTATED...</div>","","2","","","4","2","neu","left","test","false"
"3382.1999999927357","","html-button-response","368","1890457","0.0-8.0-0.0-0.3","40","","","0","","","","","","","",""
"null","","html-keyboard-response","369","1890537","0.0-8.0-0.0-1.3","40","<p><img class= 'stimulus' src='images/baseline/house10.jpg'></img></p>","null","","1551212832241","","","","","","",""
"null","","html-keyboard-response","370","1890636","0.0-8.0-0.0-2.3","40","<p><img class= 'stimulus' src='images/baseline/Camping 10.jpg'></img></p>","null","","1551212832342","","","","","","",""
"null","","html-keyboard-response","371","1890737","0.0-8.0-0.0-3.3","40","<p><img class= 'stimulus' src='images/baseline/landscape12.jpg'></img></p>","null","","1551212832440","","","","","","",""
"null","","html-keyboard-response","372","1890837","0.0-8.0-0.0-4.3","40","<p><img class= 'stimulus' src='images/negative/Shark 11.jpg'></img></p>","null","","1551212832542","4","","","","","",""
"null","","html-keyboard-response","373","1890937","0.0-8.0-0.0-5.3","40","<p><img class= 'stimulus' src='images/baseline/house6.jpg'></img></p>","null","","1551212832642","","","","","","",""
"null","","html-keyboard-response","374","1891037","0.0-8.0-0.0-6.3","40","<p><img class= 'stimulus' src='images/baseline/hills 3.jpg'></img></p>","null","","1551212832742","6","","","","","",""
"null","","html-keyboard-response","375","1891137","0.0-8.0-0.0-7.3","40","<p><img class= 'stimulus' src='images/baseline/Paysage_enneige_02.jpg'></img></p>","null","","1551212832841","","","","","","",""
"null","","html-keyboard-response","376","1891238","0.0-8.0-0.0-8.3","40","<p><img class= 'stimulus' src='images/baseline/pexels-photo-427676.jpeg'></img></p>","null","","1551212832942","8","","","","","",""
"null","","html-keyboard-response","377","1891336","0.0-8.0-0.0-9.3","40","<p><img class= 'stimulus' src='images/baseline/pexels-photo-1837621.jpeg'></img></p>","null","","1551212833041","","","","","","",""
"null","","html-keyboard-response","378","1891438","0.0-8.0-0.0-10.3","40","<p><img class= 'stimulus' src='images/baseline/Peyto_Lake-Banff_NP-Canada.jpg'></img></p>","null","","1551212833143","","","","","","",""
"null","","html-keyboard-response","379","1891537","0.0-8.0-0.0-11.3","40","<p><img class= 'stimulus' src='images/baseline/snowy tree.jpg'></img></p>","null","","1551212833243","","","","","","",""
"null","","html-keyboard-response","380","1891637","0.0-8.0-0.0-12.3","40","<p><img class= 'stimulus left-rotate' src='images/target/beach1.jpeg'></img></p>","null","","1551212833343","12","","","","","",""
"null","","html-keyboard-response","381","1891737","0.0-8.0-0.0-13.3","40","<p><img class= 'stimulus' src='images/baseline/Lake 9.jpg'></img></p>","null","","1551212833442","","","","","","",""
"null","","html-keyboard-response","382","1891837","0.0-8.0-0.0-14.3","40","<p><img class= 'stimulus' src='images/baseline/building_at_national_conservation.jpg'></img></p>","null","","1551212833541","14","","","","","",""
"null","","html-keyboard-response","383","1891937","0.0-8.0-0.0-15.3","40","<p><img class= 'stimulus' src='images/baseline/pexels-photo-210617.jpeg'></img></p>","null","","1551212833642","","","","","","",""
"null","","html-keyboard-response","384","1892037","0.0-8.0-0.0-16.3","40","<p><img class= 'stimulus' src='images/baseline/town-square-in-wroclaw-1539098440MZy.jpg'></img></p>","null","","1551212833741","","","","","","",""
"null","","html-keyboard-response","385","1892153","0.0-8.0-0.0-17.3","40","<p><img class= 'stimulus' src='images/baseline/pexels-photo-1054289.jpeg'></img></p>","null","","1551212833842","","","","","","",""
"2315.199999982724","","html-button-response","386","1895474","0.0-8.0-0.0-18.3","40","<div class = ""response_question"">WAS THE IMAGE ROTATED...</div>","","1","","","4","8","neg","left","test","true"
"3350.399999995716","","html-button-response","387","1898825","0.0-8.0-0.0-0.4","40","","","0","","","","","","","",""
"null","","html-keyboard-response","388","1898903","0.0-8.0-0.0-1.4","40","<p><img class= 'stimulus' src='images/baseline/cranes 1.jpg'></img></p>","null","","1551212840607","","","","","","",""
"null","","html-keyboard-response","389","1899004","0.0-8.0-0.0-2.4","40","<p><img class= 'stimulus' src='images/baseline/Path 1.jpg'></img></p>","null","","1551212840708","","","","","","",""
"null","","html-keyboard-response","390","1899104","0.0-8.0-0.0-3.4","40","<p><img class= 'stimulus' src='images/baseline/Street 3.jpg'></img></p>","null","","1551212840809","","","","","","",""
"null","","html-keyboard-response","391","1899204","0.0-8.0-0.0-4.4","40","<p><img class= 'stimulus' src='images/baseline/field 4.jpg'></img></p>","null","","1551212840909","4","","","","","",""
"null","","html-keyboard-response","392","1899303","0.0-8.0-0.0-5.4","40","<p><img class= 'stimulus' src='images/baseline/valley 2.jpg'></img></p>","null","","1551212841008","","","","","","",""
"null","","html-keyboard-response","393","1899403","0.0-8.0-0.0-6.4","40","<p><img class= 'stimulus' src='images/negative/Shot 3.jpg'></img></p>","null","","1551212841109","6","","","","","",""
"null","","html-keyboard-response","394","1899504","0.0-8.0-0.0-7.4","40","<p><img class= 'stimulus' src='images/baseline/Bahia_Onelli_Parque_Nacional_Los_Glaciares_Patagonia_Argentina_Luca_Galuzzi_2005.jpg'></img></p>","null","","1551212841208","","","","","","",""
"null","","html-keyboard-response","395","1899603","0.0-8.0-0.0-8.4","40","<p><img class= 'stimulus left-rotate' src='images/target/mitre peak.jpg'></img></p>","null","","1551212841309","8","","","","","",""
"null","","html-keyboard-response","396","1899704","0.0-8.0-0.0-9.4","40","<p><img class= 'stimulus' src='images/baseline/05158v.jpg'></img></p>","null","","1551212841410","","","","","","",""
"null","","html-keyboard-response","397","1899803","0.0-8.0-0.0-10.4","40","<p><img class= 'stimulus' src='images/baseline/landscape34.jpg'></img></p>","null","","1551212841508","","","","","","",""
"null","","html-keyboard-response","398","1899904","0.0-8.0-0.0-11.4","40","<p><img class= 'stimulus' src='images/baseline/Road 1.jpg'></img></p>","null","","1551212841609","","","","","","",""
"null","","html-keyboard-response","399","1900004","0.0-8.0-0.0-12.4","40","<p><img class= 'stimulus' src='images/baseline/Nature 1.jpg'></img></p>","null","","1551212841708","12","","","","","",""
"null","","html-keyboard-response","400","1900104","0.0-8.0-0.0-13.4","40","<p><img class= 'stimulus' src='images/baseline/Sky 1.jpg'></img></p>","null","","1551212841808","","","","","","",""
"null","","html-keyboard-response","401","1900205","0.0-8.0-0.0-14.4","40","<p><img class= 'stimulus' src='images/baseline/05203v.jpg'></img></p>","null","","1551212841909","14","","","","","",""
"null","","html-keyboard-response","402","1900304","0.0-8.0-0.0-15.4","40","<p><img class= 'stimulus' src='images/baseline/foreclosed_home.jpg'></img></p>","null","","1551212842008","","","","","","",""
"null","","html-keyboard-response","403","1900404","0.0-8.0-0.0-16.4","40","<p><img class= 'stimulus' src='images/baseline/04300v.jpg'></img></p>","null","","1551212842109","","","","","","",""
"null","","html-keyboard-response","404","1900521","0.0-8.0-0.0-17.4","40","<p><img class= 'stimulus' src='images/baseline/04060v.jpg'></img></p>","null","","1551212842209","","","","","","",""
"2707.9000000085216","","html-button-response","405","1904234","0.0-8.0-0.0-18.4","40","<div class = ""response_question"">WAS THE IMAGE ROTATED...</div>","","1","","","6","2","neg","left","test","true"
"4302.800000004936","","html-button-response","406","1908537","0.0-8.0-0.0-0.5","40","","","0","","","","","","","",""
"null","","html-keyboard-response","407","1908620","0.0-8.0-0.0-1.5","40","<p><img class= 'stimulus' src='images/baseline/road 1(1).jpg'></img></p>","null","","1551212850325","","","","","","",""
"null","","html-keyboard-response","408","1908721","0.0-8.0-0.0-2.5","40","<p><img class= 'stimulus' src='images/baseline/pexels-photo-280222.jpeg'></img></p>","null","","1551212850425","","","","","","",""
"null","","html-keyboard-response","409","1908821","0.0-8.0-0.0-3.5","40","<p><img class= 'stimulus' src='images/baseline/03148v.jpg'></img></p>","null","","1551212850524","","","","","","",""
"null","","html-keyboard-response","410","1908921","0.0-8.0-0.0-4.5","40","<p><img class= 'stimulus' src='images/neutral/Camping 4.jpg'></img></p>","null","","1551212850625","4","","","","","",""
"null","","html-keyboard-response","411","1909020","0.0-8.0-0.0-5.5","40","<p><img class= 'stimulus' src='images/baseline/pexels-photo-1840893.jpeg'></img></p>","null","","1551212850725","","","","","","",""
"null","","html-keyboard-response","412","1909120","0.0-8.0-0.0-6.5","40","<p><img class= 'stimulus left-rotate' src='images/target/pexels-photo-1102846.jpeg'></img></p>","null","","1551212850824","6","","","","","",""
"null","","html-keyboard-response","413","1909221","0.0-8.0-0.0-7.5","40","<p><img class= 'stimulus' src='images/baseline/farmhouse3.jpg'></img></p>","null","","1551212850925","","","","","","",""
"null","","html-keyboard-response","414","1909321","0.0-8.0-0.0-8.5","40","<p><img class= 'stimulus' src='images/baseline/geese-flying-over-lake-at-dusk.jpg'></img></p>","null","","1551212851024","8","","","","","",""
"null","","html-keyboard-response","415","1909420","0.0-8.0-0.0-9.5","40","<p><img class= 'stimulus' src='images/baseline/landscape22.jpg'></img></p>","null","","1551212851126","","","","","","",""
"null","","html-keyboard-response","416","1909520","0.0-8.0-0.0-10.5","40","<p><img class= 'stimulus' src='images/baseline/lake 1.jpg'></img></p>","null","","1551212851225","","","","","","",""
"null","","html-keyboard-response","417","1909621","0.0-8.0-0.0-11.5","40","<p><img class= 'stimulus' src='images/baseline/landscape6.jpg'></img></p>","null","","1551212851326","","","","","","",""
"null","","html-keyboard-response","418","1909720","0.0-8.0-0.0-12.5","40","<p><img class= 'stimulus' src='images/baseline/03114v.jpg'></img></p>","null","","1551212851427","12","","","","","",""
"null","","html-keyboard-response","419","1909820","0.0-8.0-0.0-13.5","40","<p><img class= 'stimulus' src='images/baseline/Waterfall 1.jpg'></img></p>","null","","1551212851526","","","","","","",""
"null","","html-keyboard-response","420","1909920","0.0-8.0-0.0-14.5","40","<p><img class= 'stimulus' src='images/baseline/Lake 14.jpg'></img></p>","null","","1551212851624","14","","","","","",""
"null","","html-keyboard-response","421","1910021","0.0-8.0-0.0-15.5","40","<p><img class= 'stimulus' src='images/baseline/farmhouse9.jpg'></img></p>","null","","1551212851724","","","","","","",""
"null","","html-keyboard-response","422","1910121","0.0-8.0-0.0-16.5","40","<p><img class= 'stimulus' src='images/baseline/05247v.jpg'></img></p>","null","","1551212851825","","","","","","",""
"null","","html-keyboard-response","423","1910237","0.0-8.0-0.0-17.5","40","<p><img class= 'stimulus' src='images/baseline/04130v.jpg'></img></p>","null","","1551212851925","","","","","","",""
"846.7999999993481","","html-button-response","424","1912090","0.0-8.0-0.0-18.5","40","<div class = ""response_question"">WAS THE IMAGE ROTATED...</div>","","5","","","4","2","neu","left","test","false"
"3350.1999999862164","","html-button-response","425","1915442","0.0-8.0-0.0-0.6","40","","","0","","","","","","","",""
"null","","html-keyboard-response","426","1915521","0.0-8.0-0.0-1.6","40","<p><img class= 'stimulus' src='images/baseline/building16.jpg'></img></p>","null","","1551212857225","","","","","","",""
"null","","html-keyboard-response","427","1915621","0.0-8.0-0.0-2.6","40","<p><img class= 'stimulus' src='images/baseline/seoul-410266_1920.jpg'></img></p>","null","","1551212857326","","","","","","",""
"null","","html-keyboard-response","428","1915721","0.0-8.0-0.0-3.6","40","<p><img class= 'stimulus' src='images/baseline/Lake 5.jpg'></img></p>","null","","1551212857426","","","","","","",""
"null","","html-keyboard-response","429","1915820","0.0-8.0-0.0-4.6","40","<p><img class= 'stimulus' src='images/baseline/04201v.jpg'></img></p>","null","","1551212857526","4","","","","","",""
"null","","html-keyboard-response","430","1915921","0.0-8.0-0.0-5.6","40","<p><img class= 'stimulus' src='images/baseline/red rocks from afar.jpg'></img></p>","null","","1551212857626","","","","","","",""
"null","","html-keyboard-response","431","1916020","0.0-8.0-0.0-6.6","40","<p><img class= 'stimulus' src='images/target/building17.jpg'></img></p>","null","","1551212857727","6","","","","","",""
"null","","html-keyboard-response","432","1916121","0.0-8.0-0.0-7.6","40","<p><img class= 'stimulus' src='images/baseline/Aletschgletscher-Eggishorn.jpg'></img></p>","null","","1551212857826","","","","","","",""
"null","","html-keyboard-response","433","1916220","0.0-8.0-0.0-8.6","40","<p><img class= 'stimulus' src='images/baseline/Bridge 1.jpg'></img></p>","null","","1551212857924","8","","","","","",""
"null","","html-keyboard-response","434","1916321","0.0-8.0-0.0-9.6","40","<p><img class= 'stimulus' src='images/baseline/landscape40.jpg'></img></p>","null","","1551212858025","","","","","","",""
"null","","html-keyboard-response","435","1916420","0.0-8.0-0.0-10.6","40","<p><img class= 'stimulus' src='images/baseline/landscape35.jpg'></img></p>","null","","1551212858126","","","","","","",""
"null","","html-keyboard-response","436","1916521","0.0-8.0-0.0-11.6","40","<p><img class= 'stimulus' src='images/baseline/landscape14.jpg'></img></p>","null","","1551212858225","","","","","","",""
"null","","html-keyboard-response","437","1916620","0.0-8.0-0.0-12.6","40","<p><img class= 'stimulus' src='images/baseline/Skyscraper 2.jpg'></img></p>","null","","1551212858325","12","","","","","",""
"null","","html-keyboard-response","438","1916721","0.0-8.0-0.0-13.6","40","<p><img class= 'stimulus' src='images/baseline/lone-old-cottonwood-tree.jpg'></img></p>","null","","1551212858426","","","","","","",""
"null","","html-keyboard-response","439","1916821","0.0-8.0-0.0-14.6","40","<p><img class= 'stimulus' src='images/baseline/04179v.jpg'></img></p>","null","","1551212858526","14","","","","","",""
"null","","html-keyboard-response","440","1916920","0.0-8.0-0.0-15.6","40","<p><img class= 'stimulus' src='images/baseline/02947v.jpg'></img></p>","null","","1551212858626","","","","","","",""
"null","","html-keyboard-response","441","1917021","0.0-8.0-0.0-16.6","40","<p><img class= 'stimulus' src='images/baseline/03075v.jpg'></img></p>","null","","1551212858726","","","","","","",""
"null","","html-keyboard-response","442","1917137","0.0-8.0-0.0-17.6","40","<p><img class= 'stimulus' src='images/baseline/lake3.jpg'></img></p>","null","","1551212858826","","","","","","",""
"4682.199999981094","","html-button-response","443","1922826","0.0-8.0-0.0-18.6","40","<div class = ""response_question"">WAS THE IMAGE ROTATED...</div>","","4","","","4","2","bas","right","test","true"
"6814.299999998184","","html-button-response","444","1929642","0.0-8.0-0.0-0.7","40","","","0","","","","","","","",""
"null","","html-keyboard-response","445","1929720","0.0-8.0-0.0-1.7","40","<p><img class= 'stimulus' src='images/baseline/bird-flying-at-sunset.jpg'></img></p>","null","","1551212871426","","","","","","",""
"null","","html-keyboard-response","446","1929821","0.0-8.0-0.0-2.7","40","<p><img class= 'stimulus' src='images/baseline/building9.jpg'></img></p>","null","","1551212871525","","","","","","",""
"null","","html-keyboard-response","447","1929921","0.0-8.0-0.0-3.7","40","<p><img class= 'stimulus' src='images/baseline/04086v.jpg'></img></p>","null","","1551212871626","","","","","","",""
"null","","html-keyboard-response","448","1930020","0.0-8.0-0.0-4.7","40","<p><img class= 'stimulus' src='images/baseline/landscape37.jpg'></img></p>","null","","1551212871726","4","","","","","",""
"null","","html-keyboard-response","449","1930121","0.0-8.0-0.0-5.7","40","<p><img class= 'stimulus' src='images/baseline/farmhouse7.jpg'></img></p>","null","","1551212871827","","","","","","",""
"null","","html-keyboard-response","450","1930221","0.0-8.0-0.0-6.7","40","<p><img class= 'stimulus' src='images/baseline/Paysage_karabagh_02.jpg'></img></p>","null","","1551212871926","6","","","","","",""
"null","","html-keyboard-response","451","1930321","0.0-8.0-0.0-7.7","40","<p><img class= 'stimulus' src='images/baseline/landscape15.jpg'></img></p>","null","","1551212872026","","","","","","",""
"null","","html-keyboard-response","452","1930421","0.0-8.0-0.0-8.7","40","<p><img class= 'stimulus' src='images/baseline/Lake 4.jpg'></img></p>","null","","1551212872127","8","","","","","",""
"null","","html-keyboard-response","453","1930521","0.0-8.0-0.0-9.7","40","<p><img class= 'stimulus' src='images/baseline/landscape36.jpg'></img></p>","null","","1551212872224","","","","","","",""
"null","","html-keyboard-response","454","1930620","0.0-8.0-0.0-10.7","40","<p><img class= 'stimulus' src='images/baseline/04010v.jpg'></img></p>","null","","1551212872326","","","","","","",""
"null","","html-keyboard-response","455","1930721","0.0-8.0-0.0-11.7","40","<p><img class= 'stimulus' src='images/baseline/tennis-court-net-buried-in-snow.jpg'></img></p>","null","","1551212872425","","","","","","",""
"null","","html-keyboard-response","456","1930821","0.0-8.0-0.0-12.7","40","<p><img class= 'stimulus' src='images/target/building3.jpg'></img></p>","null","","1551212872525","12","","","","","",""
"null","","html-keyboard-response","457","1930921","0.0-8.0-0.0-13.7","40","<p><img class= 'stimulus' src='images/baseline/02962v.jpg'></img></p>","null","","1551212872625","","","","","","",""
"null","","html-keyboard-response","458","1931021","0.0-8.0-0.0-14.7","40","<p><img class= 'stimulus' src='images/baseline/05252v.jpg'></img></p>","null","","1551212872726","14","","","","","",""
"null","","html-keyboard-response","459","1931121","0.0-8.0-0.0-15.7","40","<p><img class= 'stimulus' src='images/baseline/Grass 6.jpg'></img></p>","null","","1551212872826","","","","","","",""
"null","","html-keyboard-response","460","1931220","0.0-8.0-0.0-16.7","40","<p><img class= 'stimulus' src='images/baseline/02945v.jpg'></img></p>","null","","1551212872927","","","","","","",""
"null","","html-keyboard-response","461","1931337","0.0-8.0-0.0-17.7","40","<p><img class= 'stimulus' src='images/baseline/03045v.jpg'></img></p>","null","","1551212873026","","","","","","",""
"5475.199999986216","","html-button-response","462","1937818","0.0-8.0-0.0-18.7","40","<div class = ""response_question"">WAS THE IMAGE ROTATED...</div>","","3","","","4","8","bas","right","test","true"
"2814.1000000177883","","html-button-response","463","1940634","0.0-8.0-0.0-0.8","40","","","0","","","","","","","",""
"null","","html-keyboard-response","464","1940721","0.0-8.0-0.0-1.8","40","<p><img class= 'stimulus' src='images/baseline/05189v.jpg'></img></p>","null","","1551212882426","","","","","","",""
"null","","html-keyboard-response","465","1940821","0.0-8.0-0.0-2.8","40","<p><img class= 'stimulus' src='images/baseline/field 2.jpg'></img></p>","null","","1551212882526","","","","","","",""
"null","","html-keyboard-response","466","1940921","0.0-8.0-0.0-3.8","40","<p><img class= 'stimulus' src='images/baseline/pexels-photo-459203.jpeg'></img></p>","null","","1551212882625","","","","","","",""
"null","","html-keyboard-response","467","1941021","0.0-8.0-0.0-4.8","40","<p><img class= 'stimulus' src='images/baseline/Sailing 3.jpg'></img></p>","null","","1551212882726","4","","","","","",""
"null","","html-keyboard-response","468","1941122","0.0-8.0-0.0-5.8","40","<p><img class= 'stimulus' src='images/baseline/05242v.jpg'></img></p>","null","","1551212882826","","","","","","",""
"null","","html-keyboard-response","469","1941221","0.0-8.0-0.0-6.8","40","<p><img class= 'stimulus' src='images/neutral/mule-deer-doe1.jpg'></img></p>","null","","1551212882925","6","","","","","",""
"null","","html-keyboard-response","470","1941321","0.0-8.0-0.0-7.8","40","<p><img class= 'stimulus' src='images/baseline/farmhouse4.jpg'></img></p>","null","","1551212883027","","","","","","",""
"null","","html-keyboard-response","471","1941421","0.0-8.0-0.0-8.8","40","<p><img class= 'stimulus' src='images/target/pexels-photo-210683.jpeg'></img></p>","null","","1551212883126","8","","","","","",""
"null","","html-keyboard-response","472","1941520","0.0-8.0-0.0-9.8","40","<p><img class= 'stimulus' src='images/baseline/02971v.jpg'></img></p>","null","","1551212883226","","","","","","",""
"null","","html-keyboard-response","473","1941620","0.0-8.0-0.0-10.8","40","<p><img class= 'stimulus' src='images/baseline/flooded-bridge.jpg'></img></p>","null","","1551212883325","","","","","","",""
"null","","html-keyboard-response","474","1941721","0.0-8.0-0.0-11.8","40","<p><img class= 'stimulus' src='images/baseline/agriculture-cereal-clouds-175389.jpg'></img></p>","null","","1551212883425","","","","","","",""
"null","","html-keyboard-response","475","1941821","0.0-8.0-0.0-12.8","40","<p><img class= 'stimulus' src='images/baseline/04064v.jpg'></img></p>","null","","1551212883525","12","","","","","",""
"null","","html-keyboard-response","476","1941921","0.0-8.0-0.0-13.8","40","<p><img class= 'stimulus' src='images/baseline/04014v.jpg'></img></p>","null","","1551212883625","","","","","","",""
"null","","html-keyboard-response","477","1942021","0.0-8.0-0.0-14.8","40","<p><img class= 'stimulus' src='images/baseline/04222v.jpg'></img></p>","null","","1551212883726","14","","","","","",""
"null","","html-keyboard-response","478","1942121","0.0-8.0-0.0-15.8","40","<p><img class= 'stimulus' src='images/baseline/lake 2.jpg'></img></p>","null","","1551212883826","","","","","","",""
"null","","html-keyboard-response","479","1942221","0.0-8.0-0.0-16.8","40","<p><img class= 'stimulus' src='images/baseline/red-rocks-park.jpg'></img></p>","null","","1551212883925","","","","","","",""
"null","","html-keyboard-response","480","1942338","0.0-8.0-0.0-17.8","40","<p><img class= 'stimulus' src='images/baseline/building3.jpg'></img></p>","null","","1551212884025","","","","","","",""
"1875.8000000088941","","html-button-response","481","1945218","0.0-8.0-0.0-18.8","40","<div class = ""response_question"">WAS THE IMAGE ROTATED...</div>","","2","","","6","2","neu","right","test","false"
"4030.1000000035856","","html-button-response","482","1949250","0.0-8.0-0.0-0.9","40","","","0","","","","","","","",""
"null","","html-keyboard-response","483","1949337","0.0-8.0-0.0-1.9","40","<p><img class= 'stimulus' src='images/baseline/04162v.jpg'></img></p>","null","","1551212891041","","","","","","",""
"null","","html-keyboard-response","484","1949438","0.0-8.0-0.0-2.9","40","<p><img class= 'stimulus' src='images/baseline/Skyscraper 1.jpg'></img></p>","null","","1551212891142","","","","","","",""
"null","","html-keyboard-response","485","1949538","0.0-8.0-0.0-3.9","40","<p><img class= 'stimulus' src='images/baseline/pexels-photo-259280.jpeg'></img></p>","null","","1551212891243","","","","","","",""
"null","","html-keyboard-response","486","1949638","0.0-8.0-0.0-4.9","40","<p><img class= 'stimulus' src='images/baseline/pexels-photo-568236.jpeg'></img></p>","null","","1551212891343","4","","","","","",""
"null","","html-keyboard-response","487","1949737","0.0-8.0-0.0-5.9","40","<p><img class= 'stimulus' src='images/baseline/Beach 3.jpg'></img></p>","null","","1551212891443","","","","","","",""
"null","","html-keyboard-response","488","1949838","0.0-8.0-0.0-6.9","40","<p><img class= 'stimulus' src='images/neutral/Orangutan 1.jpg'></img></p>","null","","1551212891542","6","","","","","",""
"null","","html-keyboard-response","489","1949939","0.0-8.0-0.0-7.9","40","<p><img class= 'stimulus' src='images/baseline/05240v.jpg'></img></p>","null","","1551212891643","","","","","","",""
"null","","html-keyboard-response","490","1950037","0.0-8.0-0.0-8.9","40","<p><img class= 'stimulus left-rotate' src='images/target/mexico_tower_latin_american.jpg'></img></p>","null","","1551212891744","8","","","","","",""
"null","","html-keyboard-response","491","1950138","0.0-8.0-0.0-9.9","40","<p><img class= 'stimulus' src='images/baseline/05198v.jpg'></img></p>","null","","1551212891841","","","","","","",""
"null","","html-keyboard-response","492","1950237","0.0-8.0-0.0-10.9","40","<p><img class= 'stimulus' src='images/baseline/valley 1.jpg'></img></p>","null","","1551212891942","","","","","","",""
"null","","html-keyboard-response","493","1950343","0.0-8.0-0.0-11.9","40","<p><img class= 'stimulus' src='images/baseline/Sidewalk 4.jpg'></img></p>","null","","1551212892041","","","","","","",""
"null","","html-keyboard-response","494","1950443","0.0-8.0-0.0-12.9","40","<p><img class= 'stimulus' src='images/baseline/04193v.jpg'></img></p>","null","","1551212892147","12","","","","","",""
"null","","html-keyboard-response","495","1950543","0.0-8.0-0.0-13.9","40","<p><img class= 'stimulus' src='images/baseline/landscape7.jpg'></img></p>","null","","1551212892247","","","","","","",""
"null","","html-keyboard-response","496","1950643","0.0-8.0-0.0-14.9","40","<p><img class= 'stimulus' src='images/baseline/farmhouse1.jpg'></img></p>","null","","1551212892348","14","","","","","",""
"null","","html-keyboard-response","497","1950743","0.0-8.0-0.0-15.9","40","<p><img class= 'stimulus' src='images/baseline/Skijump 1.jpg'></img></p>","null","","1551212892448","","","","","","",""
"null","","html-keyboard-response","498","1950842","0.0-8.0-0.0-16.9","40","<p><img class= 'stimulus' src='images/baseline/empire-state-building.jpg'></img></p>","null","","1551212892548","","","","","","",""
"null","","html-keyboard-response","499","1950959","0.0-8.0-0.0-17.9","40","<p><img class= 'stimulus' src='images/baseline/pexels-photo-808465.jpeg'></img></p>","null","","1551212892648","","","","","","",""
"714.1999999876134","","html-button-response","500","1952679","0.0-8.0-0.0-18.9","40","<div class = ""response_question"">WAS THE IMAGE ROTATED...</div>","","1","","","6","2","neu","left","test","true"
"2358.3999999973457","","html-button-response","501","1955038","0.0-8.0-0.0-0.10","40","","","0","","","","","","","",""
"null","","html-keyboard-response","502","1955125","0.0-8.0-0.0-1.10","40","<p><img class= 'stimulus' src='images/baseline/landscape2.jpg'></img></p>","null","","1551212896831","","","","","","",""
"null","","html-keyboard-response","503","1955226","0.0-8.0-0.0-2.10","40","<p><img class= 'stimulus' src='images/baseline/chicago-skyline-at-night-1476869511p8U.jpg'></img></p>","null","","1551212896930","","","","","","",""
"null","","html-keyboard-response","504","1955326","0.0-8.0-0.0-3.10","40","<p><img class= 'stimulus' src='images/baseline/kokkari-1523011968Xfr.jpg'></img></p>","null","","1551212897030","","","","","","",""
"null","","html-keyboard-response","505","1955426","0.0-8.0-0.0-4.10","40","<p><img class= 'stimulus' src='images/baseline/pexels-photo-750108.jpeg'></img></p>","null","","1551212897130","4","","","","","",""
"null","","html-keyboard-response","506","1955526","0.0-8.0-0.0-5.10","40","<p><img class= 'stimulus' src='images/baseline/03098v.jpg'></img></p>","null","","1551212897231","","","","","","",""
