"rt","responses","trial_type","trial_index","time_elapsed","internal_node_id","participant_id","stimulus","key_press","button_pressed","stim_onset","sequence_position","distractor_position","target_lag","distractor_type","target_orientation","phase","correct"
"8874.299999995856","{""Q0"":""27""}","survey-text","0","8879","0.0-0.0","27","","","","","","","","","","",""
"39317.00000001001","","html-keyboard-response","1","48210","0.0-1.0","27","Welcome to the experiment.","67","","","","","","","","",""
"2659.299999999348","","html-button-response","2","50873","0.0-2.0","27","<p>Several images will be presented sequentially.        Each image will only be on the screen for about 100 milliseconds.</p>        <p> One of the images may be rotated 90 degrees right or left.        Watch for this image and remember if it is rotated right or left.</p>               <p>Images of people and animals will appear, and sometimes they will be unpleasant.        These will never be the rotated target image.</p>","","0","","","","","","","",""
"2117.8999999829102","","html-button-response","3","52993","0.0-3.0","27","<p><img class=""stimulus left-rotate"" src=""images/target/beach1.jpeg""></img></p><p>This is an example of an image rotated to the left.</p>","","0","","","","","","","",""
"638.9000000199303","","html-button-response","4","53632","0.0-4.0","27","<p><img class=""stimulus"" src=""images/target/building17.jpg""></img></p><p>This is an example of an image rotated to the right.</p>","","0","","","","","","","",""
"951.1000000056811","","html-button-response","5","54584","0.0-5.0","27","<p>We will now begin a short practice session.</p>         <p>A + symbol will appear in the middle of the screen. Please fix your gaze on the center of the +, and then click the mouse button to begin the image sequence.</p>         <p>Please avoid blinking or eye movements while the images are on the screen.</p>        <p>The image sequence will start relatively slow. After a few sequences, it will speed up.</p>","","0","","","","","","","",""
"694.5999999879859","","html-button-response","6","55280","0.0-6.0-0.0","27","","","0","","","","","","","",""
"null","","html-keyboard-response","7","55465","0.0-6.0-1.0","27","<p><img class= 'stimulus' src='images/baseline/Freudenberg_sg_Switzerland.jpg'></img></p>","null","","1550706356735","","","","","","",""
"null","","html-keyboard-response","8","55665","0.0-6.0-2.0","27","<p><img class= 'stimulus' src='images/baseline/Street 1.jpg'></img></p>","null","","1550706356935","","","","","","",""
"null","","html-keyboard-response","9","55864","0.0-6.0-3.0","27","<p><img class= 'stimulus' src='images/baseline/02982v.jpg'></img></p>","null","","1550706357135","","","","","","",""
"null","","html-keyboard-response","10","56065","0.0-6.0-4.0","27","<p><img class= 'stimulus' src='images/baseline/bird-flying-at-sunset.jpg'></img></p>","null","","1550706357336","4","","","","","",""
"null","","html-keyboard-response","11","56266","0.0-6.0-5.0","27","<p><img class= 'stimulus' src='images/baseline/empire-state-building.jpg'></img></p>","null","","1550706357536","","","","","","",""
"null","","html-keyboard-response","12","56466","0.0-6.0-6.0","27","<p><img class= 'stimulus' src='images/baseline/farmhouse6.jpg'></img></p>","null","","1550706357737","6","","","","","",""
"null","","html-keyboard-response","13","56666","0.0-6.0-7.0","27","<p><img class= 'stimulus' src='images/baseline/lake3.jpg'></img></p>","null","","1550706357936","","","","","","",""
"null","","html-keyboard-response","14","56866","0.0-6.0-8.0","27","<p><img class= 'stimulus' src='images/baseline/landscape37.jpg'></img></p>","null","","1550706358137","8","","","","","",""
"null","","html-keyboard-response","15","57057","0.0-6.0-9.0","27","<p><img class= 'stimulus' src='images/baseline/house6.jpg'></img></p>","null","","1550706358336","","","","","","",""
"null","","html-keyboard-response","16","57266","0.0-6.0-10.0","27","<p><img class= 'stimulus' src='images/baseline/Nature 2.jpg'></img></p>","null","","1550706358528","","","","","","",""
"null","","html-keyboard-response","17","57466","0.0-6.0-11.0","27","<p><img class= 'stimulus' src='images/baseline/house1.jpg'></img></p>","null","","1550706358736","","","","","","",""
"null","","html-keyboard-response","18","57665","0.0-6.0-12.0","27","<p><img class= 'stimulus' src='images/baseline/04162v.jpg'></img></p>","null","","1550706358936","12","","","","","",""
"null","","html-keyboard-response","19","57865","0.0-6.0-13.0","27","<p><img class= 'stimulus' src='images/baseline/05145v.jpg'></img></p>","null","","1550706359136","","","","","","",""
"null","","html-keyboard-response","20","58064","0.0-6.0-14.0","27","<p><img class= 'stimulus left-rotate' src='images/target/tree.jpeg'></img></p>","null","","1550706359335","14","","","","","",""
"null","","html-keyboard-response","21","58265","0.0-6.0-15.0","27","<p><img class= 'stimulus' src='images/baseline/Grass 6.jpg'></img></p>","null","","1550706359536","","","","","","",""
"null","","html-keyboard-response","22","58465","0.0-6.0-16.0","27","<p><img class= 'stimulus' src='images/baseline/river 1.jpg'></img></p>","null","","1550706359735","","","","","","",""
"null","","html-keyboard-response","23","58681","0.0-6.0-17.0","27","<p><img class= 'stimulus' src='images/baseline/04229v.jpg'></img></p>","null","","1550706359935","","","","","","",""
"683.4000000089873","","html-button-response","24","60369","0.0-6.0-18.0","27","<div class = ""response_question"">WAS THE IMAGE ROTATED...</div>","","0","","","6","8","bas","left","practice","true"
"437.9999999946449","","html-button-response","25","60809","0.0-6.0-0.1","27","","","0","","","","","","","",""
"null","","html-keyboard-response","26","60981","0.0-6.0-1.1","27","<p><img class= 'stimulus' src='images/baseline/agriculture-bright-clouds-440731.jpg'></img></p>","null","","1550706362252","","","","","","",""
"null","","html-keyboard-response","27","61182","0.0-6.0-2.1","27","<p><img class= 'stimulus' src='images/baseline/Linden,_paysage.jpg'></img></p>","null","","1550706362452","","","","","","",""
"null","","html-keyboard-response","28","61382","0.0-6.0-3.1","27","<p><img class= 'stimulus' src='images/baseline/04031v.jpg'></img></p>","null","","1550706362652","","","","","","",""
"null","","html-keyboard-response","29","61581","0.0-6.0-4.1","27","<p><img class= 'stimulus' src='images/baseline/house10.jpg'></img></p>","null","","1550706362853","4","","","","","",""
"null","","html-keyboard-response","30","61781","0.0-6.0-5.1","27","<p><img class= 'stimulus' src='images/baseline/Road 1.jpg'></img></p>","null","","1550706363052","","","","","","",""
"null","","html-keyboard-response","31","61981","0.0-6.0-6.1","27","<p><img class= 'stimulus' src='images/baseline/Bridge 1.jpg'></img></p>","null","","1550706363251","6","","","","","",""
"null","","html-keyboard-response","32","62182","0.0-6.0-7.1","27","<p><img class= 'stimulus' src='images/baseline/Street 2.jpg'></img></p>","null","","1550706363453","","","","","","",""
"null","","html-keyboard-response","33","62382","0.0-6.0-8.1","27","<p><img class= 'stimulus' src='images/baseline/03112v.jpg'></img></p>","null","","1550706363652","8","","","","","",""
"null","","html-keyboard-response","34","62581","0.0-6.0-9.1","27","<p><img class= 'stimulus' src='images/baseline/05158v.jpg'></img></p>","null","","1550706363852","","","","","","",""
"null","","html-keyboard-response","35","62781","0.0-6.0-10.1","27","<p><img class= 'stimulus' src='images/baseline/pexels-photo-808465.jpeg'></img></p>","null","","1550706364053","","","","","","",""
"null","","html-keyboard-response","36","62982","0.0-6.0-11.1","27","<p><img class= 'stimulus' src='images/baseline/red rocks from afar.jpg'></img></p>","null","","1550706364252","","","","","","",""
"null","","html-keyboard-response","37","63182","0.0-6.0-12.1","27","<p><img class= 'stimulus' src='images/baseline/pexels-photo-351264.jpeg'></img></p>","null","","1550706364452","12","","","","","",""
"null","","html-keyboard-response","38","63382","0.0-6.0-13.1","27","<p><img class= 'stimulus' src='images/baseline/field 3.jpg'></img></p>","null","","1550706364653","","","","","","",""
"null","","html-keyboard-response","39","63582","0.0-6.0-14.1","27","<p><img class= 'stimulus' src='images/target/tree_2.jpg'></img></p>","null","","1550706364851","14","","","","","",""
"null","","html-keyboard-response","40","63781","0.0-6.0-15.1","27","<p><img class= 'stimulus' src='images/baseline/valley 2.jpg'></img></p>","null","","1550706365051","","","","","","",""
"null","","html-keyboard-response","41","63983","0.0-6.0-16.1","27","<p><img class= 'stimulus' src='images/baseline/Bahia_Onelli_Parque_Nacional_Los_Glaciares_Patagonia_Argentina_Luca_Galuzzi_2005.jpg'></img></p>","null","","1550706365251","","","","","","",""
"null","","html-keyboard-response","42","64198","0.0-6.0-17.1","27","<p><img class= 'stimulus' src='images/baseline/flooded-bridge.jpg'></img></p>","null","","1550706365453","","","","","","",""
"639.8000000044703","","html-button-response","43","65841","0.0-6.0-18.1","27","<div class = ""response_question"">WAS THE IMAGE ROTATED...</div>","","3","","","6","8","bas","right","practice","true"
"510.2000000188127","","html-button-response","44","66352","0.0-6.0-0.2","27","","","0","","","","","","","",""
"null","","html-keyboard-response","45","66532","0.0-6.0-1.2","27","<p><img class= 'stimulus' src='images/baseline/02988v.jpg'></img></p>","null","","1550706367802","","","","","","",""
"null","","html-keyboard-response","46","66732","0.0-6.0-2.2","27","<p><img class= 'stimulus' src='images/baseline/05240v.jpg'></img></p>","null","","1550706368001","","","","","","",""
"null","","html-keyboard-response","47","66932","0.0-6.0-3.2","27","<p><img class= 'stimulus' src='images/baseline/04284v.jpg'></img></p>","null","","1550706368202","","","","","","",""
"null","","html-keyboard-response","48","67132","0.0-6.0-4.2","27","<p><img class= 'stimulus' src='images/baseline/landscape34.jpg'></img></p>","null","","1550706368402","4","","","","","",""
"null","","html-keyboard-response","49","67331","0.0-6.0-5.2","27","<p><img class= 'stimulus' src='images/baseline/pexels-photo-541101.jpeg'></img></p>","null","","1550706368604","","","","","","",""
"null","","html-keyboard-response","50","67532","0.0-6.0-6.2","27","<p><img class= 'stimulus' src='images/target/pexels-photo-1534411.jpeg'></img></p>","null","","1550706368802","6","","","","","",""
"null","","html-keyboard-response","51","67734","0.0-6.0-7.2","27","<p><img class= 'stimulus' src='images/baseline/03041v.jpg'></img></p>","null","","1550706369002","","","","","","",""
"null","","html-keyboard-response","52","67932","0.0-6.0-8.2","27","<p><img class= 'stimulus' src='images/baseline/03162v.jpg'></img></p>","null","","1550706369203","8","","","","","",""
"null","","html-keyboard-response","53","68133","0.0-6.0-9.2","27","<p><img class= 'stimulus' src='images/baseline/landscape38.jpg'></img></p>","null","","1550706369403","","","","","","",""
"null","","html-keyboard-response","54","68332","0.0-6.0-10.2","27","<p><img class= 'stimulus' src='images/baseline/Niinsaare_jarv.jpg'></img></p>","null","","1550706369602","","","","","","",""
"null","","html-keyboard-response","55","68532","0.0-6.0-11.2","27","<p><img class= 'stimulus' src='images/baseline/05167v.jpg'></img></p>","null","","1550706369802","","","","","","",""
"null","","html-keyboard-response","56","68733","0.0-6.0-12.2","27","<p><img class= 'stimulus' src='images/baseline/Beach 2.jpg'></img></p>","null","","1550706370003","12","","","","","",""
"null","","html-keyboard-response","57","68933","0.0-6.0-13.2","27","<p><img class= 'stimulus' src='images/baseline/05255v.jpg'></img></p>","null","","1550706370203","","","","","","",""
"null","","html-keyboard-response","58","69132","0.0-6.0-14.2","27","<p><img class= 'stimulus' src='images/baseline/04130v.jpg'></img></p>","null","","1550706370403","14","","","","","",""
"null","","html-keyboard-response","59","69332","0.0-6.0-15.2","27","<p><img class= 'stimulus' src='images/baseline/hiking-trail.jpg'></img></p>","null","","1550706370604","","","","","","",""
"null","","html-keyboard-response","60","69533","0.0-6.0-16.2","27","<p><img class= 'stimulus' src='images/baseline/house3.jpg'></img></p>","null","","1550706370803","","","","","","",""
"null","","html-keyboard-response","61","69749","0.0-6.0-17.2","27","<p><img class= 'stimulus' src='images/baseline/landscape3.jpg'></img></p>","null","","1550706371004","","","","","","",""
"488.99999997229315","","html-button-response","62","71241","0.0-6.0-18.2","27","<div class = ""response_question"">WAS THE IMAGE ROTATED...</div>","","3","","","4","2","bas","right","practice","true"
"310.39999998756684","","html-button-response","63","71552","0.0-6.0-0.3","27","","","0","","","","","","","",""
"null","","html-keyboard-response","64","71733","0.0-6.0-1.3","27","<p><img class= 'stimulus' src='images/baseline/Lake 14.jpg'></img></p>","null","","1550706373003","","","","","","",""
"null","","html-keyboard-response","65","71932","0.0-6.0-2.3","27","<p><img class= 'stimulus' src='images/baseline/04064v.jpg'></img></p>","null","","1550706373203","","","","","","",""
"null","","html-keyboard-response","66","72133","0.0-6.0-3.3","27","<p><img class= 'stimulus' src='images/baseline/landscape15.jpg'></img></p>","null","","1550706373403","","","","","","",""
"null","","html-keyboard-response","67","72333","0.0-6.0-4.3","27","<p><img class= 'stimulus' src='images/baseline/sun-through-winter-tree-branches1.jpg'></img></p>","null","","1550706373604","4","","","","","",""
"null","","html-keyboard-response","68","72533","0.0-6.0-5.3","27","<p><img class= 'stimulus' src='images/baseline/04300v.jpg'></img></p>","null","","1550706373803","","","","","","",""
"null","","html-keyboard-response","69","72733","0.0-6.0-6.3","27","<p><img class= 'stimulus' src='images/baseline/Kocherbaumwald-01.jpg'></img></p>","null","","1550706374003","6","","","","","",""
"null","","html-keyboard-response","70","72932","0.0-6.0-7.3","27","<p><img class= 'stimulus' src='images/baseline/Sunset 6.jpg'></img></p>","null","","1550706374203","","","","","","",""
"null","","html-keyboard-response","71","73133","0.0-6.0-8.3","27","<p><img class= 'stimulus left-rotate' src='images/target/coconut-3396945_640.jpg'></img></p>","null","","1550706374403","8","","","","","",""
"null","","html-keyboard-response","72","73332","0.0-6.0-9.3","27","<p><img class= 'stimulus' src='images/baseline/building8.jpg'></img></p>","null","","1550706374604","","","","","","",""
"null","","html-keyboard-response","73","73533","0.0-6.0-10.3","27","<p><img class= 'stimulus' src='images/baseline/meadow-with-mountain-in-background.jpg'></img></p>","null","","1550706374805","","","","","","",""
"null","","html-keyboard-response","74","73733","0.0-6.0-11.3","27","<p><img class= 'stimulus' src='images/baseline/dirt-road-or-trail-through-park.jpg'></img></p>","null","","1550706375003","","","","","","",""
"null","","html-keyboard-response","75","73932","0.0-6.0-12.3","27","<p><img class= 'stimulus' src='images/baseline/kokkari-1523011968Xfr.jpg'></img></p>","null","","1550706375203","12","","","","","",""
"null","","html-keyboard-response","76","74132","0.0-6.0-13.3","27","<p><img class= 'stimulus' src='images/baseline/Lake 4.jpg'></img></p>","null","","1550706375403","","","","","","",""
"null","","html-keyboard-response","77","74334","0.0-6.0-14.3","27","<p><img class= 'stimulus' src='images/baseline/foreclosed_home.jpg'></img></p>","null","","1550706375604","14","","","","","",""
"null","","html-keyboard-response","78","74534","0.0-6.0-15.3","27","<p><img class= 'stimulus' src='images/baseline/03220v.jpg'></img></p>","null","","1550706375804","","","","","","",""
"null","","html-keyboard-response","79","74733","0.0-6.0-16.3","27","<p><img class= 'stimulus' src='images/baseline/architecture_modern_architecture_852928.jpg'></img></p>","null","","1550706376004","","","","","","",""
"null","","html-keyboard-response","80","74951","0.0-6.0-17.3","27","<p><img class= 'stimulus' src='images/baseline/pexels-photo-1287089.jpeg'></img></p>","null","","1550706376205","","","","","","",""
"718.5000000172295","","html-button-response","81","76672","0.0-6.0-18.3","27","<div class = ""response_question"">WAS THE IMAGE ROTATED...</div>","","0","","","6","2","bas","left","practice","true"
"614.7000000055414","","html-button-response","82","77288","0.0-6.0-0.4","27","","","0","","","","","","","",""
"null","","html-keyboard-response","83","77416","0.0-6.0-1.4","27","<p><img class= 'stimulus' src='images/baseline/05131v.jpg'></img></p>","null","","1550706378736","","","","","","",""
"null","","html-keyboard-response","84","77565","0.0-6.0-2.4","27","<p><img class= 'stimulus' src='images/baseline/Paysage_enneige_02.jpg'></img></p>","null","","1550706378886","","","","","","",""
"null","","html-keyboard-response","85","77716","0.0-6.0-3.4","27","<p><img class= 'stimulus' src='images/baseline/04158v.jpg'></img></p>","null","","1550706379037","","","","","","",""
"null","","html-keyboard-response","86","77866","0.0-6.0-4.4","27","<p><img class= 'stimulus' src='images/baseline/04010v.jpg'></img></p>","null","","1550706379186","4","","","","","",""
"null","","html-keyboard-response","87","78016","0.0-6.0-5.4","27","<p><img class= 'stimulus' src='images/baseline/autumn-in-red-rocks-park.jpg'></img></p>","null","","1550706379336","","","","","","",""
"null","","html-keyboard-response","88","78166","0.0-6.0-6.4","27","<p><img class= 'stimulus' src='images/baseline/Sailing 3.jpg'></img></p>","null","","1550706379486","6","","","","","",""
"null","","html-keyboard-response","89","78314","0.0-6.0-7.4","27","<p><img class= 'stimulus' src='images/baseline/house2.jpg'></img></p>","null","","1550706379637","","","","","","",""
"null","","html-keyboard-response","90","78465","0.0-6.0-8.4","27","<p><img class= 'stimulus' src='images/baseline/landscape8.jpg'></img></p>","null","","1550706379786","8","","","","","",""
"null","","html-keyboard-response","91","78615","0.0-6.0-9.4","27","<p><img class= 'stimulus' src='images/baseline/03045v.jpg'></img></p>","null","","1550706379937","","","","","","",""
"null","","html-keyboard-response","92","78766","0.0-6.0-10.4","27","<p><img class= 'stimulus' src='images/baseline/church-silhouette-8712964986014Kb.jpg'></img></p>","null","","1550706380086","","","","","","",""
"null","","html-keyboard-response","93","78916","0.0-6.0-11.4","27","<p><img class= 'stimulus' src='images/baseline/building5.jpg'></img></p>","null","","1550706380235","","","","","","",""
"null","","html-keyboard-response","94","79065","0.0-6.0-12.4","27","<p><img class= 'stimulus left-rotate' src='images/target/1937-single-tree-at-the-top-of-stone-mountain-pv.jpg'></img></p>","null","","1550706380386","12","","","","","",""
"null","","html-keyboard-response","95","79216","0.0-6.0-13.4","27","<p><img class= 'stimulus' src='images/baseline/pexels-photo-280222.jpeg'></img></p>","null","","1550706380536","","","","","","",""
"null","","html-keyboard-response","96","79365","0.0-6.0-14.4","27","<p><img class= 'stimulus' src='images/baseline/Lake 3.jpg'></img></p>","null","","1550706380686","14","","","","","",""
"null","","html-keyboard-response","97","79515","0.0-6.0-15.4","27","<p><img class= 'stimulus' src='images/baseline/03075v.jpg'></img></p>","null","","1550706380836","","","","","","",""
"null","","html-keyboard-response","98","79665","0.0-6.0-16.4","27","<p><img class= 'stimulus' src='images/baseline/landscape29.jpg'></img></p>","null","","1550706380986","","","","","","",""
"null","","html-keyboard-response","99","79833","0.0-6.0-17.4","27","<p><img class= 'stimulus' src='images/baseline/Street 5.jpg'></img></p>","null","","1550706381135","","","","","","",""
"909.0000000142027","","html-button-response","100","81744","0.0-6.0-18.4","27","<div class = ""response_question"">WAS THE IMAGE ROTATED...</div>","","0","","","4","8","bas","left","practice","true"
"1046.6000000014901","","html-button-response","101","82793","0.0-6.0-0.5","27","","","0","","","","","","","",""
"null","","html-keyboard-response","102","82915","0.0-6.0-1.5","27","<p><img class= 'stimulus' src='images/baseline/farmhouse8.jpg'></img></p>","null","","1550706384235","","","","","","",""
"null","","html-keyboard-response","103","83065","0.0-6.0-2.5","27","<p><img class= 'stimulus' src='images/baseline/Waterfall 1.jpg'></img></p>","null","","1550706384387","","","","","","",""
"null","","html-keyboard-response","104","83215","0.0-6.0-3.5","27","<p><img class= 'stimulus' src='images/baseline/05264v.jpg'></img></p>","null","","1550706384537","","","","","","",""
"null","","html-keyboard-response","105","83365","0.0-6.0-4.5","27","<p><img class= 'stimulus' src='images/baseline/05161v.jpg'></img></p>","null","","1550706384685","4","","","","","",""
"null","","html-keyboard-response","106","83515","0.0-6.0-5.5","27","<p><img class= 'stimulus' src='images/baseline/landscape7.jpg'></img></p>","null","","1550706384836","","","","","","",""
"null","","html-keyboard-response","107","83665","0.0-6.0-6.5","27","<p><img class= 'stimulus left-rotate' src='images/target/cactus1.jpg'></img></p>","null","","1550706384985","6","","","","","",""
"null","","html-keyboard-response","108","83815","0.0-6.0-7.5","27","<p><img class= 'stimulus' src='images/baseline/Path 1.jpg'></img></p>","null","","1550706385137","","","","","","",""
"null","","html-keyboard-response","109","83964","0.0-6.0-8.5","27","<p><img class= 'stimulus' src='images/baseline/landscape12.jpg'></img></p>","null","","1550706385285","8","","","","","",""
"null","","html-keyboard-response","110","84115","0.0-6.0-9.5","27","<p><img class= 'stimulus' src='images/baseline/vintage-art-deco-storefront.jpg'></img></p>","null","","1550706385435","","","","","","",""
"null","","html-keyboard-response","111","84265","0.0-6.0-10.5","27","<p><img class= 'stimulus' src='images/baseline/geese-flying-over-lake-at-dusk.jpg'></img></p>","null","","1550706385585","","","","","","",""
"null","","html-keyboard-response","112","84415","0.0-6.0-11.5","27","<p><img class= 'stimulus' src='images/baseline/road 1(1).jpg'></img></p>","null","","1550706385735","","","","","","",""
"null","","html-keyboard-response","113","84565","0.0-6.0-12.5","27","<p><img class= 'stimulus' src='images/baseline/landscape35.jpg'></img></p>","null","","1550706385885","12","","","","","",""
"null","","html-keyboard-response","114","84715","0.0-6.0-13.5","27","<p><img class= 'stimulus' src='images/baseline/Dirt 2.jpg'></img></p>","null","","1550706386035","","","","","","",""
"null","","html-keyboard-response","115","84865","0.0-6.0-14.5","27","<p><img class= 'stimulus' src='images/baseline/Camping 10.jpg'></img></p>","null","","1550706386186","14","","","","","",""
"null","","html-keyboard-response","116","85016","0.0-6.0-15.5","27","<p><img class= 'stimulus' src='images/baseline/hills 4.jpg'></img></p>","null","","1550706386336","","","","","","",""
"null","","html-keyboard-response","117","85165","0.0-6.0-16.5","27","<p><img class= 'stimulus' src='images/baseline/pexels-photo-1048039.jpeg'></img></p>","null","","1550706386485","","","","","","",""
"null","","html-keyboard-response","118","85332","0.0-6.0-17.5","27","<p><img class= 'stimulus' src='images/baseline/pexels-photo-1261728.jpeg'></img></p>","null","","1550706386636","","","","","","",""
"1089.8999999917578","","html-button-response","119","87425","0.0-6.0-18.5","27","<div class = ""response_question"">WAS THE IMAGE ROTATED...</div>","","0","","","4","2","bas","left","practice","true"
"1926.6000000061467","","html-button-response","120","89352","0.0-6.0-0.6","27","","","0","","","","","","","",""
"null","","html-keyboard-response","121","89483","0.0-6.0-1.6","27","<p><img class= 'stimulus' src='images/baseline/Sky 1.jpg'></img></p>","null","","1550706390802","","","","","","",""
"null","","html-keyboard-response","122","89632","0.0-6.0-2.6","27","<p><img class= 'stimulus' src='images/baseline/Happy pose 3.jpg'></img></p>","null","","1550706390953","","","","","","",""
"null","","html-keyboard-response","123","89782","0.0-6.0-3.6","27","<p><img class= 'stimulus' src='images/baseline/Sunset 4.jpg'></img></p>","null","","1550706391102","","","","","","",""
"null","","html-keyboard-response","124","89932","0.0-6.0-4.6","27","<p><img class= 'stimulus' src='images/baseline/building16.jpg'></img></p>","null","","1550706391252","4","","","","","",""
"null","","html-keyboard-response","125","90081","0.0-6.0-5.6","27","<p><img class= 'stimulus' src='images/baseline/Skyscraper 1.jpg'></img></p>","null","","1550706391404","","","","","","",""
"null","","html-keyboard-response","126","90232","0.0-6.0-6.6","27","<p><img class= 'stimulus' src='images/baseline/Sunset 5.jpg'></img></p>","null","","1550706391552","6","","","","","",""
"null","","html-keyboard-response","127","90381","0.0-6.0-7.6","27","<p><img class= 'stimulus' src='images/baseline/farmhouse2.jpg'></img></p>","null","","1550706391703","","","","","","",""
"null","","html-keyboard-response","128","90532","0.0-6.0-8.6","27","<p><img class= 'stimulus' src='images/baseline/02977v.jpg'></img></p>","null","","1550706391852","8","","","","","",""
"null","","html-keyboard-response","129","90681","0.0-6.0-9.6","27","<p><img class= 'stimulus' src='images/baseline/sunset-over-the-lake.jpg'></img></p>","null","","1550706392001","","","","","","",""
"null","","html-keyboard-response","130","90832","0.0-6.0-10.6","27","<p><img class= 'stimulus' src='images/baseline/building_at_national_conservation.jpg'></img></p>","null","","1550706392151","","","","","","",""
"null","","html-keyboard-response","131","90982","0.0-6.0-11.6","27","<p><img class= 'stimulus' src='images/baseline/Lake 16.jpg'></img></p>","null","","1550706392302","","","","","","",""
"null","","html-keyboard-response","132","91133","0.0-6.0-12.6","27","<p><img class= 'stimulus' src='images/target/palm-trees-1209125_640.jpg'></img></p>","null","","1550706392452","12","","","","","",""
"null","","html-keyboard-response","133","91283","0.0-6.0-13.6","27","<p><img class= 'stimulus' src='images/baseline/04196v.jpg'></img></p>","null","","1550706392603","","","","","","",""
"null","","html-keyboard-response","134","91431","0.0-6.0-14.6","27","<p><img class= 'stimulus' src='images/baseline/hills 1.jpg'></img></p>","null","","1550706392752","14","","","","","",""
"null","","html-keyboard-response","135","91581","0.0-6.0-15.6","27","<p><img class= 'stimulus' src='images/baseline/Paysage_karabagh_02.jpg'></img></p>","null","","1550706392903","","","","","","",""
"null","","html-keyboard-response","136","91732","0.0-6.0-16.6","27","<p><img class= 'stimulus' src='images/baseline/03148v.jpg'></img></p>","null","","1550706393052","","","","","","",""
"null","","html-keyboard-response","137","91899","0.0-6.0-17.6","27","<p><img class= 'stimulus' src='images/baseline/02960v.jpg'></img></p>","null","","1550706393203","","","","","","",""
"1443.8000000081956","","html-button-response","138","94345","0.0-6.0-18.6","27","<div class = ""response_question"">WAS THE IMAGE ROTATED...</div>","","3","","","4","8","bas","right","practice","true"
"2278.4000000101514","","html-button-response","139","96624","0.0-6.0-0.7","27","","","0","","","","","","","",""
"null","","html-keyboard-response","140","96749","0.0-6.0-1.7","27","<p><img class= 'stimulus' src='images/baseline/pexels-photo-414491.jpeg'></img></p>","null","","1550706398068","","","","","","",""
"null","","html-keyboard-response","141","96898","0.0-6.0-2.7","27","<p><img class= 'stimulus' src='images/baseline/99_-_Machu_Picchu_-_Juin_2009.edit3.jpg'></img></p>","null","","1550706398220","","","","","","",""
"null","","html-keyboard-response","142","97048","0.0-6.0-3.7","27","<p><img class= 'stimulus' src='images/baseline/landscape6.jpg'></img></p>","null","","1550706398368","","","","","","",""
"null","","html-keyboard-response","143","97199","0.0-6.0-4.7","27","<p><img class= 'stimulus' src='images/baseline/pexels-photo-1840893.jpeg'></img></p>","null","","1550706398519","4","","","","","",""
"null","","html-keyboard-response","144","97348","0.0-6.0-5.7","27","<p><img class= 'stimulus' src='images/baseline/04062v.jpg'></img></p>","null","","1550706398670","","","","","","",""
"null","","html-keyboard-response","145","97498","0.0-6.0-6.7","27","<p><img class= 'stimulus' src='images/baseline/Desert_View_Indian_Wells.jpg'></img></p>","null","","1550706398819","6","","","","","",""
"null","","html-keyboard-response","146","97648","0.0-6.0-7.7","27","<p><img class= 'stimulus' src='images/baseline/house11.jpg'></img></p>","null","","1550706398969","","","","","","",""
"null","","html-keyboard-response","147","97799","0.0-6.0-8.7","27","<p><img class= 'stimulus' src='images/target/oak-1913194_640.jpg'></img></p>","null","","1550706399118","8","","","","","",""
"null","","html-keyboard-response","148","97949","0.0-6.0-9.7","27","<p><img class= 'stimulus' src='images/baseline/05279v.jpg'></img></p>","null","","1550706399268","","","","","","",""
"null","","html-keyboard-response","149","98099","0.0-6.0-10.7","27","<p><img class= 'stimulus' src='images/baseline/Lake 15.jpg'></img></p>","null","","1550706399419","","","","","","",""
"null","","html-keyboard-response","150","98248","0.0-6.0-11.7","27","<p><img class= 'stimulus' src='images/baseline/grand-teton-mountains.jpg'></img></p>","null","","1550706399570","","","","","","",""
"null","","html-keyboard-response","151","98398","0.0-6.0-12.7","27","<p><img class= 'stimulus' src='images/baseline/Lake 8.jpg'></img></p>","null","","1550706399719","12","","","","","",""
"null","","html-keyboard-response","152","98548","0.0-6.0-13.7","27","<p><img class= 'stimulus' src='images/baseline/pexels-photo-568236.jpeg'></img></p>","null","","1550706399870","","","","","","",""
"null","","html-keyboard-response","153","98698","0.0-6.0-14.7","27","<p><img class= 'stimulus' src='images/baseline/landscape36.jpg'></img></p>","null","","1550706400018","14","","","","","",""
"null","","html-keyboard-response","154","98848","0.0-6.0-15.7","27","<p><img class= 'stimulus' src='images/baseline/building2.jpg'></img></p>","null","","1550706400169","","","","","","",""
"null","","html-keyboard-response","155","98998","0.0-6.0-16.7","27","<p><img class= 'stimulus' src='images/baseline/hills 3.jpg'></img></p>","null","","1550706400318","","","","","","",""
"null","","html-keyboard-response","156","99165","0.0-6.0-17.7","27","<p><img class= 'stimulus' src='images/baseline/pexels-photo-59321.jpeg'></img></p>","null","","1550706400469","","","","","","",""
"536.4999999874271","","html-button-response","157","100704","0.0-6.0-18.7","27","<div class = ""response_question"">WAS THE IMAGE ROTATED...</div>","","3","","","6","2","bas","right","practice","true"
"446.7000000004191","","html-button-response","158","101152","0.0-6.0-0.8","27","","","0","","","","","","","",""
"null","","html-keyboard-response","159","101231","0.0-6.0-1.8","27","<p><img class= 'stimulus' src='images/baseline/04085v.jpg'></img></p>","null","","1550706402602","","","","","","",""
"null","","html-keyboard-response","160","101332","0.0-6.0-2.8","27","<p><img class= 'stimulus' src='images/baseline/Peyto_Lake-Banff_NP-Canada.jpg'></img></p>","null","","1550706402702","","","","","","",""
"null","","html-keyboard-response","161","101432","0.0-6.0-3.8","27","<p><img class= 'stimulus' src='images/baseline/farmhouse11.jpg'></img></p>","null","","1550706402803","","","","","","",""
"null","","html-keyboard-response","162","101532","0.0-6.0-4.8","27","<p><img class= 'stimulus' src='images/baseline/building6.jpg'></img></p>","null","","1550706402903","4","","","","","",""
"null","","html-keyboard-response","163","101632","0.0-6.0-5.8","27","<p><img class= 'stimulus' src='images/baseline/horse_statue.jpg'></img></p>","null","","1550706403002","","","","","","",""
"null","","html-keyboard-response","164","101732","0.0-6.0-6.8","27","<p><img class= 'stimulus' src='images/baseline/agriculture-cereal-clouds-175389.jpg'></img></p>","null","","1550706403103","6","","","","","",""
"null","","html-keyboard-response","165","101832","0.0-6.0-7.8","27","<p><img class= 'stimulus' src='images/baseline/pexels-photo-750108.jpeg'></img></p>","null","","1550706403204","","","","","","",""
"null","","html-keyboard-response","166","101932","0.0-6.0-8.8","27","<p><img class= 'stimulus left-rotate' src='images/target/shotstash_0036-1-1100x734.jpg'></img></p>","null","","1550706403304","8","","","","","",""
"null","","html-keyboard-response","167","102032","0.0-6.0-9.8","27","<p><img class= 'stimulus' src='images/baseline/Street 3.jpg'></img></p>","null","","1550706403402","","","","","","",""
"null","","html-keyboard-response","168","102132","0.0-6.0-10.8","27","<p><img class= 'stimulus' src='images/baseline/lone-old-cottonwood-tree.jpg'></img></p>","null","","1550706403503","","","","","","",""
"null","","html-keyboard-response","169","102231","0.0-6.0-11.8","27","<p><img class= 'stimulus' src='images/baseline/03098v.jpg'></img></p>","null","","1550706403603","","","","","","",""
"null","","html-keyboard-response","170","102332","0.0-6.0-12.8","27","<p><img class= 'stimulus' src='images/baseline/city-silhouette-at-sunset-871291580819Esw.jpg'></img></p>","null","","1550706403702","12","","","","","",""
"null","","html-keyboard-response","171","102432","0.0-6.0-13.8","27","<p><img class= 'stimulus' src='images/baseline/pexels-photo-534164.jpeg'></img></p>","null","","1550706403802","","","","","","",""
"null","","html-keyboard-response","172","102532","0.0-6.0-14.8","27","<p><img class= 'stimulus' src='images/baseline/04014v.jpg'></img></p>","null","","1550706403902","14","","","","","",""
"null","","html-keyboard-response","173","102632","0.0-6.0-15.8","27","<p><img class= 'stimulus' src='images/baseline/landscape13.jpg'></img></p>","null","","1550706404002","","","","","","",""
"null","","html-keyboard-response","174","102732","0.0-6.0-16.8","27","<p><img class= 'stimulus' src='images/baseline/building4.jpg'></img></p>","null","","1550706404101","","","","","","",""
"null","","html-keyboard-response","175","102849","0.0-6.0-17.8","27","<p><img class= 'stimulus' src='images/baseline/cyrillic.jpg'></img></p>","null","","1550706404203","","","","","","",""
"524.4999999995343","","html-button-response","176","104377","0.0-6.0-18.8","27","<div class = ""response_question"">WAS THE IMAGE ROTATED...</div>","","4","","","6","2","bas","left","practice","false"
"430.0999999977648","","html-button-response","177","104808","0.0-6.0-0.9","27","","","0","","","","","","","",""
"null","","html-keyboard-response","178","104881","0.0-6.0-1.9","27","<p><img class= 'stimulus' src='images/baseline/05203v.jpg'></img></p>","null","","1550706406252","","","","","","",""
"null","","html-keyboard-response","179","104981","0.0-6.0-2.9","27","<p><img class= 'stimulus' src='images/baseline/02947v.jpg'></img></p>","null","","1550706406352","","","","","","",""
"null","","html-keyboard-response","180","105082","0.0-6.0-3.9","27","<p><img class= 'stimulus' src='images/baseline/lake 2.jpg'></img></p>","null","","1550706406451","","","","","","",""
"null","","html-keyboard-response","181","105182","0.0-6.0-4.9","27","<p><img class= 'stimulus' src='images/baseline/house7.jpg'></img></p>","null","","1550706406551","4","","","","","",""
"null","","html-keyboard-response","182","105282","0.0-6.0-5.9","27","<p><img class= 'stimulus' src='images/baseline/landscape39.jpg'></img></p>","null","","1550706406651","","","","","","",""
"null","","html-keyboard-response","183","105382","0.0-6.0-6.9","27","<p><img class= 'stimulus' src='images/baseline/04179v.jpg'></img></p>","null","","1550706406752","6","","","","","",""
"null","","html-keyboard-response","184","105482","0.0-6.0-7.9","27","<p><img class= 'stimulus' src='images/baseline/Lake 5.jpg'></img></p>","null","","1550706406852","","","","","","",""
"null","","html-keyboard-response","185","105582","0.0-6.0-8.9","27","<p><img class= 'stimulus' src='images/baseline/Sidewalk 4.jpg'></img></p>","null","","1550706406952","8","","","","","",""
"null","","html-keyboard-response","186","105683","0.0-6.0-9.9","27","<p><img class= 'stimulus' src='images/baseline/landscape4.jpg'></img></p>","null","","1550706407052","","","","","","",""
"null","","html-keyboard-response","187","105781","0.0-6.0-10.9","27","<p><img class= 'stimulus' src='images/baseline/field 1.jpg'></img></p>","null","","1550706407152","","","","","","",""
"null","","html-keyboard-response","188","105882","0.0-6.0-11.9","27","<p><img class= 'stimulus' src='images/baseline/farmhouse7.jpg'></img></p>","null","","1550706407252","","","","","","",""
"null","","html-keyboard-response","189","105983","0.0-6.0-12.9","27","<p><img class= 'stimulus' src='images/target/beach1.jpeg'></img></p>","null","","1550706407353","12","","","","","",""
"null","","html-keyboard-response","190","106082","0.0-6.0-13.9","27","<p><img class= 'stimulus' src='images/baseline/architecture-956332_1280.jpg'></img></p>","null","","1550706407452","","","","","","",""
"null","","html-keyboard-response","191","106182","0.0-6.0-14.9","27","<p><img class= 'stimulus' src='images/baseline/pexels-photo-221125.jpeg'></img></p>","null","","1550706407552","14","","","","","",""
"null","","html-keyboard-response","192","106281","0.0-6.0-15.9","27","<p><img class= 'stimulus' src='images/baseline/pexels-photo-210617.jpeg'></img></p>","null","","1550706407651","","","","","","",""
"null","","html-keyboard-response","193","106382","0.0-6.0-16.9","27","<p><img class= 'stimulus' src='images/baseline/chicago-skyline-at-night-1476869511p8U.jpg'></img></p>","null","","1550706407753","","","","","","",""
"null","","html-keyboard-response","194","106499","0.0-6.0-17.9","27","<p><img class= 'stimulus' src='images/baseline/red-rocks-park.jpg'></img></p>","null","","1550706407852","","","","","","",""
"420.0000000128057","","html-button-response","195","107921","0.0-6.0-18.9","27","<div class = ""response_question"">WAS THE IMAGE ROTATED...</div>","","3","","","4","8","bas","right","practice","true"
"390.400000003865","","html-button-response","196","108312","0.0-6.0-0.10","27","","","0","","","","","","","",""
"null","","html-keyboard-response","197","108399","0.0-6.0-1.10","27","<p><img class= 'stimulus' src='images/baseline/04201v.jpg'></img></p>","null","","1550706409768","","","","","","",""
"null","","html-keyboard-response","198","108499","0.0-6.0-2.10","27","<p><img class= 'stimulus' src='images/baseline/Beach 3.jpg'></img></p>","null","","1550706409869","","","","","","",""
"null","","html-keyboard-response","199","108599","0.0-6.0-3.10","27","<p><img class= 'stimulus' src='images/baseline/05198v.jpg'></img></p>","null","","1550706409969","","","","","","",""
"null","","html-keyboard-response","200","108699","0.0-6.0-4.10","27","<p><img class= 'stimulus' src='images/baseline/farmhouse9.jpg'></img></p>","null","","1550706410069","4","","","","","",""
"null","","html-keyboard-response","201","108800","0.0-6.0-5.10","27","<p><img class= 'stimulus' src='images/baseline/Lake 13.jpg'></img></p>","null","","1550706410169","","","","","","",""
"null","","html-keyboard-response","202","108898","0.0-6.0-6.10","27","<p><img class= 'stimulus' src='images/baseline/05189v.jpg'></img></p>","null","","1550706410269","6","","","","","",""
"null","","html-keyboard-response","203","109000","0.0-6.0-7.10","27","<p><img class= 'stimulus' src='images/baseline/05292v.jpg'></img></p>","null","","1550706410370","","","","","","",""
"null","","html-keyboard-response","204","109099","0.0-6.0-8.10","27","<p><img class= 'stimulus' src='images/target/landscape3.jpg'></img></p>","null","","1550706410469","8","","","","","",""
"null","","html-keyboard-response","205","109198","0.0-6.0-9.10","27","<p><img class= 'stimulus' src='images/baseline/03063v.jpg'></img></p>","null","","1550706410569","","","","","","",""
"null","","html-keyboard-response","206","109299","0.0-6.0-10.10","27","<p><img class= 'stimulus' src='images/baseline/landscape1.jpg'></img></p>","null","","1550706410669","","","","","","",""
"null","","html-keyboard-response","207","109398","0.0-6.0-11.10","27","<p><img class= 'stimulus' src='images/baseline/Sunset 3.jpg'></img></p>","null","","1550706410769","","","","","","",""
"null","","html-keyboard-response","208","109498","0.0-6.0-12.10","27","<p><img class= 'stimulus' src='images/baseline/landscape17.jpg'></img></p>","null","","1550706410869","12","","","","","",""
"null","","html-keyboard-response","209","109598","0.0-6.0-13.10","27","<p><img class= 'stimulus' src='images/baseline/tennis-court-net-buried-in-snow.jpg'></img></p>","null","","1550706410969","","","","","","",""
"null","","html-keyboard-response","210","109699","0.0-6.0-14.10","27","<p><img class= 'stimulus' src='images/baseline/03056v.jpg'></img></p>","null","","1550706411068","14","","","","","",""
"null","","html-keyboard-response","211","109799","0.0-6.0-15.10","27","<p><img class= 'stimulus' src='images/baseline/pexels-photo-1837621.jpeg'></img></p>","null","","1550706411169","","","","","","",""
"null","","html-keyboard-response","212","109899","0.0-6.0-16.10","27","<p><img class= 'stimulus' src='images/baseline/landscape40.jpg'></img></p>","null","","1550706411269","","","","","","",""
"null","","html-keyboard-response","213","110016","0.0-6.0-17.10","27","<p><img class= 'stimulus' src='images/baseline/Lake 7.jpg'></img></p>","null","","1550706411370","","","","","","",""
"485.8000000240281","","html-button-response","214","111505","0.0-6.0-18.10","27","<div class = ""response_question"">WAS THE IMAGE ROTATED...</div>","","3","","","6","2","bas","right","practice","true"
"510.5000000039581","","html-button-response","215","112016","0.0-6.0-0.11","27","","","0","","","","","","","",""
"null","","html-keyboard-response","216","112099","0.0-6.0-1.11","27","<p><img class= 'stimulus' src='images/baseline/03201v.jpg'></img></p>","null","","1550706413470","","","","","","",""
"null","","html-keyboard-response","217","112199","0.0-6.0-2.11","27","<p><img class= 'stimulus' src='images/baseline/04193v.jpg'></img></p>","null","","1550706413569","","","","","","",""
"null","","html-keyboard-response","218","112298","0.0-6.0-3.11","27","<p><img class= 'stimulus' src='images/baseline/building3.jpg'></img></p>","null","","1550706413669","","","","","","",""
"null","","html-keyboard-response","219","112399","0.0-6.0-4.11","27","<p><img class= 'stimulus' src='images/baseline/autumn-landscape-with-lake-fall-trees-mountains.jpg'></img></p>","null","","1550706413769","4","","","","","",""
"null","","html-keyboard-response","220","112498","0.0-6.0-5.11","27","<p><img class= 'stimulus' src='images/baseline/04021v.jpg'></img></p>","null","","1550706413869","","","","","","",""
"null","","html-keyboard-response","221","112599","0.0-6.0-6.11","27","<p><img class= 'stimulus left-rotate' src='images/target/mexico_tower_latin_american.jpg'></img></p>","null","","1550706413969","6","","","","","",""
"null","","html-keyboard-response","222","112700","0.0-6.0-7.11","27","<p><img class= 'stimulus' src='images/baseline/05186v.jpg'></img></p>","null","","1550706414070","","","","","","",""
"null","","html-keyboard-response","223","112798","0.0-6.0-8.11","27","<p><img class= 'stimulus' src='images/baseline/04117v.jpg'></img></p>","null","","1550706414169","8","","","","","",""
"null","","html-keyboard-response","224","112898","0.0-6.0-9.11","27","<p><img class= 'stimulus' src='images/baseline/sunny-landscape-with-dry-brush-and-mountain-background.jpg'></img></p>","null","","1550706414269","","","","","","",""
"null","","html-keyboard-response","225","112999","0.0-6.0-10.11","27","<p><img class= 'stimulus' src='images/baseline/lookout_tower.jpg'></img></p>","null","","1550706414369","","","","","","",""
"null","","html-keyboard-response","226","113099","0.0-6.0-11.11","27","<p><img class= 'stimulus' src='images/baseline/valley 1.jpg'></img></p>","null","","1550706414469","","","","","","",""
"null","","html-keyboard-response","227","113199","0.0-6.0-12.11","27","<p><img class= 'stimulus' src='images/baseline/seoul-410266_1920.jpg'></img></p>","null","","1550706414569","12","","","","","",""
"null","","html-keyboard-response","228","113299","0.0-6.0-13.11","27","<p><img class= 'stimulus' src='images/baseline/pexels-photo-459203.jpeg'></img></p>","null","","1550706414668","","","","","","",""
"null","","html-keyboard-response","229","113399","0.0-6.0-14.11","27","<p><img class= 'stimulus' src='images/baseline/farmhouse3.jpg'></img></p>","null","","1550706414770","14","","","","","",""
"null","","html-keyboard-response","230","113499","0.0-6.0-15.11","27","<p><img class= 'stimulus' src='images/baseline/Beach 8.jpg'></img></p>","null","","1550706414870","","","","","","",""
"null","","html-keyboard-response","231","113599","0.0-6.0-16.11","27","<p><img class= 'stimulus' src='images/baseline/landscape19.jpg'></img></p>","null","","1550706414969","","","","","","",""
"null","","html-keyboard-response","232","113715","0.0-6.0-17.11","27","<p><img class= 'stimulus' src='images/baseline/4k-wallpaper-agriculture-clouds-842711.jpg'></img></p>","null","","1550706415069","","","","","","",""
"593.9000000071246","","html-button-response","233","115312","0.0-6.0-18.11","27","<div class = ""response_question"">WAS THE IMAGE ROTATED...</div>","","0","","","4","2","bas","left","practice","true"
"470.6000000005588","","html-button-response","234","115784","0.0-6.0-0.12","27","","","0","","","","","","","",""
"null","","html-keyboard-response","235","115866","0.0-6.0-1.12","27","<p><img class= 'stimulus' src='images/baseline/pexels-photo-1054289.jpeg'></img></p>","null","","1550706417236","","","","","","",""
"null","","html-keyboard-response","236","115967","0.0-6.0-2.12","27","<p><img class= 'stimulus' src='images/baseline/Dock 1.jpg'></img></p>","null","","1550706417335","","","","","","",""
"null","","html-keyboard-response","237","116066","0.0-6.0-3.12","27","<p><img class= 'stimulus' src='images/baseline/farmhouse1.jpg'></img></p>","null","","1550706417437","","","","","","",""
"null","","html-keyboard-response","238","116166","0.0-6.0-4.12","27","<p><img class= 'stimulus' src='images/baseline/04060v.jpg'></img></p>","null","","1550706417535","4","","","","","",""
"null","","html-keyboard-response","239","116266","0.0-6.0-5.12","27","<p><img class= 'stimulus' src='images/baseline/cranes 1.jpg'></img></p>","null","","1550706417637","","","","","","",""
"null","","html-keyboard-response","240","116365","0.0-6.0-6.12","27","<p><img class= 'stimulus' src='images/baseline/03212v.jpg'></img></p>","null","","1550706417736","6","","","","","",""
"null","","html-keyboard-response","241","116466","0.0-6.0-7.12","27","<p><img class= 'stimulus' src='images/baseline/building12.jpg'></img></p>","null","","1550706417836","","","","","","",""
"null","","html-keyboard-response","242","116565","0.0-6.0-8.12","27","<p><img class= 'stimulus' src='images/baseline/05139v.jpg'></img></p>","null","","1550706417936","8","","","","","",""
"null","","html-keyboard-response","243","116665","0.0-6.0-9.12","27","<p><img class= 'stimulus' src='images/baseline/Skyscraper 2.jpg'></img></p>","null","","1550706418036","","","","","","",""
"null","","html-keyboard-response","244","116766","0.0-6.0-10.12","27","<p><img class= 'stimulus' src='images/baseline/03204v.jpg'></img></p>","null","","1550706418136","","","","","","",""
"null","","html-keyboard-response","245","116865","0.0-6.0-11.12","27","<p><img class= 'stimulus' src='images/baseline/Cold 7.jpg'></img></p>","null","","1550706418235","","","","","","",""
"null","","html-keyboard-response","246","116965","0.0-6.0-12.12","27","<p><img class= 'stimulus' src='images/baseline/04040v.jpg'></img></p>","null","","1550706418335","12","","","","","",""
"null","","html-keyboard-response","247","117067","0.0-6.0-13.12","27","<p><img class= 'stimulus' src='images/baseline/Lake 9.jpg'></img></p>","null","","1550706418436","","","","","","",""
"null","","html-keyboard-response","248","117166","0.0-6.0-14.12","27","<p><img class= 'stimulus left-rotate' src='images/target/lone-tree.png'></img></p>","null","","1550706418537","14","","","","","",""
"null","","html-keyboard-response","249","117266","0.0-6.0-15.12","27","<p><img class= 'stimulus' src='images/baseline/03217v.jpg'></img></p>","null","","1550706418635","","","","","","",""
"null","","html-keyboard-response","250","117366","0.0-6.0-16.12","27","<p><img class= 'stimulus' src='images/baseline/field 4.jpg'></img></p>","null","","1550706418736","","","","","","",""
"null","","html-keyboard-response","251","117482","0.0-6.0-17.12","27","<p><img class= 'stimulus' src='images/baseline/pexels-photo-427676.jpeg'></img></p>","null","","1550706418835","","","","","","",""
"350.29999999096617","","html-button-response","252","118828","0.0-6.0-18.12","27","<div class = ""response_question"">WAS THE IMAGE ROTATED...</div>","","3","","","6","8","bas","left","practice","false"
"590.3000000107568","","html-button-response","253","119420","0.0-6.0-0.13","27","","","0","","","","","","","",""
"null","","html-keyboard-response","254","119503","0.0-6.0-1.13","27","<p><img class= 'stimulus' src='images/baseline/Aletschgletscher-Eggishorn.jpg'></img></p>","null","","1550706420874","","","","","","",""
"null","","html-keyboard-response","255","119604","0.0-6.0-2.13","27","<p><img class= 'stimulus' src='images/baseline/building9.jpg'></img></p>","null","","1550706420974","","","","","","",""
"null","","html-keyboard-response","256","119704","0.0-6.0-3.13","27","<p><img class= 'stimulus' src='images/baseline/03114v.jpg'></img></p>","null","","1550706421074","","","","","","",""
"null","","html-keyboard-response","257","119803","0.0-6.0-4.13","27","<p><img class= 'stimulus' src='images/baseline/Street 4.jpg'></img></p>","null","","1550706421173","4","","","","","",""
"null","","html-keyboard-response","258","119903","0.0-6.0-5.13","27","<p><img class= 'stimulus' src='images/baseline/05280v.jpg'></img></p>","null","","1550706421274","","","","","","",""
"null","","html-keyboard-response","259","120004","0.0-6.0-6.13","27","<p><img class= 'stimulus' src='images/baseline/pexels-photo-894312.jpeg'></img></p>","null","","1550706421374","6","","","","","",""
"null","","html-keyboard-response","260","120103","0.0-6.0-7.13","27","<p><img class= 'stimulus' src='images/baseline/trees 23.jpg'></img></p>","null","","1550706421475","","","","","","",""
"null","","html-keyboard-response","261","120203","0.0-6.0-8.13","27","<p><img class= 'stimulus' src='images/baseline/04222v.jpg'></img></p>","null","","1550706421573","8","","","","","",""
"null","","html-keyboard-response","262","120304","0.0-6.0-9.13","27","<p><img class= 'stimulus' src='images/baseline/pexels-photo-440731.jpeg'></img></p>","null","","1550706421673","","","","","","",""
"null","","html-keyboard-response","263","120403","0.0-6.0-10.13","27","<p><img class= 'stimulus' src='images/baseline/lake 1.jpg'></img></p>","null","","1550706421774","","","","","","",""
"null","","html-keyboard-response","264","120503","0.0-6.0-11.13","27","<p><img class= 'stimulus' src='images/baseline/landscape33.jpg'></img></p>","null","","1550706421874","","","","","","",""
"null","","html-keyboard-response","265","120604","0.0-6.0-12.13","27","<p><img class= 'stimulus' src='images/baseline/landscape23.jpg'></img></p>","null","","1550706421973","12","","","","","",""
"null","","html-keyboard-response","266","120705","0.0-6.0-13.13","27","<p><img class= 'stimulus' src='images/baseline/pexels-photo-259280.jpeg'></img></p>","null","","1550706422074","","","","","","",""
"null","","html-keyboard-response","267","120803","0.0-6.0-14.13","27","<p><img class= 'stimulus' src='images/target/building3.jpg'></img></p>","null","","1550706422173","14","","","","","",""
"null","","html-keyboard-response","268","120905","0.0-6.0-15.13","27","<p><img class= 'stimulus' src='images/baseline/02962v.jpg'></img></p>","null","","1550706422273","","","","","","",""
"null","","html-keyboard-response","269","121003","0.0-6.0-16.13","27","<p><img class= 'stimulus' src='images/baseline/landscape11.jpg'></img></p>","null","","1550706422373","","","","","","",""
"null","","html-keyboard-response","270","121120","0.0-6.0-17.13","27","<p><img class= 'stimulus' src='images/baseline/landscape31.jpg'></img></p>","null","","1550706422474","","","","","","",""
"911.7000000260305","","html-button-response","271","123044","0.0-6.0-18.13","27","<div class = ""response_question"">WAS THE IMAGE ROTATED...</div>","","0","","","6","8","bas","right","practice","false"
"790.3999999980442","","html-button-response","272","123836","0.0-6.0-0.14","27","","","0","","","","","","","",""
"null","","html-keyboard-response","273","123919","0.0-6.0-1.14","27","<p><img class= 'stimulus' src='images/baseline/landscape14.jpg'></img></p>","null","","1550706425291","","","","","","",""
"null","","html-keyboard-response","274","124021","0.0-6.0-2.14","27","<p><img class= 'stimulus' src='images/baseline/house8.jpg'></img></p>","null","","1550706425391","","","","","","",""
"null","","html-keyboard-response","275","124120","0.0-6.0-3.14","27","<p><img class= 'stimulus' src='images/baseline/05303v.jpg'></img></p>","null","","1550706425490","","","","","","",""
"null","","html-keyboard-response","276","124220","0.0-6.0-4.14","27","<p><img class= 'stimulus' src='images/baseline/landscape16.jpg'></img></p>","null","","1550706425592","4","","","","","",""
"null","","html-keyboard-response","277","124320","0.0-6.0-5.14","27","<p><img class= 'stimulus' src='images/baseline/scenic-mountain-landscape.jpg'></img></p>","null","","1550706425691","","","","","","",""
"null","","html-keyboard-response","278","124420","0.0-6.0-6.14","27","<p><img class= 'stimulus' src='images/baseline/05179v.jpg'></img></p>","null","","1550706425791","6","","","","","",""
"null","","html-keyboard-response","279","124520","0.0-6.0-7.14","27","<p><img class= 'stimulus' src='images/baseline/agriculture-countryside-crop-259280.jpg'></img></p>","null","","1550706425891","","","","","","",""
"null","","html-keyboard-response","280","124620","0.0-6.0-8.14","27","<p><img class= 'stimulus' src='images/baseline/04063v.jpg'></img></p>","null","","1550706425991","8","","","","","",""
"null","","html-keyboard-response","281","124720","0.0-6.0-9.14","27","<p><img class= 'stimulus' src='images/baseline/architecture-1314416_1920.jpg'></img></p>","null","","1550706426091","","","","","","",""
"null","","html-keyboard-response","282","124821","0.0-6.0-10.14","27","<p><img class= 'stimulus' src='images/baseline/03180v.jpg'></img></p>","null","","1550706426191","","","","","","",""
"null","","html-keyboard-response","283","124920","0.0-6.0-11.14","27","<p><img class= 'stimulus' src='images/baseline/__08_-_ITALY_-_Forli_under_snow_-_winter_landscape_of_city_(christmas).jpg'></img></p>","null","","1550706426291","","","","","","",""
"null","","html-keyboard-response","284","125020","0.0-6.0-12.14","27","<p><img class= 'stimulus left-rotate' src='images/target/pexels-photo-210683.jpeg'></img></p>","null","","1550706426391","12","","","","","",""
"null","","html-keyboard-response","285","125119","0.0-6.0-13.14","27","<p><img class= 'stimulus' src='images/baseline/road.jpg'></img></p>","null","","1550706426491","","","","","","",""
"null","","html-keyboard-response","286","125221","0.0-6.0-14.14","27","<p><img class= 'stimulus' src='images/baseline/05247v.jpg'></img></p>","null","","1550706426591","14","","","","","",""
"null","","html-keyboard-response","287","125320","0.0-6.0-15.14","27","<p><img class= 'stimulus' src='images/baseline/05252v.jpg'></img></p>","null","","1550706426691","","","","","","",""
"null","","html-keyboard-response","288","125420","0.0-6.0-16.14","27","<p><img class= 'stimulus' src='images/baseline/snowy tree.jpg'></img></p>","null","","1550706426791","","","","","","",""
"null","","html-keyboard-response","289","125537","0.0-6.0-17.14","27","<p><img class= 'stimulus' src='images/baseline/landscape2.jpg'></img></p>","null","","1550706426890","","","","","","",""
"407.99999999580905","","html-button-response","290","126948","0.0-6.0-18.14","27","<div class = ""response_question"">WAS THE IMAGE ROTATED...</div>","","0","","","4","8","bas","left","practice","true"
"430.39999998291023","","html-button-response","291","127381","0.0-6.0-0.15","27","","","0","","","","","","","",""
"null","","html-keyboard-response","292","127454","0.0-6.0-1.15","27","<p><img class= 'stimulus' src='images/baseline/05242v.jpg'></img></p>","null","","1550706428824","","","","","","",""
"null","","html-keyboard-response","293","127553","0.0-6.0-2.15","27","<p><img class= 'stimulus' src='images/baseline/02945v.jpg'></img></p>","null","","1550706428924","","","","","","",""
"null","","html-keyboard-response","294","127654","0.0-6.0-3.15","27","<p><img class= 'stimulus' src='images/baseline/town-square-in-wroclaw-1539098440MZy.jpg'></img></p>","null","","1550706429024","","","","","","",""
"null","","html-keyboard-response","295","127754","0.0-6.0-4.15","27","<p><img class= 'stimulus' src='images/baseline/field 2.jpg'></img></p>","null","","1550706429124","4","","","","","",""
"null","","html-keyboard-response","296","127853","0.0-6.0-5.15","27","<p><img class= 'stimulus' src='images/baseline/Nature 1.jpg'></img></p>","null","","1550706429225","","","","","","",""
"null","","html-keyboard-response","297","127954","0.0-6.0-6.15","27","<p><img class= 'stimulus' src='images/target/fishhouse.jpg'></img></p>","null","","1550706429325","6","","","","","",""
"null","","html-keyboard-response","298","128053","0.0-6.0-7.15","27","<p><img class= 'stimulus' src='images/baseline/02971v.jpg'></img></p>","null","","1550706429424","","","","","","",""
"null","","html-keyboard-response","299","128153","0.0-6.0-8.15","27","<p><img class= 'stimulus' src='images/baseline/03066v.jpg'></img></p>","null","","1550706429524","8","","","","","",""
"null","","html-keyboard-response","300","128253","0.0-6.0-9.15","27","<p><img class= 'stimulus' src='images/baseline/landscape22.jpg'></img></p>","null","","1550706429625","","","","","","",""
"null","","html-keyboard-response","301","128354","0.0-6.0-10.15","27","<p><img class= 'stimulus' src='images/baseline/04098v.jpg'></img></p>","null","","1550706429725","","","","","","",""
"null","","html-keyboard-response","302","128453","0.0-6.0-11.15","27","<p><img class= 'stimulus' src='images/baseline/farmhouse4.jpg'></img></p>","null","","1550706429824","","","","","","",""
"null","","html-keyboard-response","303","128554","0.0-6.0-12.15","27","<p><img class= 'stimulus' src='images/baseline/Skijump 1.jpg'></img></p>","null","","1550706429924","12","","","","","",""
"null","","html-keyboard-response","304","128654","0.0-6.0-13.15","27","<p><img class= 'stimulus' src='images/baseline/04086v.jpg'></img></p>","null","","1550706430024","","","","","","",""
"null","","html-keyboard-response","305","128754","0.0-6.0-14.15","27","<p><img class= 'stimulus' src='images/baseline/pexels-photo-440731.jpeg'></img></p>","null","","1550706430125","14","","","","","",""
"null","","html-keyboard-response","306","128853","0.0-6.0-15.15","27","<p><img class= 'stimulus' src='images/baseline/Desert_View_Indian_Wells.jpg'></img></p>","null","","1550706430224","","","","","","",""
"null","","html-keyboard-response","307","128953","0.0-6.0-16.15","27","<p><img class= 'stimulus' src='images/baseline/Bahia_Onelli_Parque_Nacional_Los_Glaciares_Patagonia_Argentina_Luca_Galuzzi_2005.jpg'></img></p>","null","","1550706430324","","","","","","",""
"null","","html-keyboard-response","308","129070","0.0-6.0-17.15","27","<p><img class= 'stimulus' src='images/baseline/05158v.jpg'></img></p>","null","","1550706430425","","","","","","",""
"506.4999999885913","","html-button-response","309","130580","0.0-6.0-18.15","27","<div class = ""response_question"">WAS THE IMAGE ROTATED...</div>","","3","","","4","2","bas","right","practice","true"
"19110.50000000978","","html-button-response","310","149692","0.0-7.0","27","<p>You have now completed the practice phase. We will now begin the real trials.         This is a reminder that you will be searching for a rotated image among the series of upright images.</p>         <p>Remember, please do not blink or move your eyes while the images are on the screen.</p>         <p>At the end of the experiment, the experimenter will be able to show you how accurate you were.</p>","","0","","","","","","","",""
"3550.599999987753","","html-button-response","311","153245","0.0-8.0-0.0-0.0","27","","","0","","","","","","","",""
"null","","html-keyboard-response","312","153320","0.0-8.0-0.0-1.0","27","<p><img class= 'stimulus' src='images/baseline/trees 23.jpg'></img></p>","null","","1550706454691","","","","","","",""
"null","","html-keyboard-response","313","153420","0.0-8.0-0.0-2.0","27","<p><img class= 'stimulus' src='images/baseline/02982v.jpg'></img></p>","null","","1550706454791","","","","","","",""
"null","","html-keyboard-response","314","153520","0.0-8.0-0.0-3.0","27","<p><img class= 'stimulus' src='images/baseline/Waterfall 1.jpg'></img></p>","null","","1550706454891","","","","","","",""
"null","","html-keyboard-response","315","153621","0.0-8.0-0.0-4.0","27","<p><img class= 'stimulus' src='images/neutral/Crow 1.jpg'></img></p>","null","","1550706454991","4","","","","","",""
"null","","html-keyboard-response","316","153721","0.0-8.0-0.0-5.0","27","<p><img class= 'stimulus' src='images/baseline/pexels-photo-534164.jpeg'></img></p>","null","","1550706455091","","","","","","",""
"null","","html-keyboard-response","317","153820","0.0-8.0-0.0-6.0","27","<p><img class= 'stimulus' src='images/baseline/landscape7.jpg'></img></p>","null","","1550706455191","6","","","","","",""
"null","","html-keyboard-response","318","153920","0.0-8.0-0.0-7.0","27","<p><img class= 'stimulus' src='images/baseline/house11.jpg'></img></p>","null","","1550706455292","","","","","","",""
"null","","html-keyboard-response","319","154020","0.0-8.0-0.0-8.0","27","<p><img class= 'stimulus' src='images/baseline/Kocherbaumwald-01.jpg'></img></p>","null","","1550706455390","8","","","","","",""
"null","","html-keyboard-response","320","154120","0.0-8.0-0.0-9.0","27","<p><img class= 'stimulus' src='images/baseline/03063v.jpg'></img></p>","null","","1550706455491","","","","","","",""
"null","","html-keyboard-response","321","154221","0.0-8.0-0.0-10.0","27","<p><img class= 'stimulus' src='images/baseline/landscape3.jpg'></img></p>","null","","1550706455591","","","","","","",""
"null","","html-keyboard-response","322","154320","0.0-8.0-0.0-11.0","27","<p><img class= 'stimulus' src='images/baseline/Street 1.jpg'></img></p>","null","","1550706455691","","","","","","",""
"null","","html-keyboard-response","323","154421","0.0-8.0-0.0-12.0","27","<p><img class= 'stimulus' src='images/target/building17.jpg'></img></p>","null","","1550706455792","12","","","","","",""
"null","","html-keyboard-response","324","154521","0.0-8.0-0.0-13.0","27","<p><img class= 'stimulus' src='images/baseline/05240v.jpg'></img></p>","null","","1550706455891","","","","","","",""
"null","","html-keyboard-response","325","154620","0.0-8.0-0.0-14.0","27","<p><img class= 'stimulus' src='images/baseline/hiking-trail.jpg'></img></p>","null","","1550706455991","14","","","","","",""
"null","","html-keyboard-response","326","154721","0.0-8.0-0.0-15.0","27","<p><img class= 'stimulus' src='images/baseline/Sunset 4.jpg'></img></p>","null","","1550706456091","","","","","","",""
"null","","html-keyboard-response","327","154821","0.0-8.0-0.0-16.0","27","<p><img class= 'stimulus' src='images/baseline/architecture-956332_1280.jpg'></img></p>","null","","1550706456191","","","","","","",""
"null","","html-keyboard-response","328","154937","0.0-8.0-0.0-17.0","27","<p><img class= 'stimulus' src='images/baseline/03217v.jpg'></img></p>","null","","1550706456291","","","","","","",""
"576.0000000009313","","html-button-response","329","156517","0.0-8.0-0.0-18.0","27","<div class = ""response_question"">WAS THE IMAGE ROTATED...</div>","","3","","","4","8","neu","right","test","true"
"1046.2999999872409","","html-button-response","330","157565","0.0-8.0-0.0-0.1","27","","","0","","","","","","","",""
"null","","html-keyboard-response","331","157636","0.0-8.0-0.0-1.1","27","<p><img class= 'stimulus' src='images/baseline/pexels-photo-750108.jpeg'></img></p>","null","","1550706459007","","","","","","",""
"null","","html-keyboard-response","332","157737","0.0-8.0-0.0-2.1","27","<p><img class= 'stimulus' src='images/baseline/church-silhouette-8712964986014Kb.jpg'></img></p>","null","","1550706459108","","","","","","",""
"null","","html-keyboard-response","333","157838","0.0-8.0-0.0-3.1","27","<p><img class= 'stimulus' src='images/baseline/Skijump 1.jpg'></img></p>","null","","1550706459207","","","","","","",""
"null","","html-keyboard-response","334","157937","0.0-8.0-0.0-4.1","27","<p><img class= 'stimulus' src='images/baseline/04193v.jpg'></img></p>","null","","1550706459307","4","","","","","",""
"null","","html-keyboard-response","335","158036","0.0-8.0-0.0-5.1","27","<p><img class= 'stimulus' src='images/baseline/hills 1.jpg'></img></p>","null","","1550706459407","","","","","","",""
"null","","html-keyboard-response","336","158137","0.0-8.0-0.0-6.1","27","<p><img class= 'stimulus' src='images/baseline/Lake 3.jpg'></img></p>","null","","1550706459507","6","","","","","",""
"null","","html-keyboard-response","337","158237","0.0-8.0-0.0-7.1","27","<p><img class= 'stimulus' src='images/baseline/landscape33.jpg'></img></p>","null","","1550706459607","","","","","","",""
"null","","html-keyboard-response","338","158338","0.0-8.0-0.0-8.1","27","<p><img class= 'stimulus' src='images/baseline/pexels-photo-894312.jpeg'></img></p>","null","","1550706459707","8","","","","","",""
"null","","html-keyboard-response","339","158438","0.0-8.0-0.0-9.1","27","<p><img class= 'stimulus' src='images/baseline/landscape1.jpg'></img></p>","null","","1550706459807","","","","","","",""
"null","","html-keyboard-response","340","158538","0.0-8.0-0.0-10.1","27","<p><img class= 'stimulus' src='images/baseline/Lake 7.jpg'></img></p>","null","","1550706459909","","","","","","",""
"null","","html-keyboard-response","341","158638","0.0-8.0-0.0-11.1","27","<p><img class= 'stimulus' src='images/baseline/02962v.jpg'></img></p>","null","","1550706460008","","","","","","",""
"null","","html-keyboard-response","342","158736","0.0-8.0-0.0-12.1","27","<p><img class= 'stimulus' src='images/baseline/empire-state-building.jpg'></img></p>","null","","1550706460107","12","","","","","",""
"null","","html-keyboard-response","343","158838","0.0-8.0-0.0-13.1","27","<p><img class= 'stimulus' src='images/baseline/meadow-with-mountain-in-background.jpg'></img></p>","null","","1550706460207","","","","","","",""
"null","","html-keyboard-response","344","158938","0.0-8.0-0.0-14.1","27","<p><img class= 'stimulus' src='images/baseline/Peyto_Lake-Banff_NP-Canada.jpg'></img></p>","null","","1550706460308","14","","","","","",""
"null","","html-keyboard-response","345","159037","0.0-8.0-0.0-15.1","27","<p><img class= 'stimulus' src='images/baseline/Linden,_paysage.jpg'></img></p>","null","","1550706460408","","","","","","",""
"null","","html-keyboard-response","346","159136","0.0-8.0-0.0-16.1","27","<p><img class= 'stimulus' src='images/baseline/05303v.jpg'></img></p>","null","","1550706460508","","","","","","",""
"null","","html-keyboard-response","347","159254","0.0-8.0-0.0-17.1","27","<p><img class= 'stimulus' src='images/baseline/Lake 9.jpg'></img></p>","null","","1550706460607","","","","","","",""
"2444.6000000170898","","html-button-response","348","162717","0.0-8.0-0.0-18.1","27","<div class = ""response_question"">WAS THE IMAGE ROTATED...</div>","","4","","","null","null","null","null","test","null"
"518.1999999913387","","html-button-response","349","163236","0.0-8.0-0.0-0.2","27","","","0","","","","","","","",""
"null","","html-keyboard-response","350","163320","0.0-8.0-0.0-1.2","27","<p><img class= 'stimulus' src='images/baseline/Camping 10.jpg'></img></p>","null","","1550706464691","","","","","","",""
"null","","html-keyboard-response","351","163421","0.0-8.0-0.0-2.2","27","<p><img class= 'stimulus' src='images/baseline/03204v.jpg'></img></p>","null","","1550706464790","","","","","","",""
"null","","html-keyboard-response","352","163521","0.0-8.0-0.0-3.2","27","<p><img class= 'stimulus' src='images/baseline/landscape37.jpg'></img></p>","null","","1550706464891","","","","","","",""
"null","","html-keyboard-response","353","163620","0.0-8.0-0.0-4.2","27","<p><img class= 'stimulus' src='images/baseline/house1.jpg'></img></p>","null","","1550706464991","4","","","","","",""
"null","","html-keyboard-response","354","163720","0.0-8.0-0.0-5.2","27","<p><img class= 'stimulus' src='images/baseline/Lake 16.jpg'></img></p>","null","","1550706465092","","","","","","",""
"null","","html-keyboard-response","355","163821","0.0-8.0-0.0-6.2","27","<p><img class= 'stimulus' src='images/baseline/04063v.jpg'></img></p>","null","","1550706465191","6","","","","","",""
"null","","html-keyboard-response","356","163920","0.0-8.0-0.0-7.2","27","<p><img class= 'stimulus' src='images/baseline/landscape39.jpg'></img></p>","null","","1550706465290","","","","","","",""
"null","","html-keyboard-response","357","164020","0.0-8.0-0.0-8.2","27","<p><img class= 'stimulus' src='images/baseline/flooded-bridge.jpg'></img></p>","null","","1550706465391","8","","","","","",""
"null","","html-keyboard-response","358","164121","0.0-8.0-0.0-9.2","27","<p><img class= 'stimulus' src='images/baseline/landscape23.jpg'></img></p>","null","","1550706465490","","","","","","",""
"null","","html-keyboard-response","359","164221","0.0-8.0-0.0-10.2","27","<p><img class= 'stimulus' src='images/baseline/grand-teton-mountains.jpg'></img></p>","null","","1550706465591","","","","","","",""
"null","","html-keyboard-response","360","164320","0.0-8.0-0.0-11.2","27","<p><img class= 'stimulus' src='images/baseline/Sunset 3.jpg'></img></p>","null","","1550706465691","","","","","","",""
"null","","html-keyboard-response","361","164421","0.0-8.0-0.0-12.2","27","<p><img class= 'stimulus' src='images/baseline/04179v.jpg'></img></p>","null","","1550706465792","12","","","","","",""
"null","","html-keyboard-response","362","164521","0.0-8.0-0.0-13.2","27","<p><img class= 'stimulus' src='images/baseline/4k-wallpaper-agriculture-clouds-842711.jpg'></img></p>","null","","1550706465890","","","","","","",""
"null","","html-keyboard-response","363","164621","0.0-8.0-0.0-14.2","27","<p><img class= 'stimulus left-rotate' src='images/target/building2.jpg'></img></p>","null","","1550706465991","14","","","","","",""
"null","","html-keyboard-response","364","164721","0.0-8.0-0.0-15.2","27","<p><img class= 'stimulus' src='images/baseline/04162v.jpg'></img></p>","null","","1550706466091","","","","","","",""
"null","","html-keyboard-response","365","164820","0.0-8.0-0.0-16.2","27","<p><img class= 'stimulus' src='images/baseline/03212v.jpg'></img></p>","null","","1550706466192","","","","","","",""
"null","","html-keyboard-response","366","164937","0.0-8.0-0.0-17.2","27","<p><img class= 'stimulus' src='images/baseline/dirt-road-or-trail-through-park.jpg'></img></p>","null","","1550706466291","","","","","","",""
"480.70000001462176","","html-button-response","367","166421","0.0-8.0-0.0-18.2","27","<div class = ""response_question"">WAS THE IMAGE ROTATED...</div>","","0","","","6","8","bas","left","test","true"
"2142.200000002049","","html-button-response","368","168564","0.0-8.0-0.0-0.3","27","","","0","","","","","","","",""
"null","","html-keyboard-response","369","168638","0.0-8.0-0.0-1.3","27","<p><img class= 'stimulus' src='images/baseline/__08_-_ITALY_-_Forli_under_snow_-_winter_landscape_of_city_(christmas).jpg'></img></p>","null","","1550706470007","","","","","","",""
"null","","html-keyboard-response","370","168737","0.0-8.0-0.0-2.3","27","<p><img class= 'stimulus' src='images/baseline/building4.jpg'></img></p>","null","","1550706470108","","","","","","",""
"null","","html-keyboard-response","371","168838","0.0-8.0-0.0-3.3","27","<p><img class= 'stimulus' src='images/baseline/landscape22.jpg'></img></p>","null","","1550706470207","","","","","","",""
"null","","html-keyboard-response","372","168936","0.0-8.0-0.0-4.3","27","<p><img class= 'stimulus' src='images/baseline/cyrillic.jpg'></img></p>","null","","1550706470308","4","","","","","",""
"null","","html-keyboard-response","373","169038","0.0-8.0-0.0-5.3","27","<p><img class= 'stimulus' src='images/baseline/05145v.jpg'></img></p>","null","","1550706470408","","","","","","",""
"null","","html-keyboard-response","374","169138","0.0-8.0-0.0-6.3","27","<p><img class= 'stimulus' src='images/baseline/04021v.jpg'></img></p>","null","","1550706470509","6","","","","","",""
"null","","html-keyboard-response","375","169236","0.0-8.0-0.0-7.3","27","<p><img class= 'stimulus' src='images/baseline/Lake 5.jpg'></img></p>","null","","1550706470607","","","","","","",""
"null","","html-keyboard-response","376","169338","0.0-8.0-0.0-8.3","27","<p><img class= 'stimulus' src='images/baseline/pexels-photo-1287089.jpeg'></img></p>","null","","1550706470707","8","","","","","",""
"null","","html-keyboard-response","377","169437","0.0-8.0-0.0-9.3","27","<p><img class= 'stimulus' src='images/baseline/valley 1.jpg'></img></p>","null","","1550706470808","","","","","","",""
"null","","html-keyboard-response","378","169537","0.0-8.0-0.0-10.3","27","<p><img class= 'stimulus' src='images/baseline/house7.jpg'></img></p>","null","","1550706470908","","","","","","",""
"null","","html-keyboard-response","379","169637","0.0-8.0-0.0-11.3","27","<p><img class= 'stimulus' src='images/baseline/lake 1.jpg'></img></p>","null","","1550706471008","","","","","","",""
"null","","html-keyboard-response","380","169738","0.0-8.0-0.0-12.3","27","<p><img class= 'stimulus' src='images/baseline/town-square-in-wroclaw-1539098440MZy.jpg'></img></p>","null","","1550706471108","12","","","","","",""
"null","","html-keyboard-response","381","169838","0.0-8.0-0.0-13.3","27","<p><img class= 'stimulus' src='images/baseline/pexels-photo-1837621.jpeg'></img></p>","null","","1550706471207","","","","","","",""
"null","","html-keyboard-response","382","169938","0.0-8.0-0.0-14.3","27","<p><img class= 'stimulus left-rotate' src='images/target/cactus2.jpg'></img></p>","null","","1550706471308","14","","","","","",""
"null","","html-keyboard-response","383","170037","0.0-8.0-0.0-15.3","27","<p><img class= 'stimulus' src='images/baseline/chicago-skyline-at-night-1476869511p8U.jpg'></img></p>","null","","1550706471408","","","","","","",""
"null","","html-keyboard-response","384","170136","0.0-8.0-0.0-16.3","27","<p><img class= 'stimulus' src='images/baseline/Street 3.jpg'></img></p>","null","","1550706471509","","","","","","",""
"null","","html-keyboard-response","385","170253","0.0-8.0-0.0-17.3","27","<p><img class= 'stimulus' src='images/baseline/04060v.jpg'></img></p>","null","","1550706471608","","","","","","",""
"443.2999999844469","","html-button-response","386","171700","0.0-8.0-0.0-18.3","27","<div class = ""response_question"">WAS THE IMAGE ROTATED...</div>","","0","","","6","8","bas","left","test","true"
"2286.499999987427","","html-button-response","387","173988","0.0-8.0-0.0-0.4","27","","","0","","","","","","","",""
"null","","html-keyboard-response","388","174071","0.0-8.0-0.0-1.4","27","<p><img class= 'stimulus' src='images/baseline/05279v.jpg'></img></p>","null","","1550706475440","","","","","","",""
"null","","html-keyboard-response","389","174170","0.0-8.0-0.0-2.4","27","<p><img class= 'stimulus' src='images/baseline/05264v.jpg'></img></p>","null","","1550706475541","","","","","","",""
"null","","html-keyboard-response","390","174271","0.0-8.0-0.0-3.4","27","<p><img class= 'stimulus' src='images/baseline/red rocks from afar.jpg'></img></p>","null","","1550706475641","","","","","","",""
"null","","html-keyboard-response","391","174371","0.0-8.0-0.0-4.4","27","<p><img class= 'stimulus' src='images/baseline/Beach 3.jpg'></img></p>","null","","1550706475741","4","","","","","",""
"null","","html-keyboard-response","392","174471","0.0-8.0-0.0-5.4","27","<p><img class= 'stimulus' src='images/baseline/04130v.jpg'></img></p>","null","","1550706475841","","","","","","",""
"null","","html-keyboard-response","393","174570","0.0-8.0-0.0-6.4","27","<p><img class= 'stimulus' src='images/baseline/Road 1.jpg'></img></p>","null","","1550706475941","6","","","","","",""
"null","","html-keyboard-response","394","174671","0.0-8.0-0.0-7.4","27","<p><img class= 'stimulus' src='images/baseline/03098v.jpg'></img></p>","null","","1550706476041","","","","","","",""
"null","","html-keyboard-response","395","174771","0.0-8.0-0.0-8.4","27","<p><img class= 'stimulus' src='images/baseline/02977v.jpg'></img></p>","null","","1550706476142","8","","","","","",""
"null","","html-keyboard-response","396","174870","0.0-8.0-0.0-9.4","27","<p><img class= 'stimulus' src='images/baseline/02947v.jpg'></img></p>","null","","1550706476243","","","","","","",""
"null","","html-keyboard-response","397","174971","0.0-8.0-0.0-10.4","27","<p><img class= 'stimulus' src='images/baseline/house8.jpg'></img></p>","null","","1550706476340","","","","","","",""
"null","","html-keyboard-response","398","175070","0.0-8.0-0.0-11.4","27","<p><img class= 'stimulus' src='images/baseline/03148v.jpg'></img></p>","null","","1550706476441","","","","","","",""
"null","","html-keyboard-response","399","175170","0.0-8.0-0.0-12.4","27","<p><img class= 'stimulus' src='images/baseline/landscape4.jpg'></img></p>","null","","1550706476541","12","","","","","",""
"null","","html-keyboard-response","400","175271","0.0-8.0-0.0-13.4","27","<p><img class= 'stimulus' src='images/baseline/building16.jpg'></img></p>","null","","1550706476642","","","","","","",""
"null","","html-keyboard-response","401","175371","0.0-8.0-0.0-14.4","27","<p><img class= 'stimulus' src='images/target/lookout_tower.jpg'></img></p>","null","","1550706476741","14","","","","","",""
"null","","html-keyboard-response","402","175471","0.0-8.0-0.0-15.4","27","<p><img class= 'stimulus' src='images/baseline/Nature 2.jpg'></img></p>","null","","1550706476841","","","","","","",""
"null","","html-keyboard-response","403","175571","0.0-8.0-0.0-16.4","27","<p><img class= 'stimulus' src='images/baseline/landscape6.jpg'></img></p>","null","","1550706476942","","","","","","",""
"null","","html-keyboard-response","404","175687","0.0-8.0-0.0-17.4","27","<p><img class= 'stimulus' src='images/baseline/building12.jpg'></img></p>","null","","1550706477041","","","","","","",""
"376.7999999981839","","html-button-response","405","177068","0.0-8.0-0.0-18.4","27","<div class = ""response_question"">WAS THE IMAGE ROTATED...</div>","","3","","","6","8","bas","right","test","true"
"2046.200000011595","","html-button-response","406","179118","0.0-8.0-0.0-0.5","27","","","0","","","","","","","",""
"null","","html-keyboard-response","407","179189","0.0-8.0-0.0-1.5","27","<p><img class= 'stimulus' src='images/baseline/lake3.jpg'></img></p>","null","","1550706480560","","","","","","",""
"null","","html-keyboard-response","408","179288","0.0-8.0-0.0-2.5","27","<p><img class= 'stimulus' src='images/baseline/Nature 1.jpg'></img></p>","null","","1550706480660","","","","","","",""
"null","","html-keyboard-response","409","179389","0.0-8.0-0.0-3.5","27","<p><img class= 'stimulus' src='images/baseline/field 3.jpg'></img></p>","null","","1550706480759","","","","","","",""
"null","","html-keyboard-response","410","179489","0.0-8.0-0.0-4.5","27","<p><img class= 'stimulus' src='images/baseline/cranes 1.jpg'></img></p>","null","","1550706480861","4","","","","","",""
"null","","html-keyboard-response","411","179589","0.0-8.0-0.0-5.5","27","<p><img class= 'stimulus' src='images/baseline/building5.jpg'></img></p>","null","","1550706480960","","","","","","",""
"null","","html-keyboard-response","412","179688","0.0-8.0-0.0-6.5","27","<p><img class= 'stimulus' src='images/baseline/sunny-landscape-with-dry-brush-and-mountain-background.jpg'></img></p>","null","","1550706481059","6","","","","","",""
"null","","html-keyboard-response","413","179789","0.0-8.0-0.0-7.5","27","<p><img class= 'stimulus' src='images/baseline/architecture-1314416_1920.jpg'></img></p>","null","","1550706481159","","","","","","",""
"null","","html-keyboard-response","414","179889","0.0-8.0-0.0-8.5","27","<p><img class= 'stimulus' src='images/baseline/05247v.jpg'></img></p>","null","","1550706481258","8","","","","","",""
"null","","html-keyboard-response","415","179989","0.0-8.0-0.0-9.5","27","<p><img class= 'stimulus' src='images/baseline/pexels-photo-459203.jpeg'></img></p>","null","","1550706481359","","","","","","",""
"null","","html-keyboard-response","416","180089","0.0-8.0-0.0-10.5","27","<p><img class= 'stimulus' src='images/baseline/Niinsaare_jarv.jpg'></img></p>","null","","1550706481459","","","","","","",""
"null","","html-keyboard-response","417","180189","0.0-8.0-0.0-11.5","27","<p><img class= 'stimulus' src='images/baseline/horse_statue.jpg'></img></p>","null","","1550706481559","","","","","","",""
"null","","html-keyboard-response","418","180289","0.0-8.0-0.0-12.5","27","<p><img class= 'stimulus' src='images/baseline/lone-old-cottonwood-tree.jpg'></img></p>","null","","1550706481659","12","","","","","",""
"null","","html-keyboard-response","419","180388","0.0-8.0-0.0-13.5","27","<p><img class= 'stimulus' src='images/baseline/field 1.jpg'></img></p>","null","","1550706481759","","","","","","",""
"null","","html-keyboard-response","420","180488","0.0-8.0-0.0-14.5","27","<p><img class= 'stimulus left-rotate' src='images/target/building1.jpg'></img></p>","null","","1550706481859","14","","","","","",""
"null","","html-keyboard-response","421","180588","0.0-8.0-0.0-15.5","27","<p><img class= 'stimulus' src='images/baseline/05139v.jpg'></img></p>","null","","1550706481960","","","","","","",""
"null","","html-keyboard-response","422","180689","0.0-8.0-0.0-16.5","27","<p><img class= 'stimulus' src='images/baseline/building3.jpg'></img></p>","null","","1550706482060","","","","","","",""
"null","","html-keyboard-response","423","180806","0.0-8.0-0.0-17.5","27","<p><img class= 'stimulus' src='images/baseline/lookout_tower.jpg'></img></p>","null","","1550706482159","","","","","","",""
"516.0000000032596","","html-button-response","424","182326","0.0-8.0-0.0-18.5","27","<div class = ""response_question"">WAS THE IMAGE ROTATED...</div>","","0","","","6","8","bas","left","test","true"
"2390.6000000133645","","html-button-response","425","184718","0.0-8.0-0.0-0.6","27","","","0","","","","","","","",""
"null","","html-keyboard-response","426","184807","0.0-8.0-0.0-1.6","27","<p><img class= 'stimulus' src='images/baseline/05179v.jpg'></img></p>","null","","1550706486176","","","","","","",""
"null","","html-keyboard-response","427","184906","0.0-8.0-0.0-2.6","27","<p><img class= 'stimulus' src='images/baseline/05189v.jpg'></img></p>","null","","1550706486277","","","","","","",""
"null","","html-keyboard-response","428","185005","0.0-8.0-0.0-3.6","27","<p><img class= 'stimulus' src='images/baseline/autumn-in-red-rocks-park.jpg'></img></p>","null","","1550706486376","","","","","","",""
"null","","html-keyboard-response","429","185106","0.0-8.0-0.0-4.6","27","<p><img class= 'stimulus' src='images/baseline/02945v.jpg'></img></p>","null","","1550706486477","4","","","","","",""
"null","","html-keyboard-response","430","185206","0.0-8.0-0.0-5.6","27","<p><img class= 'stimulus' src='images/baseline/03066v.jpg'></img></p>","null","","1550706486576","","","","","","",""
"null","","html-keyboard-response","431","185306","0.0-8.0-0.0-6.6","27","<p><img class= 'stimulus' src='images/negative/Weapon 1 (1).jpg'></img></p>","null","","1550706486675","6","","","","","",""
"null","","html-keyboard-response","432","185406","0.0-8.0-0.0-7.6","27","<p><img class= 'stimulus' src='images/baseline/03220v.jpg'></img></p>","null","","1550706486775","","","","","","",""
"null","","html-keyboard-response","433","185506","0.0-8.0-0.0-8.6","27","<p><img class= 'stimulus' src='images/baseline/Grass 6.jpg'></img></p>","null","","1550706486877","8","","","","","",""
"null","","html-keyboard-response","434","185605","0.0-8.0-0.0-9.6","27","<p><img class= 'stimulus' src='images/baseline/farmhouse7.jpg'></img></p>","null","","1550706486977","","","","","","",""
"null","","html-keyboard-response","435","185705","0.0-8.0-0.0-10.6","27","<p><img class= 'stimulus' src='images/baseline/Beach 8.jpg'></img></p>","null","","1550706487076","","","","","","",""
"null","","html-keyboard-response","436","185805","0.0-8.0-0.0-11.6","27","<p><img class= 'stimulus' src='images/baseline/landscape29.jpg'></img></p>","null","","1550706487177","","","","","","",""
"null","","html-keyboard-response","437","185906","0.0-8.0-0.0-12.6","27","<p><img class= 'stimulus' src='images/baseline/landscape15.jpg'></img></p>","null","","1550706487276","12","","","","","",""
"null","","html-keyboard-response","438","186005","0.0-8.0-0.0-13.6","27","<p><img class= 'stimulus' src='images/baseline/snowy tree.jpg'></img></p>","null","","1550706487376","","","","","","",""
"null","","html-keyboard-response","439","186106","0.0-8.0-0.0-14.6","27","<p><img class= 'stimulus left-rotate' src='images/target/torrotito-375925_640.jpg'></img></p>","null","","1550706487476","14","","","","","",""
"null","","html-keyboard-response","440","186206","0.0-8.0-0.0-15.6","27","<p><img class= 'stimulus' src='images/baseline/02988v.jpg'></img></p>","null","","1550706487575","","","","","","",""
"null","","html-keyboard-response","441","186305","0.0-8.0-0.0-16.6","27","<p><img class= 'stimulus' src='images/baseline/Happy pose 3.jpg'></img></p>","null","","1550706487676","","","","","","",""
"null","","html-keyboard-response","442","186423","0.0-8.0-0.0-17.6","27","<p><img class= 'stimulus' src='images/baseline/agriculture-cereal-clouds-175389.jpg'></img></p>","null","","1550706487776","","","","","","",""
"495.0000000244472","","html-button-response","443","187934","0.0-8.0-0.0-18.6","27","<div class = ""response_question"">WAS THE IMAGE ROTATED...</div>","","0","","","6","8","neg","left","test","true"
"2590.4999999911524","","html-button-response","444","190526","0.0-8.0-0.0-0.7","27","","","0","","","","","","","",""
"null","","html-keyboard-response","445","190606","0.0-8.0-0.0-1.7","27","<p><img class= 'stimulus' src='images/baseline/04117v.jpg'></img></p>","null","","1550706491976","","","","","","",""
"null","","html-keyboard-response","446","190706","0.0-8.0-0.0-2.7","27","<p><img class= 'stimulus' src='images/baseline/landscape17.jpg'></img></p>","null","","1550706492076","","","","","","",""
"null","","html-keyboard-response","447","190806","0.0-8.0-0.0-3.7","27","<p><img class= 'stimulus' src='images/baseline/04086v.jpg'></img></p>","null","","1550706492177","","","","","","",""
"null","","html-keyboard-response","448","190906","0.0-8.0-0.0-4.7","27","<p><img class= 'stimulus' src='images/baseline/landscape16.jpg'></img></p>","null","","1550706492276","4","","","","","",""
"null","","html-keyboard-response","449","191005","0.0-8.0-0.0-5.7","27","<p><img class= 'stimulus' src='images/baseline/04010v.jpg'></img></p>","null","","1550706492376","","","","","","",""
"null","","html-keyboard-response","450","191105","0.0-8.0-0.0-6.7","27","<p><img class= 'stimulus' src='images/negative/Car accident 4.jpg'></img></p>","null","","1550706492476","6","","","","","",""
"null","","html-keyboard-response","451","191205","0.0-8.0-0.0-7.7","27","<p><img class= 'stimulus' src='images/baseline/05242v.jpg'></img></p>","null","","1550706492576","","","","","","",""
"null","","html-keyboard-response","452","191306","0.0-8.0-0.0-8.7","27","<p><img class= 'stimulus' src='images/target/dreifaltigkeitskirche_sandhausen_837699.jpg'></img></p>","null","","1550706492675","8","","","","","",""
"null","","html-keyboard-response","453","191406","0.0-8.0-0.0-9.7","27","<p><img class= 'stimulus' src='images/baseline/Street 4.jpg'></img></p>","null","","1550706492776","","","","","","",""
"null","","html-keyboard-response","454","191506","0.0-8.0-0.0-10.7","27","<p><img class= 'stimulus' src='images/baseline/pexels-photo-414491.jpeg'></img></p>","null","","1550706492876","","","","","","",""
"null","","html-keyboard-response","455","191606","0.0-8.0-0.0-11.7","27","<p><img class= 'stimulus' src='images/baseline/pexels-photo-280222.jpeg'></img></p>","null","","1550706492976","","","","","","",""
"null","","html-keyboard-response","456","191707","0.0-8.0-0.0-12.7","27","<p><img class= 'stimulus' src='images/baseline/pexels-photo-808465.jpeg'></img></p>","null","","1550706493076","12","","","","","",""
"null","","html-keyboard-response","457","191805","0.0-8.0-0.0-13.7","27","<p><img class= 'stimulus' src='images/baseline/05292v.jpg'></img></p>","null","","1550706493176","","","","","","",""
"null","","html-keyboard-response","458","191906","0.0-8.0-0.0-14.7","27","<p><img class= 'stimulus' src='images/baseline/farmhouse1.jpg'></img></p>","null","","1550706493276","14","","","","","",""
"null","","html-keyboard-response","459","192005","0.0-8.0-0.0-15.7","27","<p><img class= 'stimulus' src='images/baseline/04158v.jpg'></img></p>","null","","1550706493376","","","","","","",""
"null","","html-keyboard-response","460","192105","0.0-8.0-0.0-16.7","27","<p><img class= 'stimulus' src='images/baseline/landscape14.jpg'></img></p>","null","","1550706493477","","","","","","",""
"null","","html-keyboard-response","461","192222","0.0-8.0-0.0-17.7","27","<p><img class= 'stimulus' src='images/baseline/farmhouse8.jpg'></img></p>","null","","1550706493576","","","","","","",""
"460.0999999966007","","html-button-response","462","193686","0.0-8.0-0.0-18.7","27","<div class = ""response_question"">WAS THE IMAGE ROTATED...</div>","","3","","","6","2","neg","right","test","true"
"1445.7000000111293","","html-button-response","463","195134","0.0-8.0-0.0-0.8","27","","","0","","","","","","","",""
"null","","html-keyboard-response","464","195205","0.0-8.0-0.0-1.8","27","<p><img class= 'stimulus' src='images/baseline/scenic-mountain-landscape.jpg'></img></p>","null","","1550706496576","","","","","","",""
"null","","html-keyboard-response","465","195306","0.0-8.0-0.0-2.8","27","<p><img class= 'stimulus' src='images/baseline/03180v.jpg'></img></p>","null","","1550706496676","","","","","","",""
"null","","html-keyboard-response","466","195405","0.0-8.0-0.0-3.8","27","<p><img class= 'stimulus' src='images/baseline/pexels-photo-351264.jpeg'></img></p>","null","","1550706496775","","","","","","",""
"null","","html-keyboard-response","467","195506","0.0-8.0-0.0-4.8","27","<p><img class= 'stimulus' src='images/baseline/red-rocks-park.jpg'></img></p>","null","","1550706496876","4","","","","","",""
"null","","html-keyboard-response","468","195606","0.0-8.0-0.0-5.8","27","<p><img class= 'stimulus' src='images/baseline/Paysage_karabagh_02.jpg'></img></p>","null","","1550706496975","","","","","","",""
"null","","html-keyboard-response","469","195705","0.0-8.0-0.0-6.8","27","<p><img class= 'stimulus' src='images/neutral/mule-deer-doe1.jpg'></img></p>","null","","1550706497076","6","","","","","",""
"null","","html-keyboard-response","470","195806","0.0-8.0-0.0-7.8","27","<p><img class= 'stimulus' src='images/baseline/Paysage_enneige_02.jpg'></img></p>","null","","1550706497176","","","","","","",""
"null","","html-keyboard-response","471","195906","0.0-8.0-0.0-8.8","27","<p><img class= 'stimulus' src='images/baseline/03045v.jpg'></img></p>","null","","1550706497276","8","","","","","",""
"null","","html-keyboard-response","472","196006","0.0-8.0-0.0-9.8","27","<p><img class= 'stimulus' src='images/baseline/pexels-photo-221125.jpeg'></img></p>","null","","1550706497376","","","","","","",""
"null","","html-keyboard-response","473","196105","0.0-8.0-0.0-10.8","27","<p><img class= 'stimulus' src='images/baseline/Sunset 6.jpg'></img></p>","null","","1550706497476","","","","","","",""
"null","","html-keyboard-response","474","196206","0.0-8.0-0.0-11.8","27","<p><img class= 'stimulus' src='images/baseline/landscape2.jpg'></img></p>","null","","1550706497576","","","","","","",""
"null","","html-keyboard-response","475","196305","0.0-8.0-0.0-12.8","27","<p><img class= 'stimulus' src='images/baseline/05255v.jpg'></img></p>","null","","1550706497676","12","","","","","",""
"null","","html-keyboard-response","476","196405","0.0-8.0-0.0-13.8","27","<p><img class= 'stimulus' src='images/baseline/Aletschgletscher-Eggishorn.jpg'></img></p>","null","","1550706497776","","","","","","",""
"null","","html-keyboard-response","477","196505","0.0-8.0-0.0-14.8","27","<p><img class= 'stimulus' src='images/target/buildin.png'></img></p>","null","","1550706497876","14","","","","","",""
"null","","html-keyboard-response","478","196606","0.0-8.0-0.0-15.8","27","<p><img class= 'stimulus' src='images/baseline/house2.jpg'></img></p>","null","","1550706497976","","","","","","",""
"null","","html-keyboard-response","479","196706","0.0-8.0-0.0-16.8","27","<p><img class= 'stimulus' src='images/baseline/vintage-art-deco-storefront.jpg'></img></p>","null","","1550706498076","","","","","","",""
"null","","html-keyboard-response","480","196822","0.0-8.0-0.0-17.8","27","<p><img class= 'stimulus' src='images/baseline/geese-flying-over-lake-at-dusk.jpg'></img></p>","null","","1550706498176","","","","","","",""
"1807.6000000000931","","html-button-response","481","199646","0.0-8.0-0.0-18.8","27","<div class = ""response_question"">WAS THE IMAGE ROTATED...</div>","","5","","","6","8","neu","right","test","false"
"2422.099999996135","","html-button-response","482","202071","0.0-8.0-0.0-0.9","27","","","0","","","","","","","",""
"null","","html-keyboard-response","483","202156","0.0-8.0-0.0-1.9","27","<p><img class= 'stimulus' src='images/baseline/landscape38.jpg'></img></p>","null","","1550706503527","","","","","","",""
"null","","html-keyboard-response","484","202255","0.0-8.0-0.0-2.9","27","<p><img class= 'stimulus' src='images/baseline/03162v.jpg'></img></p>","null","","1550706503626","","","","","","",""
"null","","html-keyboard-response","485","202356","0.0-8.0-0.0-3.9","27","<p><img class= 'stimulus' src='images/baseline/agriculture-countryside-crop-259280.jpg'></img></p>","null","","1550706503727","","","","","","",""
"null","","html-keyboard-response","486","202456","0.0-8.0-0.0-4.9","27","<p><img class= 'stimulus' src='images/negative/Bloody knife 2.jpg'></img></p>","null","","1550706503827","4","","","","","",""
"null","","html-keyboard-response","487","202555","0.0-8.0-0.0-5.9","27","<p><img class= 'stimulus' src='images/baseline/Street 2.jpg'></img></p>","null","","1550706503927","","","","","","",""
"null","","html-keyboard-response","488","202656","0.0-8.0-0.0-6.9","27","<p><img class= 'stimulus left-rotate' src='images/target/adventure-desert-landscape-6778.jpg'></img></p>","null","","1550706504025","6","","","","","",""
"null","","html-keyboard-response","489","202755","0.0-8.0-0.0-7.9","27","<p><img class= 'stimulus' src='images/baseline/farmhouse11.jpg'></img></p>","null","","1550706504126","","","","","","",""
"null","","html-keyboard-response","490","202856","0.0-8.0-0.0-8.9","27","<p><img class= 'stimulus' src='images/baseline/field 2.jpg'></img></p>","null","","1550706504226","8","","","","","",""
"null","","html-keyboard-response","491","202956","0.0-8.0-0.0-9.9","27","<p><img class= 'stimulus' src='images/baseline/pexels-photo-1054289.jpeg'></img></p>","null","","1550706504327","","","","","","",""
"null","","html-keyboard-response","492","203056","0.0-8.0-0.0-10.9","27","<p><img class= 'stimulus' src='images/baseline/03201v.jpg'></img></p>","null","","1550706504426","","","","","","",""
"null","","html-keyboard-response","493","203156","0.0-8.0-0.0-11.9","27","<p><img class= 'stimulus' src='images/baseline/landscape40.jpg'></img></p>","null","","1550706504527","","","","","","",""
"null","","html-keyboard-response","494","203255","0.0-8.0-0.0-12.9","27","<p><img class= 'stimulus' src='images/baseline/05280v.jpg'></img></p>","null","","1550706504626","12","","","","","",""
"null","","html-keyboard-response","495","203356","0.0-8.0-0.0-13.9","27","<p><img class= 'stimulus' src='images/baseline/bird-flying-at-sunset.jpg'></img></p>","null","","1550706504726","","","","","","",""
"null","","html-keyboard-response","496","203456","0.0-8.0-0.0-14.9","27","<p><img class= 'stimulus' src='images/baseline/Dirt 2.jpg'></img></p>","null","","1550706504827","14","","","","","",""
"null","","html-keyboard-response","497","203557","0.0-8.0-0.0-15.9","27","<p><img class= 'stimulus' src='images/baseline/03075v.jpg'></img></p>","null","","1550706504927","","","","","","",""
"null","","html-keyboard-response","498","203656","0.0-8.0-0.0-16.9","27","<p><img class= 'stimulus' src='images/baseline/03056v.jpg'></img></p>","null","","1550706505026","","","","","","",""
"null","","html-keyboard-response","499","203773","0.0-8.0-0.0-17.9","27","<p><img class= 'stimulus' src='images/baseline/04064v.jpg'></img></p>","null","","1550706505126","","","","","","",""
"558.6000000184868","","html-button-response","500","205334","0.0-8.0-0.0-18.9","27","<div class = ""response_question"">WAS THE IMAGE ROTATED...</div>","","0","","","4","2","neg","left","test","true"
"1918.2999999902677","","html-button-response","501","207253","0.0-8.0-0.0-0.10","27","","","0","","","","","","","",""
"null","","html-keyboard-response","502","207341","0.0-8.0-0.0-1.10","27","<p><img class= 'stimulus' src='images/baseline/landscape19.jpg'></img></p>","null","","1550706508710","","","","","","",""
"null","","html-keyboard-response","503","207440","0.0-8.0-0.0-2.10","27","<p><img class= 'stimulus' src='images/baseline/pexels-photo-568236.jpeg'></img></p>","null","","1550706508809","","","","","","",""
"null","","html-keyboard-response","504","207539","0.0-8.0-0.0-3.10","27","<p><img class= 'stimulus' src='images/baseline/03112v.jpg'></img></p>","null","","1550706508909","","","","","","",""
"null","","html-keyboard-response","505","207639","0.0-8.0-0.0-4.10","27","<p><img class= 'stimulus' src='images/baseline/foreclosed_home.jpg'></img></p>","null","","1550706509009","4","","","","","",""
"null","","html-keyboard-response","506","207740","0.0-8.0-0.0-5.10","27","<p><img class= 'stimulus' src='images/baseline/sun-through-winter-tree-branches1.jpg'></img></p>","null","","1550706509109","","","","","","",""
"null","","html-keyboard-response","507","207839","0.0-8.0-0.0-6.10","27","<p><img class= 'stimulus' src='images/neutral/horse.png'></img></p>","null","","1550706509210","6","","","","","",""
"null","","html-keyboard-response","508","207939","0.0-8.0-0.0-7.10","27","<p><img class= 'stimulus' src='images/baseline/Skyscraper 1.jpg'></img></p>","null","","1550706509310","","","","","","",""
"null","","html-keyboard-response","509","208039","0.0-8.0-0.0-8.10","27","<p><img class= 'stimulus' src='images/target/mitre peak.jpg'></img></p>","null","","1550706509409","8","","","","","",""
"null","","html-keyboard-response","510","208138","0.0-8.0-0.0-9.10","27","<p><img class= 'stimulus' src='images/baseline/house10.jpg'></img></p>","null","","1550706509509","","","","","","",""
