"rt","responses","trial_type","trial_index","time_elapsed","internal_node_id","participant_id","stimulus","key_press","button_pressed","stim_onset","sequence_position","distractor_position","target_lag","distractor_type","target_orientation","phase","correct"
"3367.7000000000135","{""Q0"":""08""}","survey-text","0","3373","0.0-0.0","08","","","","","","","","","","",""
"479961.6","","html-keyboard-response","1","483344","0.0-1.0","08","Welcome to the experiment.","67","","","","","","","","",""
"97019.09999999998","","html-button-response","2","580367","0.0-2.0","08","<p>Several images will be presented sequentially.        Each image will only be on the screen for about 100 milliseconds.</p>        <p> One of the images may be rotated 90 degrees right or left.        Watch for this image and remember if it is rotated right or left.</p>               <p>Images of people and animals will appear, and sometimes they will be unpleasant.        These will never be the rotated target image.</p>","","0","","","","","","","",""
"3221.5000000001164","","html-button-response","3","583590","0.0-3.0","08","<p><img class=""stimulus left-rotate"" src=""images/target/building4.jpg""></img></p><p>This is an example of an image rotated to the left.</p>","","0","","","","","","","",""
"1278.9000000000233","","html-button-response","4","584870","0.0-4.0","08","<p><img class=""stimulus"" src=""images/target/shotstash_0036-1-1100x734.jpg""></img></p><p>This is an example of an image rotated to the right.</p>","","0","","","","","","","",""
"7991.099999999977","","html-button-response","5","592863","0.0-5.0","08","<p>We will now begin a short practice session.</p>         <p>A + symbol will appear in the middle of the screen. Please fix your gaze on the center of the +, and then click the mouse button to begin the image sequence.</p>         <p>Please avoid blinking or eye movements while the images are on the screen.</p>        <p>The image sequence will start relatively slow. After a few sequences, it will speed up.</p>","","0","","","","","","","",""
"5398.699999999953","","html-button-response","6","598262","0.0-6.0-0.0","08","","","0","","","","","","","",""
"null","","html-keyboard-response","7","598442","0.0-6.0-1.0","08","<p><img class= 'stimulus' src='images/baseline/landscape29.jpg'></img></p>","null","","1549737104894","","","","","","",""
"null","","html-keyboard-response","8","598643","0.0-6.0-2.0","08","<p><img class= 'stimulus' src='images/baseline/03063v.jpg'></img></p>","null","","1549737105093","","","","","","",""
"null","","html-keyboard-response","9","598843","0.0-6.0-3.0","08","<p><img class= 'stimulus' src='images/baseline/house3.jpg'></img></p>","null","","1549737105293","","","","","","",""
"null","","html-keyboard-response","10","599045","0.0-6.0-4.0","08","<p><img class= 'stimulus' src='images/baseline/building16.jpg'></img></p>","null","","1549737105494","4","","","","","",""
"null","","html-keyboard-response","11","599243","0.0-6.0-5.0","08","<p><img class= 'stimulus' src='images/baseline/architecture_modern_architecture_852928.jpg'></img></p>","null","","1549737105694","","","","","","",""
"null","","html-keyboard-response","12","599443","0.0-6.0-6.0","08","<p><img class= 'stimulus left-rotate' src='images/target/tree_2.jpg'></img></p>","null","","1549737105895","6","","","","","",""
"null","","html-keyboard-response","13","599643","0.0-6.0-7.0","08","<p><img class= 'stimulus' src='images/baseline/church-silhouette-8712964986014Kb.jpg'></img></p>","null","","1549737106094","","","","","","",""
"null","","html-keyboard-response","14","599844","0.0-6.0-8.0","08","<p><img class= 'stimulus' src='images/baseline/pexels-photo-1840893.jpeg'></img></p>","null","","1549737106294","8","","","","","",""
"null","","html-keyboard-response","15","600044","0.0-6.0-9.0","08","<p><img class= 'stimulus' src='images/baseline/Sunset 4.jpg'></img></p>","null","","1549737106494","","","","","","",""
"null","","html-keyboard-response","16","600243","0.0-6.0-10.0","08","<p><img class= 'stimulus' src='images/baseline/pexels-photo-808465.jpeg'></img></p>","null","","1549737106695","","","","","","",""
"null","","html-keyboard-response","17","600444","0.0-6.0-11.0","08","<p><img class= 'stimulus' src='images/baseline/landscape33.jpg'></img></p>","null","","1549737106895","","","","","","",""
"null","","html-keyboard-response","18","600643","0.0-6.0-12.0","08","<p><img class= 'stimulus' src='images/baseline/Camping 10.jpg'></img></p>","null","","1549737107093","12","","","","","",""
"null","","html-keyboard-response","19","600844","0.0-6.0-13.0","08","<p><img class= 'stimulus' src='images/baseline/Sidewalk 4.jpg'></img></p>","null","","1549737107294","","","","","","",""
"null","","html-keyboard-response","20","601044","0.0-6.0-14.0","08","<p><img class= 'stimulus' src='images/baseline/landscape15.jpg'></img></p>","null","","1549737107494","14","","","","","",""
"null","","html-keyboard-response","21","601244","0.0-6.0-15.0","08","<p><img class= 'stimulus' src='images/baseline/building9.jpg'></img></p>","null","","1549737107694","","","","","","",""
"null","","html-keyboard-response","22","601444","0.0-6.0-16.0","08","<p><img class= 'stimulus' src='images/baseline/05161v.jpg'></img></p>","null","","1549737107895","","","","","","",""
"null","","html-keyboard-response","23","601661","0.0-6.0-17.0","08","<p><img class= 'stimulus' src='images/baseline/03075v.jpg'></img></p>","null","","1549737108094","","","","","","",""
"3668.0999999998603","","html-button-response","24","606335","0.0-6.0-18.0","08","<div class = ""response_question"">WAS THE IMAGE ROTATED...</div>","","0","","","4","2","bas","left","practice","true"
"7213.5","","html-button-response","25","613550","0.0-6.0-0.1","08","","","0","","","","","","","",""
"null","","html-keyboard-response","26","613727","0.0-6.0-1.1","08","<p><img class= 'stimulus' src='images/baseline/04014v.jpg'></img></p>","null","","1549737120179","","","","","","",""
"null","","html-keyboard-response","27","613927","0.0-6.0-2.1","08","<p><img class= 'stimulus' src='images/baseline/Freudenberg_sg_Switzerland.jpg'></img></p>","null","","1549737120377","","","","","","",""
"null","","html-keyboard-response","28","614127","0.0-6.0-3.1","08","<p><img class= 'stimulus' src='images/baseline/agriculture-bright-clouds-440731.jpg'></img></p>","null","","1549737120578","","","","","","",""
"null","","html-keyboard-response","29","614328","0.0-6.0-4.1","08","<p><img class= 'stimulus' src='images/baseline/Nature 2.jpg'></img></p>","null","","1549737120778","4","","","","","",""
"null","","html-keyboard-response","30","614528","0.0-6.0-5.1","08","<p><img class= 'stimulus' src='images/baseline/city-silhouette-at-sunset-871291580819Esw.jpg'></img></p>","null","","1549737120979","","","","","","",""
"null","","html-keyboard-response","31","614727","0.0-6.0-6.1","08","<p><img class= 'stimulus' src='images/baseline/field 4.jpg'></img></p>","null","","1549737121178","6","","","","","",""
"null","","html-keyboard-response","32","614927","0.0-6.0-7.1","08","<p><img class= 'stimulus' src='images/baseline/04086v.jpg'></img></p>","null","","1549737121380","","","","","","",""
"null","","html-keyboard-response","33","615128","0.0-6.0-8.1","08","<p><img class= 'stimulus' src='images/baseline/farmhouse6.jpg'></img></p>","null","","1549737121578","8","","","","","",""
"null","","html-keyboard-response","34","615328","0.0-6.0-9.1","08","<p><img class= 'stimulus' src='images/baseline/Skyscraper 2.jpg'></img></p>","null","","1549737121777","","","","","","",""
"null","","html-keyboard-response","35","615527","0.0-6.0-10.1","08","<p><img class= 'stimulus' src='images/baseline/04130v.jpg'></img></p>","null","","1549737121979","","","","","","",""
"null","","html-keyboard-response","36","615729","0.0-6.0-11.1","08","<p><img class= 'stimulus' src='images/baseline/Skyscraper 1.jpg'></img></p>","null","","1549737122179","","","","","","",""
"null","","html-keyboard-response","37","615927","0.0-6.0-12.1","08","<p><img class= 'stimulus' src='images/baseline/Paysage_karabagh_02.jpg'></img></p>","null","","1549737122378","12","","","","","",""
"null","","html-keyboard-response","38","616128","0.0-6.0-13.1","08","<p><img class= 'stimulus' src='images/baseline/Peyto_Lake-Banff_NP-Canada.jpg'></img></p>","null","","1549737122579","","","","","","",""
"null","","html-keyboard-response","39","616328","0.0-6.0-14.1","08","<p><img class= 'stimulus' src='images/target/cactus2.jpg'></img></p>","null","","1549737122779","14","","","","","",""
"null","","html-keyboard-response","40","616527","0.0-6.0-15.1","08","<p><img class= 'stimulus' src='images/baseline/05139v.jpg'></img></p>","null","","1549737122978","","","","","","",""
"null","","html-keyboard-response","41","616727","0.0-6.0-16.1","08","<p><img class= 'stimulus' src='images/baseline/03041v.jpg'></img></p>","null","","1549737123179","","","","","","",""
"null","","html-keyboard-response","42","616945","0.0-6.0-17.1","08","<p><img class= 'stimulus' src='images/baseline/04062v.jpg'></img></p>","null","","1549737123378","","","","","","",""
"1585.5999999998603","","html-button-response","43","619535","0.0-6.0-18.1","08","<div class = ""response_question"">WAS THE IMAGE ROTATED...</div>","","3","","","6","8","bas","right","practice","true"
"6118.300000000163","","html-button-response","44","625654","0.0-6.0-0.2","08","","","0","","","","","","","",""
"null","","html-keyboard-response","45","625828","0.0-6.0-1.2","08","<p><img class= 'stimulus' src='images/baseline/Lake 5.jpg'></img></p>","null","","1549737132278","","","","","","",""
"null","","html-keyboard-response","46","626028","0.0-6.0-2.2","08","<p><img class= 'stimulus' src='images/baseline/Aletschgletscher-Eggishorn.jpg'></img></p>","null","","1549737132477","","","","","","",""
"null","","html-keyboard-response","47","626227","0.0-6.0-3.2","08","<p><img class= 'stimulus' src='images/baseline/Sunset 5.jpg'></img></p>","null","","1549737132679","","","","","","",""
"null","","html-keyboard-response","48","626428","0.0-6.0-4.2","08","<p><img class= 'stimulus' src='images/baseline/building12.jpg'></img></p>","null","","1549737132878","4","","","","","",""
"null","","html-keyboard-response","49","626628","0.0-6.0-5.2","08","<p><img class= 'stimulus' src='images/baseline/autumn-in-red-rocks-park.jpg'></img></p>","null","","1549737133079","","","","","","",""
"null","","html-keyboard-response","50","626829","0.0-6.0-6.2","08","<p><img class= 'stimulus' src='images/baseline/scenic-mountain-landscape.jpg'></img></p>","null","","1549737133279","6","","","","","",""
"null","","html-keyboard-response","51","627029","0.0-6.0-7.2","08","<p><img class= 'stimulus' src='images/baseline/04300v.jpg'></img></p>","null","","1549737133479","","","","","","",""
"null","","html-keyboard-response","52","627229","0.0-6.0-8.2","08","<p><img class= 'stimulus' src='images/target/tree.jpeg'></img></p>","null","","1549737133679","8","","","","","",""
"null","","html-keyboard-response","53","627428","0.0-6.0-9.2","08","<p><img class= 'stimulus' src='images/baseline/cranes 1.jpg'></img></p>","null","","1549737133879","","","","","","",""
"null","","html-keyboard-response","54","627628","0.0-6.0-10.2","08","<p><img class= 'stimulus' src='images/baseline/hills 4.jpg'></img></p>","null","","1549737134079","","","","","","",""
"null","","html-keyboard-response","55","627828","0.0-6.0-11.2","08","<p><img class= 'stimulus' src='images/baseline/landscape38.jpg'></img></p>","null","","1549737134279","","","","","","",""
"null","","html-keyboard-response","56","628029","0.0-6.0-12.2","08","<p><img class= 'stimulus' src='images/baseline/house11.jpg'></img></p>","null","","1549737134478","12","","","","","",""
"null","","html-keyboard-response","57","628228","0.0-6.0-13.2","08","<p><img class= 'stimulus' src='images/baseline/Kocherbaumwald-01.jpg'></img></p>","null","","1549737134679","","","","","","",""
"null","","html-keyboard-response","58","628427","0.0-6.0-14.2","08","<p><img class= 'stimulus' src='images/baseline/pexels-photo-750108.jpeg'></img></p>","null","","1549737134879","14","","","","","",""
"null","","html-keyboard-response","59","628628","0.0-6.0-15.2","08","<p><img class= 'stimulus' src='images/baseline/04031v.jpg'></img></p>","null","","1549737135078","","","","","","",""
"null","","html-keyboard-response","60","628829","0.0-6.0-16.2","08","<p><img class= 'stimulus' src='images/baseline/landscape31.jpg'></img></p>","null","","1549737135278","","","","","","",""
"null","","html-keyboard-response","61","629044","0.0-6.0-17.2","08","<p><img class= 'stimulus' src='images/baseline/foreclosed_home.jpg'></img></p>","null","","1549737135479","","","","","","",""
"1444.6999999999534","","html-button-response","62","631495","0.0-6.0-18.2","08","<div class = ""response_question"">WAS THE IMAGE ROTATED...</div>","","3","","","6","2","bas","right","practice","true"
"5309.899999999907","","html-button-response","63","636806","0.0-6.0-0.3","08","","","0","","","","","","","",""
"null","","html-keyboard-response","64","636994","0.0-6.0-1.3","08","<p><img class= 'stimulus' src='images/baseline/03112v.jpg'></img></p>","null","","1549737143448","","","","","","",""
"null","","html-keyboard-response","65","637195","0.0-6.0-2.3","08","<p><img class= 'stimulus' src='images/baseline/03180v.jpg'></img></p>","null","","1549737143645","","","","","","",""
"null","","html-keyboard-response","66","637395","0.0-6.0-3.3","08","<p><img class= 'stimulus' src='images/baseline/building3.jpg'></img></p>","null","","1549737143845","","","","","","",""
"null","","html-keyboard-response","67","637595","0.0-6.0-4.3","08","<p><img class= 'stimulus' src='images/baseline/Grass 6.jpg'></img></p>","null","","1549737144045","4","","","","","",""
"null","","html-keyboard-response","68","637795","0.0-6.0-5.3","08","<p><img class= 'stimulus' src='images/baseline/04040v.jpg'></img></p>","null","","1549737144246","","","","","","",""
"null","","html-keyboard-response","69","637995","0.0-6.0-6.3","08","<p><img class= 'stimulus' src='images/baseline/pexels-photo-1261728.jpeg'></img></p>","null","","1549737144446","6","","","","","",""
"null","","html-keyboard-response","70","638196","0.0-6.0-7.3","08","<p><img class= 'stimulus' src='images/baseline/05189v.jpg'></img></p>","null","","1549737144646","","","","","","",""
"null","","html-keyboard-response","71","638395","0.0-6.0-8.3","08","<p><img class= 'stimulus left-rotate' src='images/target/sand-3339890_640.jpg'></img></p>","null","","1549737144846","8","","","","","",""
"null","","html-keyboard-response","72","638596","0.0-6.0-9.3","08","<p><img class= 'stimulus' src='images/baseline/meadow-with-mountain-in-background.jpg'></img></p>","null","","1549737145047","","","","","","",""
"null","","html-keyboard-response","73","638796","0.0-6.0-10.3","08","<p><img class= 'stimulus' src='images/baseline/building4.jpg'></img></p>","null","","1549737145247","","","","","","",""
"null","","html-keyboard-response","74","638996","0.0-6.0-11.3","08","<p><img class= 'stimulus' src='images/baseline/Lake 15.jpg'></img></p>","null","","1549737145446","","","","","","",""
"null","","html-keyboard-response","75","639197","0.0-6.0-12.3","08","<p><img class= 'stimulus' src='images/baseline/pexels-photo-459203.jpeg'></img></p>","null","","1549737145646","12","","","","","",""
"null","","html-keyboard-response","76","639396","0.0-6.0-13.3","08","<p><img class= 'stimulus' src='images/baseline/kokkari-1523011968Xfr.jpg'></img></p>","null","","1549737145847","","","","","","",""
"null","","html-keyboard-response","77","639596","0.0-6.0-14.3","08","<p><img class= 'stimulus' src='images/baseline/house6.jpg'></img></p>","null","","1549737146047","14","","","","","",""
"null","","html-keyboard-response","78","639796","0.0-6.0-15.3","08","<p><img class= 'stimulus' src='images/baseline/landscape7.jpg'></img></p>","null","","1549737146246","","","","","","",""
"null","","html-keyboard-response","79","639997","0.0-6.0-16.3","08","<p><img class= 'stimulus' src='images/baseline/architecture-1314416_1920.jpg'></img></p>","null","","1549737146447","","","","","","",""
"null","","html-keyboard-response","80","640212","0.0-6.0-17.3","08","<p><img class= 'stimulus' src='images/baseline/02962v.jpg'></img></p>","null","","1549737146646","","","","","","",""
"854.8000000000466","","html-button-response","81","642071","0.0-6.0-18.3","08","<div class = ""response_question"">WAS THE IMAGE ROTATED...</div>","","0","","","6","2","bas","left","practice","true"
"1070.2999999998137","","html-button-response","82","643142","0.0-6.0-0.4","08","","","0","","","","","","","",""
"null","","html-keyboard-response","83","643278","0.0-6.0-1.4","08","<p><img class= 'stimulus' src='images/baseline/building8.jpg'></img></p>","null","","1549737149778","","","","","","",""
"null","","html-keyboard-response","84","643428","0.0-6.0-2.4","08","<p><img class= 'stimulus' src='images/baseline/building6.jpg'></img></p>","null","","1549737149927","","","","","","",""
"null","","html-keyboard-response","85","643577","0.0-6.0-3.4","08","<p><img class= 'stimulus' src='images/baseline/02982v.jpg'></img></p>","null","","1549737150078","","","","","","",""
"null","","html-keyboard-response","86","643728","0.0-6.0-4.4","08","<p><img class= 'stimulus' src='images/baseline/landscape2.jpg'></img></p>","null","","1549737150228","4","","","","","",""
"null","","html-keyboard-response","87","643877","0.0-6.0-5.4","08","<p><img class= 'stimulus' src='images/baseline/pexels-photo-221125.jpeg'></img></p>","null","","1549737150379","","","","","","",""
"null","","html-keyboard-response","88","644027","0.0-6.0-6.4","08","<p><img class= 'stimulus' src='images/baseline/04222v.jpg'></img></p>","null","","1549737150528","6","","","","","",""
"null","","html-keyboard-response","89","644177","0.0-6.0-7.4","08","<p><img class= 'stimulus' src='images/baseline/05198v.jpg'></img></p>","null","","1549737150678","","","","","","",""
"null","","html-keyboard-response","90","644327","0.0-6.0-8.4","08","<p><img class= 'stimulus' src='images/baseline/__08_-_ITALY_-_Forli_under_snow_-_winter_landscape_of_city_(christmas).jpg'></img></p>","null","","1549737150827","8","","","","","",""
"null","","html-keyboard-response","91","644477","0.0-6.0-9.4","08","<p><img class= 'stimulus' src='images/baseline/05203v.jpg'></img></p>","null","","1549737150977","","","","","","",""
"null","","html-keyboard-response","92","644628","0.0-6.0-10.4","08","<p><img class= 'stimulus' src='images/baseline/Desert_View_Indian_Wells.jpg'></img></p>","null","","1549737151127","","","","","","",""
"null","","html-keyboard-response","93","644776","0.0-6.0-11.4","08","<p><img class= 'stimulus' src='images/baseline/Linden,_paysage.jpg'></img></p>","null","","1549737151277","","","","","","",""
"null","","html-keyboard-response","94","644927","0.0-6.0-12.4","08","<p><img class= 'stimulus' src='images/baseline/04162v.jpg'></img></p>","null","","1549737151427","12","","","","","",""
"null","","html-keyboard-response","95","645078","0.0-6.0-13.4","08","<p><img class= 'stimulus' src='images/baseline/05179v.jpg'></img></p>","null","","1549737151578","","","","","","",""
"null","","html-keyboard-response","96","645227","0.0-6.0-14.4","08","<p><img class= 'stimulus left-rotate' src='images/target/building19.jpg'></img></p>","null","","1549737151727","14","","","","","",""
"null","","html-keyboard-response","97","645377","0.0-6.0-15.4","08","<p><img class= 'stimulus' src='images/baseline/02977v.jpg'></img></p>","null","","1549737151877","","","","","","",""
"null","","html-keyboard-response","98","645528","0.0-6.0-16.4","08","<p><img class= 'stimulus' src='images/baseline/Happy pose 3.jpg'></img></p>","null","","1549737152027","","","","","","",""
"null","","html-keyboard-response","99","645694","0.0-6.0-17.4","08","<p><img class= 'stimulus' src='images/baseline/landscape40.jpg'></img></p>","null","","1549737152178","","","","","","",""
"838","","html-button-response","100","647534","0.0-6.0-18.4","08","<div class = ""response_question"">WAS THE IMAGE ROTATED...</div>","","0","","","6","8","bas","left","practice","true"
"1550.7000000000698","","html-button-response","101","649086","0.0-6.0-0.5","08","","","0","","","","","","","",""
"null","","html-keyboard-response","102","649210","0.0-6.0-1.5","08","<p><img class= 'stimulus' src='images/baseline/04085v.jpg'></img></p>","null","","1549737155710","","","","","","",""
"null","","html-keyboard-response","103","649360","0.0-6.0-2.5","08","<p><img class= 'stimulus' src='images/baseline/03217v.jpg'></img></p>","null","","1549737155860","","","","","","",""
"null","","html-keyboard-response","104","649510","0.0-6.0-3.5","08","<p><img class= 'stimulus' src='images/baseline/Niinsaare_jarv.jpg'></img></p>","null","","1549737156011","","","","","","",""
"null","","html-keyboard-response","105","649660","0.0-6.0-4.5","08","<p><img class= 'stimulus' src='images/baseline/Beach 3.jpg'></img></p>","null","","1549737156161","4","","","","","",""
"null","","html-keyboard-response","106","649810","0.0-6.0-5.5","08","<p><img class= 'stimulus' src='images/baseline/03045v.jpg'></img></p>","null","","1549737156311","","","","","","",""
"null","","html-keyboard-response","107","649959","0.0-6.0-6.5","08","<p><img class= 'stimulus' src='images/target/church-2306128_640.jpg'></img></p>","null","","1549737156461","6","","","","","",""
"null","","html-keyboard-response","108","650110","0.0-6.0-7.5","08","<p><img class= 'stimulus' src='images/baseline/trees 23.jpg'></img></p>","null","","1549737156610","","","","","","",""
"null","","html-keyboard-response","109","650260","0.0-6.0-8.5","08","<p><img class= 'stimulus' src='images/baseline/field 3.jpg'></img></p>","null","","1549737156761","8","","","","","",""
"null","","html-keyboard-response","110","650411","0.0-6.0-9.5","08","<p><img class= 'stimulus' src='images/baseline/03066v.jpg'></img></p>","null","","1549737156910","","","","","","",""
"null","","html-keyboard-response","111","650561","0.0-6.0-10.5","08","<p><img class= 'stimulus' src='images/baseline/Lake 16.jpg'></img></p>","null","","1549737157061","","","","","","",""
"null","","html-keyboard-response","112","650710","0.0-6.0-11.5","08","<p><img class= 'stimulus' src='images/baseline/Beach 2.jpg'></img></p>","null","","1549737157211","","","","","","",""
"null","","html-keyboard-response","113","650859","0.0-6.0-12.5","08","<p><img class= 'stimulus' src='images/baseline/pexels-photo-351264.jpeg'></img></p>","null","","1549737157361","12","","","","","",""
"null","","html-keyboard-response","114","651011","0.0-6.0-13.5","08","<p><img class= 'stimulus' src='images/baseline/05303v.jpg'></img></p>","null","","1549737157511","","","","","","",""
"null","","html-keyboard-response","115","651160","0.0-6.0-14.5","08","<p><img class= 'stimulus' src='images/baseline/pexels-photo-280222.jpeg'></img></p>","null","","1549737157660","14","","","","","",""
"null","","html-keyboard-response","116","651311","0.0-6.0-15.5","08","<p><img class= 'stimulus' src='images/baseline/04201v.jpg'></img></p>","null","","1549737157811","","","","","","",""
"null","","html-keyboard-response","117","651460","0.0-6.0-16.5","08","<p><img class= 'stimulus' src='images/baseline/04229v.jpg'></img></p>","null","","1549737157960","","","","","","",""
"null","","html-keyboard-response","118","651627","0.0-6.0-17.5","08","<p><img class= 'stimulus' src='images/baseline/04021v.jpg'></img></p>","null","","1549737158112","","","","","","",""
"1088.6000000000931","","html-button-response","119","653718","0.0-6.0-18.5","08","<div class = ""response_question"">WAS THE IMAGE ROTATED...</div>","","3","","","4","2","bas","right","practice","true"
"1725.7999999999302","","html-button-response","120","655446","0.0-6.0-0.6","08","","","0","","","","","","","",""
"null","","html-keyboard-response","121","655576","0.0-6.0-1.6","08","<p><img class= 'stimulus' src='images/baseline/pexels-photo-427676.jpeg'></img></p>","null","","1549737162077","","","","","","",""
"null","","html-keyboard-response","122","655726","0.0-6.0-2.6","08","<p><img class= 'stimulus' src='images/baseline/Lake 14.jpg'></img></p>","null","","1549737162226","","","","","","",""
"null","","html-keyboard-response","123","655877","0.0-6.0-3.6","08","<p><img class= 'stimulus' src='images/baseline/02945v.jpg'></img></p>","null","","1549737162377","","","","","","",""
"null","","html-keyboard-response","124","656027","0.0-6.0-4.6","08","<p><img class= 'stimulus' src='images/baseline/landscape39.jpg'></img></p>","null","","1549737162526","4","","","","","",""
"null","","html-keyboard-response","125","656178","0.0-6.0-5.6","08","<p><img class= 'stimulus' src='images/baseline/03114v.jpg'></img></p>","null","","1549737162678","","","","","","",""
"null","","html-keyboard-response","126","656327","0.0-6.0-6.6","08","<p><img class= 'stimulus' src='images/baseline/landscape11.jpg'></img></p>","null","","1549737162827","6","","","","","",""
"null","","html-keyboard-response","127","656477","0.0-6.0-7.6","08","<p><img class= 'stimulus' src='images/baseline/grand-teton-mountains.jpg'></img></p>","null","","1549737162977","","","","","","",""
"null","","html-keyboard-response","128","656626","0.0-6.0-8.6","08","<p><img class= 'stimulus' src='images/baseline/05280v.jpg'></img></p>","null","","1549737163128","8","","","","","",""
"null","","html-keyboard-response","129","656776","0.0-6.0-9.6","08","<p><img class= 'stimulus' src='images/baseline/field 1.jpg'></img></p>","null","","1549737163277","","","","","","",""
"null","","html-keyboard-response","130","656927","0.0-6.0-10.6","08","<p><img class= 'stimulus' src='images/baseline/03056v.jpg'></img></p>","null","","1549737163426","","","","","","",""
"null","","html-keyboard-response","131","657077","0.0-6.0-11.6","08","<p><img class= 'stimulus' src='images/baseline/4k-wallpaper-agriculture-clouds-842711.jpg'></img></p>","null","","1549737163577","","","","","","",""
"null","","html-keyboard-response","132","657227","0.0-6.0-12.6","08","<p><img class= 'stimulus left-rotate' src='images/target/adventure-desert-landscape-6778.jpg'></img></p>","null","","1549737163728","12","","","","","",""
"null","","html-keyboard-response","133","657378","0.0-6.0-13.6","08","<p><img class= 'stimulus' src='images/baseline/05292v.jpg'></img></p>","null","","1549737163878","","","","","","",""
"null","","html-keyboard-response","134","657526","0.0-6.0-14.6","08","<p><img class= 'stimulus' src='images/baseline/landscape4.jpg'></img></p>","null","","1549737164027","14","","","","","",""
"null","","html-keyboard-response","135","657677","0.0-6.0-15.6","08","<p><img class= 'stimulus' src='images/baseline/landscape34.jpg'></img></p>","null","","1549737164178","","","","","","",""
"null","","html-keyboard-response","136","657827","0.0-6.0-16.6","08","<p><img class= 'stimulus' src='images/baseline/empire-state-building.jpg'></img></p>","null","","1549737164328","","","","","","",""
"null","","html-keyboard-response","137","657994","0.0-6.0-17.6","08","<p><img class= 'stimulus' src='images/baseline/Lake 13.jpg'></img></p>","null","","1549737164477","","","","","","",""
"3421.399999999907","","html-button-response","138","662430","0.0-6.0-18.6","08","<div class = ""response_question"">WAS THE IMAGE ROTATED...</div>","","0","","","4","8","bas","left","practice","true"
"4022.5999999999767","","html-button-response","139","666454","0.0-6.0-0.7","08","","","0","","","","","","","",""
"null","","html-keyboard-response","140","666577","0.0-6.0-1.7","08","<p><img class= 'stimulus' src='images/baseline/05158v.jpg'></img></p>","null","","1549737173078","","","","","","",""
"null","","html-keyboard-response","141","666727","0.0-6.0-2.7","08","<p><img class= 'stimulus' src='images/baseline/03162v.jpg'></img></p>","null","","1549737173227","","","","","","",""
"null","","html-keyboard-response","142","666878","0.0-6.0-3.7","08","<p><img class= 'stimulus' src='images/baseline/02988v.jpg'></img></p>","null","","1549737173377","","","","","","",""
"null","","html-keyboard-response","143","667028","0.0-6.0-4.7","08","<p><img class= 'stimulus' src='images/baseline/lake 1.jpg'></img></p>","null","","1549737173527","4","","","","","",""
"null","","html-keyboard-response","144","667178","0.0-6.0-5.7","08","<p><img class= 'stimulus' src='images/baseline/pexels-photo-1048039.jpeg'></img></p>","null","","1549737173676","","","","","","",""
"null","","html-keyboard-response","145","667327","0.0-6.0-6.7","08","<p><img class= 'stimulus' src='images/baseline/Waterfall 1.jpg'></img></p>","null","","1549737173828","6","","","","","",""
"null","","html-keyboard-response","146","667476","0.0-6.0-7.7","08","<p><img class= 'stimulus' src='images/baseline/landscape35.jpg'></img></p>","null","","1549737173977","","","","","","",""
"null","","html-keyboard-response","147","667628","0.0-6.0-8.7","08","<p><img class= 'stimulus' src='images/baseline/Cold 7.jpg'></img></p>","null","","1549737174127","8","","","","","",""
"null","","html-keyboard-response","148","667777","0.0-6.0-9.7","08","<p><img class= 'stimulus' src='images/baseline/Street 1.jpg'></img></p>","null","","1549737174277","","","","","","",""
"null","","html-keyboard-response","149","667927","0.0-6.0-10.7","08","<p><img class= 'stimulus' src='images/baseline/03098v.jpg'></img></p>","null","","1549737174428","","","","","","",""
"null","","html-keyboard-response","150","668077","0.0-6.0-11.7","08","<p><img class= 'stimulus' src='images/baseline/Lake 4.jpg'></img></p>","null","","1549737174578","","","","","","",""
"null","","html-keyboard-response","151","668227","0.0-6.0-12.7","08","<p><img class= 'stimulus' src='images/target/house-estate-1100x733.jpg'></img></p>","null","","1549737174726","12","","","","","",""
"null","","html-keyboard-response","152","668377","0.0-6.0-13.7","08","<p><img class= 'stimulus' src='images/baseline/pexels-photo-259280.jpeg'></img></p>","null","","1549737174877","","","","","","",""
"null","","html-keyboard-response","153","668527","0.0-6.0-14.7","08","<p><img class= 'stimulus' src='images/baseline/pexels-photo-894312.jpeg'></img></p>","null","","1549737175027","14","","","","","",""
"null","","html-keyboard-response","154","668677","0.0-6.0-15.7","08","<p><img class= 'stimulus' src='images/baseline/hiking-trail.jpg'></img></p>","null","","1549737175177","","","","","","",""
"null","","html-keyboard-response","155","668827","0.0-6.0-16.7","08","<p><img class= 'stimulus' src='images/baseline/05264v.jpg'></img></p>","null","","1549737175328","","","","","","",""
"null","","html-keyboard-response","156","668993","0.0-6.0-17.7","08","<p><img class= 'stimulus' src='images/baseline/Street 2.jpg'></img></p>","null","","1549737175478","","","","","","",""
"857.7999999999302","","html-button-response","157","670855","0.0-6.0-18.7","08","<div class = ""response_question"">WAS THE IMAGE ROTATED...</div>","","3","","","4","8","bas","right","practice","true"
"1502.3000000000466","","html-button-response","158","672358","0.0-6.0-0.8","08","","","0","","","","","","","",""
"null","","html-keyboard-response","159","672444","0.0-6.0-1.8","08","<p><img class= 'stimulus' src='images/baseline/04193v.jpg'></img></p>","null","","1549737178994","","","","","","",""
"null","","html-keyboard-response","160","672543","0.0-6.0-2.8","08","<p><img class= 'stimulus' src='images/baseline/03220v.jpg'></img></p>","null","","1549737179094","","","","","","",""
"null","","html-keyboard-response","161","672643","0.0-6.0-3.8","08","<p><img class= 'stimulus' src='images/baseline/chicago-skyline-at-night-1476869511p8U.jpg'></img></p>","null","","1549737179195","","","","","","",""
"null","","html-keyboard-response","162","672744","0.0-6.0-4.8","08","<p><img class= 'stimulus' src='images/baseline/house1.jpg'></img></p>","null","","1549737179296","4","","","","","",""
"null","","html-keyboard-response","163","672844","0.0-6.0-5.8","08","<p><img class= 'stimulus' src='images/baseline/landscape16.jpg'></img></p>","null","","1549737179395","","","","","","",""
"null","","html-keyboard-response","164","672943","0.0-6.0-6.8","08","<p><img class= 'stimulus' src='images/target/building5.jpg'></img></p>","null","","1549737179495","6","","","","","",""
"null","","html-keyboard-response","165","673043","0.0-6.0-7.8","08","<p><img class= 'stimulus' src='images/baseline/farmhouse2.jpg'></img></p>","null","","1549737179593","","","","","","",""
"null","","html-keyboard-response","166","673144","0.0-6.0-8.8","08","<p><img class= 'stimulus' src='images/baseline/hills 3.jpg'></img></p>","null","","1549737179693","8","","","","","",""
"null","","html-keyboard-response","167","673244","0.0-6.0-9.8","08","<p><img class= 'stimulus' src='images/baseline/05279v.jpg'></img></p>","null","","1549737179793","","","","","","",""
"null","","html-keyboard-response","168","673344","0.0-6.0-10.8","08","<p><img class= 'stimulus' src='images/baseline/landscape23.jpg'></img></p>","null","","1549737179893","","","","","","",""
"null","","html-keyboard-response","169","673444","0.0-6.0-11.8","08","<p><img class= 'stimulus' src='images/baseline/Sunset 6.jpg'></img></p>","null","","1549737179994","","","","","","",""
"null","","html-keyboard-response","170","673544","0.0-6.0-12.8","08","<p><img class= 'stimulus' src='images/baseline/05186v.jpg'></img></p>","null","","1549737180094","12","","","","","",""
"null","","html-keyboard-response","171","673644","0.0-6.0-13.8","08","<p><img class= 'stimulus' src='images/baseline/03148v.jpg'></img></p>","null","","1549737180194","","","","","","",""
"null","","html-keyboard-response","172","673743","0.0-6.0-14.8","08","<p><img class= 'stimulus' src='images/baseline/Bridge 1.jpg'></img></p>","null","","1549737180294","14","","","","","",""
"null","","html-keyboard-response","173","673844","0.0-6.0-15.8","08","<p><img class= 'stimulus' src='images/baseline/landscape8.jpg'></img></p>","null","","1549737180394","","","","","","",""
"null","","html-keyboard-response","174","673943","0.0-6.0-16.8","08","<p><img class= 'stimulus' src='images/baseline/agriculture-countryside-crop-259280.jpg'></img></p>","null","","1549737180494","","","","","","",""
"null","","html-keyboard-response","175","674060","0.0-6.0-17.8","08","<p><img class= 'stimulus' src='images/baseline/farmhouse11.jpg'></img></p>","null","","1549737180595","","","","","","",""
"1574.8000000000466","","html-button-response","176","676639","0.0-6.0-18.8","08","<div class = ""response_question"">WAS THE IMAGE ROTATED...</div>","","4","","","4","2","bas","right","practice","true"
"1094.0999999999767","","html-button-response","177","677734","0.0-6.0-0.9","08","","","0","","","","","","","",""
"null","","html-keyboard-response","178","677811","0.0-6.0-1.9","08","<p><img class= 'stimulus' src='images/baseline/landscape13.jpg'></img></p>","null","","1549737184360","","","","","","",""
"null","","html-keyboard-response","179","677911","0.0-6.0-2.9","08","<p><img class= 'stimulus' src='images/baseline/02947v.jpg'></img></p>","null","","1549737184461","","","","","","",""
"null","","html-keyboard-response","180","678011","0.0-6.0-3.9","08","<p><img class= 'stimulus' src='images/baseline/autumn-landscape-with-lake-fall-trees-mountains.jpg'></img></p>","null","","1549737184561","","","","","","",""
"null","","html-keyboard-response","181","678111","0.0-6.0-4.9","08","<p><img class= 'stimulus' src='images/baseline/02960v.jpg'></img></p>","null","","1549737184661","4","","","","","",""
"null","","html-keyboard-response","182","678209","0.0-6.0-5.9","08","<p><img class= 'stimulus' src='images/baseline/04284v.jpg'></img></p>","null","","1549737184762","","","","","","",""
"null","","html-keyboard-response","183","678310","0.0-6.0-6.9","08","<p><img class= 'stimulus' src='images/baseline/lone-old-cottonwood-tree.jpg'></img></p>","null","","1549737184862","6","","","","","",""
"null","","html-keyboard-response","184","678410","0.0-6.0-7.9","08","<p><img class= 'stimulus' src='images/baseline/house2.jpg'></img></p>","null","","1549737184961","","","","","","",""
"null","","html-keyboard-response","185","678510","0.0-6.0-8.9","08","<p><img class= 'stimulus left-rotate' src='images/target/building15.jpg'></img></p>","null","","1549737185061","8","","","","","",""
"null","","html-keyboard-response","186","678611","0.0-6.0-9.9","08","<p><img class= 'stimulus' src='images/baseline/lake 2.jpg'></img></p>","null","","1549737185161","","","","","","",""
"null","","html-keyboard-response","187","678710","0.0-6.0-10.9","08","<p><img class= 'stimulus' src='images/baseline/landscape3.jpg'></img></p>","null","","1549737185260","","","","","","",""
"null","","html-keyboard-response","188","678810","0.0-6.0-11.9","08","<p><img class= 'stimulus' src='images/baseline/landscape19.jpg'></img></p>","null","","1549737185362","","","","","","",""
"null","","html-keyboard-response","189","678910","0.0-6.0-12.9","08","<p><img class= 'stimulus' src='images/baseline/Lake 3.jpg'></img></p>","null","","1549737185461","12","","","","","",""
"null","","html-keyboard-response","190","679010","0.0-6.0-13.9","08","<p><img class= 'stimulus' src='images/baseline/Lake 7.jpg'></img></p>","null","","1549737185560","","","","","","",""
"null","","html-keyboard-response","191","679111","0.0-6.0-14.9","08","<p><img class= 'stimulus' src='images/baseline/lake3.jpg'></img></p>","null","","1549737185660","14","","","","","",""
"null","","html-keyboard-response","192","679211","0.0-6.0-15.9","08","<p><img class= 'stimulus' src='images/baseline/pexels-photo-1287089.jpeg'></img></p>","null","","1549737185761","","","","","","",""
"null","","html-keyboard-response","193","679310","0.0-6.0-16.9","08","<p><img class= 'stimulus' src='images/baseline/sun-through-winter-tree-branches1.jpg'></img></p>","null","","1549737185860","","","","","","",""
"null","","html-keyboard-response","194","679427","0.0-6.0-17.9","08","<p><img class= 'stimulus' src='images/baseline/farmhouse8.jpg'></img></p>","null","","1549737185960","","","","","","",""
"2999.9000000000233","","html-button-response","195","683430","0.0-6.0-18.9","08","<div class = ""response_question"">WAS THE IMAGE ROTATED...</div>","","1","","","6","2","bas","left","practice","true"
"990.3999999999069","","html-button-response","196","684422","0.0-6.0-0.10","08","","","0","","","","","","","",""
"null","","html-keyboard-response","197","684494","0.0-6.0-1.10","08","<p><img class= 'stimulus' src='images/baseline/landscape22.jpg'></img></p>","null","","1549737191044","","","","","","",""
"null","","html-keyboard-response","198","684593","0.0-6.0-2.10","08","<p><img class= 'stimulus' src='images/baseline/building_at_national_conservation.jpg'></img></p>","null","","1549737191145","","","","","","",""
"null","","html-keyboard-response","199","684694","0.0-6.0-3.10","08","<p><img class= 'stimulus' src='images/baseline/Dock 1.jpg'></img></p>","null","","1549737191245","","","","","","",""
"null","","html-keyboard-response","200","684794","0.0-6.0-4.10","08","<p><img class= 'stimulus' src='images/baseline/road 1(1).jpg'></img></p>","null","","1549737191345","4","","","","","",""
"null","","html-keyboard-response","201","684893","0.0-6.0-5.10","08","<p><img class= 'stimulus' src='images/baseline/pexels-photo-541101.jpeg'></img></p>","null","","1549737191444","","","","","","",""
"null","","html-keyboard-response","202","684994","0.0-6.0-6.10","08","<p><img class= 'stimulus' src='images/baseline/hills 1.jpg'></img></p>","null","","1549737191544","6","","","","","",""
"null","","html-keyboard-response","203","685094","0.0-6.0-7.10","08","<p><img class= 'stimulus' src='images/baseline/05167v.jpg'></img></p>","null","","1549737191644","","","","","","",""
"null","","html-keyboard-response","204","685194","0.0-6.0-8.10","08","<p><img class= 'stimulus' src='images/baseline/04060v.jpg'></img></p>","null","","1549737191744","8","","","","","",""
"null","","html-keyboard-response","205","685294","0.0-6.0-9.10","08","<p><img class= 'stimulus' src='images/baseline/05240v.jpg'></img></p>","null","","1549737191844","","","","","","",""
"null","","html-keyboard-response","206","685393","0.0-6.0-10.10","08","<p><img class= 'stimulus' src='images/baseline/building5.jpg'></img></p>","null","","1549737191944","","","","","","",""
"null","","html-keyboard-response","207","685494","0.0-6.0-11.10","08","<p><img class= 'stimulus' src='images/baseline/field 2.jpg'></img></p>","null","","1549737192045","","","","","","",""
"null","","html-keyboard-response","208","685593","0.0-6.0-12.10","08","<p><img class= 'stimulus' src='images/baseline/lookout_tower.jpg'></img></p>","null","","1549737192144","12","","","","","",""
"null","","html-keyboard-response","209","685693","0.0-6.0-13.10","08","<p><img class= 'stimulus' src='images/baseline/Street 4.jpg'></img></p>","null","","1549737192244","","","","","","",""
"null","","html-keyboard-response","210","685794","0.0-6.0-14.10","08","<p><img class= 'stimulus left-rotate' src='images/target/lookout_tower.jpg'></img></p>","null","","1549737192343","14","","","","","",""
"null","","html-keyboard-response","211","685894","0.0-6.0-15.10","08","<p><img class= 'stimulus' src='images/baseline/landscape36.jpg'></img></p>","null","","1549737192444","","","","","","",""
"null","","html-keyboard-response","212","685993","0.0-6.0-16.10","08","<p><img class= 'stimulus' src='images/baseline/Street 3.jpg'></img></p>","null","","1549737192544","","","","","","",""
"null","","html-keyboard-response","213","686110","0.0-6.0-17.10","08","<p><img class= 'stimulus' src='images/baseline/building2.jpg'></img></p>","null","","1549737192643","","","","","","",""
"2621.70000000007","","html-button-response","214","689734","0.0-6.0-18.10","08","<div class = ""response_question"">WAS THE IMAGE ROTATED...</div>","","2","","","6","8","bas","left","practice","false"
"1086.4999999998836","","html-button-response","215","690822","0.0-6.0-0.11","08","","","0","","","","","","","",""
"null","","html-keyboard-response","216","690893","0.0-6.0-1.11","08","<p><img class= 'stimulus' src='images/baseline/snowy tree.jpg'></img></p>","null","","1549737197444","","","","","","",""
"null","","html-keyboard-response","217","690994","0.0-6.0-2.11","08","<p><img class= 'stimulus' src='images/baseline/landscape1.jpg'></img></p>","null","","1549737197543","","","","","","",""
"null","","html-keyboard-response","218","691094","0.0-6.0-3.11","08","<p><img class= 'stimulus' src='images/baseline/cyrillic.jpg'></img></p>","null","","1549737197643","","","","","","",""
"null","","html-keyboard-response","219","691193","0.0-6.0-4.11","08","<p><img class= 'stimulus' src='images/baseline/vintage-art-deco-storefront.jpg'></img></p>","null","","1549737197743","4","","","","","",""
"null","","html-keyboard-response","220","691293","0.0-6.0-5.11","08","<p><img class= 'stimulus' src='images/baseline/architecture-956332_1280.jpg'></img></p>","null","","1549737197844","","","","","","",""
"null","","html-keyboard-response","221","691393","0.0-6.0-6.11","08","<p><img class= 'stimulus' src='images/baseline/Path 1.jpg'></img></p>","null","","1549737197945","6","","","","","",""
"null","","html-keyboard-response","222","691494","0.0-6.0-7.11","08","<p><img class= 'stimulus' src='images/baseline/04010v.jpg'></img></p>","null","","1549737198044","","","","","","",""
"null","","html-keyboard-response","223","691594","0.0-6.0-8.11","08","<p><img class= 'stimulus' src='images/target/tree spring.jpeg'></img></p>","null","","1549737198144","8","","","","","",""
"null","","html-keyboard-response","224","691694","0.0-6.0-9.11","08","<p><img class= 'stimulus' src='images/baseline/pexels-photo-568236.jpeg'></img></p>","null","","1549737198244","","","","","","",""
"null","","html-keyboard-response","225","691794","0.0-6.0-10.11","08","<p><img class= 'stimulus' src='images/baseline/05131v.jpg'></img></p>","null","","1549737198345","","","","","","",""
"null","","html-keyboard-response","226","691895","0.0-6.0-11.11","08","<p><img class= 'stimulus' src='images/baseline/farmhouse1.jpg'></img></p>","null","","1549737198444","","","","","","",""
"null","","html-keyboard-response","227","691993","0.0-6.0-12.11","08","<p><img class= 'stimulus' src='images/baseline/farmhouse4.jpg'></img></p>","null","","1549737198545","12","","","","","",""
"null","","html-keyboard-response","228","692093","0.0-6.0-13.11","08","<p><img class= 'stimulus' src='images/baseline/pexels-photo-440731.jpeg'></img></p>","null","","1549737198644","","","","","","",""
"null","","html-keyboard-response","229","692193","0.0-6.0-14.11","08","<p><img class= 'stimulus' src='images/baseline/house10.jpg'></img></p>","null","","1549737198744","14","","","","","",""
"null","","html-keyboard-response","230","692293","0.0-6.0-15.11","08","<p><img class= 'stimulus' src='images/baseline/04179v.jpg'></img></p>","null","","1549737198844","","","","","","",""
"null","","html-keyboard-response","231","692394","0.0-6.0-16.11","08","<p><img class= 'stimulus' src='images/baseline/04064v.jpg'></img></p>","null","","1549737198943","","","","","","",""
"null","","html-keyboard-response","232","692510","0.0-6.0-17.11","08","<p><img class= 'stimulus' src='images/baseline/Paysage_enneige_02.jpg'></img></p>","null","","1549737199045","","","","","","",""
"1499.7000000000698","","html-button-response","233","695014","0.0-6.0-18.11","08","<div class = ""response_question"">WAS THE IMAGE ROTATED...</div>","","4","","","6","2","bas","right","practice","true"
"1198","","html-button-response","234","696214","0.0-6.0-0.12","08","","","0","","","","","","","",""
"null","","html-keyboard-response","235","696294","0.0-6.0-1.12","08","<p><img class= 'stimulus' src='images/baseline/05255v.jpg'></img></p>","null","","1549737202845","","","","","","",""
"null","","html-keyboard-response","236","696394","0.0-6.0-2.12","08","<p><img class= 'stimulus' src='images/baseline/05252v.jpg'></img></p>","null","","1549737202944","","","","","","",""
"null","","html-keyboard-response","237","696495","0.0-6.0-3.12","08","<p><img class= 'stimulus' src='images/baseline/pexels-photo-1054289.jpeg'></img></p>","null","","1549737203045","","","","","","",""
"null","","html-keyboard-response","238","696595","0.0-6.0-4.12","08","<p><img class= 'stimulus' src='images/baseline/dirt-road-or-trail-through-park.jpg'></img></p>","null","","1549737203145","4","","","","","",""
"null","","html-keyboard-response","239","696695","0.0-6.0-5.12","08","<p><img class= 'stimulus' src='images/baseline/bird-flying-at-sunset.jpg'></img></p>","null","","1549737203245","","","","","","",""
"null","","html-keyboard-response","240","696793","0.0-6.0-6.12","08","<p><img class= 'stimulus' src='images/baseline/farmhouse3.jpg'></img></p>","null","","1549737203344","6","","","","","",""
"null","","html-keyboard-response","241","696894","0.0-6.0-7.12","08","<p><img class= 'stimulus' src='images/baseline/flooded-bridge.jpg'></img></p>","null","","1549737203445","","","","","","",""
"null","","html-keyboard-response","242","696994","0.0-6.0-8.12","08","<p><img class= 'stimulus' src='images/baseline/Beach 8.jpg'></img></p>","null","","1549737203545","8","","","","","",""
"null","","html-keyboard-response","243","697095","0.0-6.0-9.12","08","<p><img class= 'stimulus' src='images/baseline/03201v.jpg'></img></p>","null","","1549737203644","","","","","","",""
"null","","html-keyboard-response","244","697194","0.0-6.0-10.12","08","<p><img class= 'stimulus' src='images/baseline/Dirt 2.jpg'></img></p>","null","","1549737203744","","","","","","",""
"null","","html-keyboard-response","245","697294","0.0-6.0-11.12","08","<p><img class= 'stimulus' src='images/baseline/Bahia_Onelli_Parque_Nacional_Los_Glaciares_Patagonia_Argentina_Luca_Galuzzi_2005.jpg'></img></p>","null","","1549737203844","","","","","","",""
"null","","html-keyboard-response","246","697394","0.0-6.0-12.12","08","<p><img class= 'stimulus left-rotate' src='images/target/pexels-photo-1123982.jpeg'></img></p>","null","","1549737203944","12","","","","","",""
"null","","html-keyboard-response","247","697494","0.0-6.0-13.12","08","<p><img class= 'stimulus' src='images/baseline/Lake 8.jpg'></img></p>","null","","1549737204044","","","","","","",""
"null","","html-keyboard-response","248","697593","0.0-6.0-14.12","08","<p><img class= 'stimulus' src='images/baseline/red rocks from afar.jpg'></img></p>","null","","1549737204144","14","","","","","",""
"null","","html-keyboard-response","249","697693","0.0-6.0-15.12","08","<p><img class= 'stimulus' src='images/baseline/pexels-photo-534164.jpeg'></img></p>","null","","1549737204244","","","","","","",""
"null","","html-keyboard-response","250","697793","0.0-6.0-16.12","08","<p><img class= 'stimulus' src='images/baseline/sunset-over-the-lake.jpg'></img></p>","null","","1549737204345","","","","","","",""
"null","","html-keyboard-response","251","697911","0.0-6.0-17.12","08","<p><img class= 'stimulus' src='images/baseline/landscape6.jpg'></img></p>","null","","1549737204445","","","","","","",""
"1186.9999999998836","","html-button-response","252","700089","0.0-6.0-18.12","08","<div class = ""response_question"">WAS THE IMAGE ROTATED...</div>","","0","","","4","8","bas","left","practice","true"
"1734.5000000001164","","html-button-response","253","701826","0.0-6.0-0.13","08","","","0","","","","","","","",""
"null","","html-keyboard-response","254","701898","0.0-6.0-1.13","08","<p><img class= 'stimulus' src='images/baseline/pexels-photo-210617.jpeg'></img></p>","null","","1549737208448","","","","","","",""
"null","","html-keyboard-response","255","701999","0.0-6.0-2.13","08","<p><img class= 'stimulus' src='images/baseline/04098v.jpg'></img></p>","null","","1549737208549","","","","","","",""
"null","","html-keyboard-response","256","702098","0.0-6.0-3.13","08","<p><img class= 'stimulus' src='images/baseline/house8.jpg'></img></p>","null","","1549737208649","","","","","","",""
"null","","html-keyboard-response","257","702198","0.0-6.0-4.13","08","<p><img class= 'stimulus' src='images/baseline/04117v.jpg'></img></p>","null","","1549737208748","4","","","","","",""
"null","","html-keyboard-response","258","702299","0.0-6.0-5.13","08","<p><img class= 'stimulus' src='images/baseline/04063v.jpg'></img></p>","null","","1549737208849","","","","","","",""
"null","","html-keyboard-response","259","702398","0.0-6.0-6.13","08","<p><img class= 'stimulus left-rotate' src='images/target/building17.jpg'></img></p>","null","","1549737208949","6","","","","","",""
"null","","html-keyboard-response","260","702499","0.0-6.0-7.13","08","<p><img class= 'stimulus' src='images/baseline/landscape14.jpg'></img></p>","null","","1549737209050","","","","","","",""
"null","","html-keyboard-response","261","702600","0.0-6.0-8.13","08","<p><img class= 'stimulus' src='images/baseline/valley 1.jpg'></img></p>","null","","1549737209149","8","","","","","",""
"null","","html-keyboard-response","262","702699","0.0-6.0-9.13","08","<p><img class= 'stimulus' src='images/baseline/house7.jpg'></img></p>","null","","1549737209248","","","","","","",""
"null","","html-keyboard-response","263","702798","0.0-6.0-10.13","08","<p><img class= 'stimulus' src='images/baseline/geese-flying-over-lake-at-dusk.jpg'></img></p>","null","","1549737209350","","","","","","",""
"null","","html-keyboard-response","264","702898","0.0-6.0-11.13","08","<p><img class= 'stimulus' src='images/baseline/tennis-court-net-buried-in-snow.jpg'></img></p>","null","","1549737209449","","","","","","",""
"null","","html-keyboard-response","265","702998","0.0-6.0-12.13","08","<p><img class= 'stimulus' src='images/baseline/05242v.jpg'></img></p>","null","","1549737209548","12","","","","","",""
"null","","html-keyboard-response","266","703098","0.0-6.0-13.13","08","<p><img class= 'stimulus' src='images/baseline/05145v.jpg'></img></p>","null","","1549737209649","","","","","","",""
"null","","html-keyboard-response","267","703198","0.0-6.0-14.13","08","<p><img class= 'stimulus' src='images/baseline/red-rocks-park.jpg'></img></p>","null","","1549737209748","14","","","","","",""
"null","","html-keyboard-response","268","703298","0.0-6.0-15.13","08","<p><img class= 'stimulus' src='images/baseline/farmhouse7.jpg'></img></p>","null","","1549737209848","","","","","","",""
"null","","html-keyboard-response","269","703399","0.0-6.0-16.13","08","<p><img class= 'stimulus' src='images/baseline/landscape12.jpg'></img></p>","null","","1549737209949","","","","","","",""
"null","","html-keyboard-response","270","703516","0.0-6.0-17.13","08","<p><img class= 'stimulus' src='images/baseline/03212v.jpg'></img></p>","null","","1549737210048","","","","","","",""
"1019.4000000001397","","html-button-response","271","705538","0.0-6.0-18.13","08","<div class = ""response_question"">WAS THE IMAGE ROTATED...</div>","","0","","","4","2","bas","left","practice","true"
"1598.3999999999069","","html-button-response","272","707138","0.0-6.0-0.14","08","","","0","","","","","","","",""
"null","","html-keyboard-response","273","707215","0.0-6.0-1.14","08","<p><img class= 'stimulus' src='images/baseline/seoul-410266_1920.jpg'></img></p>","null","","1549737213766","","","","","","",""
"null","","html-keyboard-response","274","707315","0.0-6.0-2.14","08","<p><img class= 'stimulus' src='images/baseline/sunny-landscape-with-dry-brush-and-mountain-background.jpg'></img></p>","null","","1549737213865","","","","","","",""
"null","","html-keyboard-response","275","707415","0.0-6.0-3.14","08","<p><img class= 'stimulus' src='images/baseline/Street 5.jpg'></img></p>","null","","1549737213965","","","","","","",""
"null","","html-keyboard-response","276","707514","0.0-6.0-4.14","08","<p><img class= 'stimulus' src='images/baseline/pexels-photo-414491.jpeg'></img></p>","null","","1549737214066","4","","","","","",""
"null","","html-keyboard-response","277","707614","0.0-6.0-5.14","08","<p><img class= 'stimulus' src='images/baseline/valley 2.jpg'></img></p>","null","","1549737214166","","","","","","",""
"null","","html-keyboard-response","278","707715","0.0-6.0-6.14","08","<p><img class= 'stimulus' src='images/baseline/Skijump 1.jpg'></img></p>","null","","1549737214265","6","","","","","",""
"null","","html-keyboard-response","279","707814","0.0-6.0-7.14","08","<p><img class= 'stimulus' src='images/baseline/landscape37.jpg'></img></p>","null","","1549737214365","","","","","","",""
"null","","html-keyboard-response","280","707914","0.0-6.0-8.14","08","<p><img class= 'stimulus' src='images/baseline/Sailing 3.jpg'></img></p>","null","","1549737214465","8","","","","","",""
"null","","html-keyboard-response","281","708015","0.0-6.0-9.14","08","<p><img class= 'stimulus' src='images/baseline/Nature 1.jpg'></img></p>","null","","1549737214565","","","","","","",""
"null","","html-keyboard-response","282","708115","0.0-6.0-10.14","08","<p><img class= 'stimulus' src='images/baseline/Sky 1.jpg'></img></p>","null","","1549737214665","","","","","","",""
"null","","html-keyboard-response","283","708214","0.0-6.0-11.14","08","<p><img class= 'stimulus' src='images/baseline/farmhouse9.jpg'></img></p>","null","","1549737214765","","","","","","",""
"null","","html-keyboard-response","284","708314","0.0-6.0-12.14","08","<p><img class= 'stimulus' src='images/baseline/99_-_Machu_Picchu_-_Juin_2009.edit3.jpg'></img></p>","null","","1549737214865","12","","","","","",""
"null","","html-keyboard-response","285","708414","0.0-6.0-13.14","08","<p><img class= 'stimulus' src='images/baseline/05247v.jpg'></img></p>","null","","1549737214965","","","","","","",""
"null","","html-keyboard-response","286","708515","0.0-6.0-14.14","08","<p><img class= 'stimulus' src='images/target/pexels-photo-210683.jpeg'></img></p>","null","","1549737215065","14","","","","","",""
"null","","html-keyboard-response","287","708615","0.0-6.0-15.14","08","<p><img class= 'stimulus' src='images/baseline/04196v.jpg'></img></p>","null","","1549737215166","","","","","","",""
"null","","html-keyboard-response","288","708714","0.0-6.0-16.14","08","<p><img class= 'stimulus' src='images/baseline/Sunset 3.jpg'></img></p>","null","","1549737215266","","","","","","",""
"null","","html-keyboard-response","289","708831","0.0-6.0-17.14","08","<p><img class= 'stimulus' src='images/baseline/road.jpg'></img></p>","null","","1549737215366","","","","","","",""
"1758.8000000000466","","html-button-response","290","711594","0.0-6.0-18.14","08","<div class = ""response_question"">WAS THE IMAGE ROTATED...</div>","","3","","","6","8","bas","right","practice","true"
"1030.4000000001397","","html-button-response","291","712626","0.0-6.0-0.15","08","","","0","","","","","","","",""
"null","","html-keyboard-response","292","712698","0.0-6.0-1.15","08","<p><img class= 'stimulus' src='images/baseline/03204v.jpg'></img></p>","null","","1549737219248","","","","","","",""
"null","","html-keyboard-response","293","712798","0.0-6.0-2.15","08","<p><img class= 'stimulus' src='images/baseline/pexels-photo-1837621.jpeg'></img></p>","null","","1549737219348","","","","","","",""
"null","","html-keyboard-response","294","712898","0.0-6.0-3.15","08","<p><img class= 'stimulus' src='images/baseline/river 1.jpg'></img></p>","null","","1549737219448","","","","","","",""
"null","","html-keyboard-response","295","712998","0.0-6.0-4.15","08","<p><img class= 'stimulus' src='images/baseline/Lake 9.jpg'></img></p>","null","","1549737219548","4","","","","","",""
"null","","html-keyboard-response","296","713098","0.0-6.0-5.15","08","<p><img class= 'stimulus' src='images/baseline/Road 1.jpg'></img></p>","null","","1549737219649","","","","","","",""
"null","","html-keyboard-response","297","713198","0.0-6.0-6.15","08","<p><img class= 'stimulus' src='images/baseline/04158v.jpg'></img></p>","null","","1549737219748","6","","","","","",""
"null","","html-keyboard-response","298","713299","0.0-6.0-7.15","08","<p><img class= 'stimulus' src='images/baseline/town-square-in-wroclaw-1539098440MZy.jpg'></img></p>","null","","1549737219848","","","","","","",""
"null","","html-keyboard-response","299","713400","0.0-6.0-8.15","08","<p><img class= 'stimulus' src='images/baseline/02971v.jpg'></img></p>","null","","1549737219948","8","","","","","",""
"null","","html-keyboard-response","300","713497","0.0-6.0-9.15","08","<p><img class= 'stimulus' src='images/baseline/landscape17.jpg'></img></p>","null","","1549737220049","","","","","","",""
"null","","html-keyboard-response","301","713599","0.0-6.0-10.15","08","<p><img class= 'stimulus' src='images/baseline/pexels-photo-59321.jpeg'></img></p>","null","","1549737220149","","","","","","",""
"null","","html-keyboard-response","302","713698","0.0-6.0-11.15","08","<p><img class= 'stimulus' src='images/baseline/horse_statue.jpg'></img></p>","null","","1549737220249","","","","","","",""
"null","","html-keyboard-response","303","713798","0.0-6.0-12.15","08","<p><img class= 'stimulus' src='images/target/building3.jpg'></img></p>","null","","1549737220349","12","","","","","",""
"null","","html-keyboard-response","304","713898","0.0-6.0-13.15","08","<p><img class= 'stimulus' src='images/baseline/agriculture-cereal-clouds-175389.jpg'></img></p>","null","","1549737220448","","","","","","",""
"null","","html-keyboard-response","305","713998","0.0-6.0-14.15","08","<p><img class= 'stimulus' src='images/baseline/building2.jpg'></img></p>","null","","1549737220548","14","","","","","",""
"null","","html-keyboard-response","306","714098","0.0-6.0-15.15","08","<p><img class= 'stimulus' src='images/baseline/scenic-mountain-landscape.jpg'></img></p>","null","","1549737220648","","","","","","",""
"null","","html-keyboard-response","307","714198","0.0-6.0-16.15","08","<p><img class= 'stimulus' src='images/baseline/hills 4.jpg'></img></p>","null","","1549737220748","","","","","","",""
"null","","html-keyboard-response","308","714315","0.0-6.0-17.15","08","<p><img class= 'stimulus' src='images/baseline/02947v.jpg'></img></p>","null","","1549737220848","","","","","","",""
"1530.8000000000466","","html-button-response","309","716850","0.0-6.0-18.15","08","<div class = ""response_question"">WAS THE IMAGE ROTATED...</div>","","3","","","4","8","bas","right","practice","true"
"44478.30000000005","","html-button-response","310","761329","0.0-7.0","08","<p>You have now completed the practice phase. We will now begin the real trials.         This is a reminder that you will be searching for a rotated image among the series of upright images.</p>         <p>Remember, please do not blink or move your eyes while the images are on the screen.</p>         <p>At the end of the experiment, the experimenter will be able to show you how accurate you were.</p>","","0","","","","","","","",""
"2166.70000000007","","html-button-response","311","763497","0.0-8.0-0.0-0.0","08","","","0","","","","","","","",""
"null","","html-keyboard-response","312","763580","0.0-8.0-0.0-1.0","08","<p><img class= 'stimulus' src='images/baseline/field 2.jpg'></img></p>","null","","1549737270131","","","","","","",""
"null","","html-keyboard-response","313","763681","0.0-8.0-0.0-2.0","08","<p><img class= 'stimulus' src='images/baseline/05242v.jpg'></img></p>","null","","1549737270231","","","","","","",""
"null","","html-keyboard-response","314","763781","0.0-8.0-0.0-3.0","08","<p><img class= 'stimulus' src='images/baseline/05264v.jpg'></img></p>","null","","1549737270331","","","","","","",""
"null","","html-keyboard-response","315","763881","0.0-8.0-0.0-4.0","08","<p><img class= 'stimulus' src='images/baseline/building8.jpg'></img></p>","null","","1549737270431","4","","","","","",""
"null","","html-keyboard-response","316","763981","0.0-8.0-0.0-5.0","08","<p><img class= 'stimulus' src='images/baseline/Sunset 6.jpg'></img></p>","null","","1549737270532","","","","","","",""
"null","","html-keyboard-response","317","764081","0.0-8.0-0.0-6.0","08","<p><img class= 'stimulus' src='images/baseline/building5.jpg'></img></p>","null","","1549737270632","6","","","","","",""
"null","","html-keyboard-response","318","764181","0.0-8.0-0.0-7.0","08","<p><img class= 'stimulus' src='images/baseline/valley 2.jpg'></img></p>","null","","1549737270731","","","","","","",""
"null","","html-keyboard-response","319","764280","0.0-8.0-0.0-8.0","08","<p><img class= 'stimulus' src='images/baseline/hiking-trail.jpg'></img></p>","null","","1549737270832","8","","","","","",""
"null","","html-keyboard-response","320","764382","0.0-8.0-0.0-9.0","08","<p><img class= 'stimulus' src='images/baseline/04014v.jpg'></img></p>","null","","1549737270932","","","","","","",""
"null","","html-keyboard-response","321","764481","0.0-8.0-0.0-10.0","08","<p><img class= 'stimulus' src='images/baseline/farmhouse8.jpg'></img></p>","null","","1549737271031","","","","","","",""
"null","","html-keyboard-response","322","764581","0.0-8.0-0.0-11.0","08","<p><img class= 'stimulus' src='images/baseline/04229v.jpg'></img></p>","null","","1549737271132","","","","","","",""
"null","","html-keyboard-response","323","764681","0.0-8.0-0.0-12.0","08","<p><img class= 'stimulus' src='images/baseline/house2.jpg'></img></p>","null","","1549737271231","12","","","","","",""
"null","","html-keyboard-response","324","764781","0.0-8.0-0.0-13.0","08","<p><img class= 'stimulus' src='images/baseline/landscape6.jpg'></img></p>","null","","1549737271331","","","","","","",""
"null","","html-keyboard-response","325","764880","0.0-8.0-0.0-14.0","08","<p><img class= 'stimulus' src='images/baseline/architecture-956332_1280.jpg'></img></p>","null","","1549737271431","14","","","","","",""
"null","","html-keyboard-response","326","764981","0.0-8.0-0.0-15.0","08","<p><img class= 'stimulus' src='images/baseline/church-silhouette-8712964986014Kb.jpg'></img></p>","null","","1549737271531","","","","","","",""
"null","","html-keyboard-response","327","765081","0.0-8.0-0.0-16.0","08","<p><img class= 'stimulus' src='images/baseline/02945v.jpg'></img></p>","null","","1549737271631","","","","","","",""
"null","","html-keyboard-response","328","765198","0.0-8.0-0.0-17.0","08","<p><img class= 'stimulus' src='images/baseline/99_-_Machu_Picchu_-_Juin_2009.edit3.jpg'></img></p>","null","","1549737271731","","","","","","",""
"1175.7000000000698","","html-button-response","329","767377","0.0-8.0-0.0-18.0","08","<div class = ""response_question"">WAS THE IMAGE ROTATED...</div>","","2","","","null","null","null","null","test","null"
"1862.3000000000466","","html-button-response","330","769240","0.0-8.0-0.0-0.1","08","","","0","","","","","","","",""
"null","","html-keyboard-response","331","769315","0.0-8.0-0.0-1.1","08","<p><img class= 'stimulus' src='images/baseline/02982v.jpg'></img></p>","null","","1549737275864","","","","","","",""
"null","","html-keyboard-response","332","769414","0.0-8.0-0.0-2.1","08","<p><img class= 'stimulus' src='images/baseline/autumn-landscape-with-lake-fall-trees-mountains.jpg'></img></p>","null","","1549737275965","","","","","","",""
"null","","html-keyboard-response","333","769514","0.0-8.0-0.0-3.1","08","<p><img class= 'stimulus' src='images/baseline/Paysage_enneige_02.jpg'></img></p>","null","","1549737276065","","","","","","",""
"null","","html-keyboard-response","334","769615","0.0-8.0-0.0-4.1","08","<p><img class= 'stimulus' src='images/baseline/05186v.jpg'></img></p>","null","","1549737276165","4","","","","","",""
"null","","html-keyboard-response","335","769714","0.0-8.0-0.0-5.1","08","<p><img class= 'stimulus' src='images/baseline/landscape8.jpg'></img></p>","null","","1549737276265","","","","","","",""
"null","","html-keyboard-response","336","769814","0.0-8.0-0.0-6.1","08","<p><img class= 'stimulus' src='images/negative/Snake 3.jpg'></img></p>","null","","1549737276365","6","","","","","",""
"null","","html-keyboard-response","337","769914","0.0-8.0-0.0-7.1","08","<p><img class= 'stimulus' src='images/baseline/lake3.jpg'></img></p>","null","","1549737276464","","","","","","",""
"null","","html-keyboard-response","338","770014","0.0-8.0-0.0-8.1","08","<p><img class= 'stimulus left-rotate' src='images/target/landscape20.jpg'></img></p>","null","","1549737276565","8","","","","","",""
"null","","html-keyboard-response","339","770115","0.0-8.0-0.0-9.1","08","<p><img class= 'stimulus' src='images/baseline/snowy tree.jpg'></img></p>","null","","1549737276665","","","","","","",""
"null","","html-keyboard-response","340","770216","0.0-8.0-0.0-10.1","08","<p><img class= 'stimulus' src='images/baseline/05131v.jpg'></img></p>","null","","1549737276764","","","","","","",""
"null","","html-keyboard-response","341","770314","0.0-8.0-0.0-11.1","08","<p><img class= 'stimulus' src='images/baseline/Sunset 4.jpg'></img></p>","null","","1549737276865","","","","","","",""
"null","","html-keyboard-response","342","770416","0.0-8.0-0.0-12.1","08","<p><img class= 'stimulus' src='images/baseline/02971v.jpg'></img></p>","null","","1549737276964","12","","","","","",""
"null","","html-keyboard-response","343","770514","0.0-8.0-0.0-13.1","08","<p><img class= 'stimulus' src='images/baseline/landscape29.jpg'></img></p>","null","","1549737277065","","","","","","",""
"null","","html-keyboard-response","344","770614","0.0-8.0-0.0-14.1","08","<p><img class= 'stimulus' src='images/baseline/hills 1.jpg'></img></p>","null","","1549737277165","14","","","","","",""
"null","","html-keyboard-response","345","770715","0.0-8.0-0.0-15.1","08","<p><img class= 'stimulus' src='images/baseline/landscape14.jpg'></img></p>","null","","1549737277265","","","","","","",""
"null","","html-keyboard-response","346","770814","0.0-8.0-0.0-16.1","08","<p><img class= 'stimulus' src='images/baseline/building_at_national_conservation.jpg'></img></p>","null","","1549737277366","","","","","","",""
"null","","html-keyboard-response","347","770932","0.0-8.0-0.0-17.1","08","<p><img class= 'stimulus' src='images/baseline/Lake 8.jpg'></img></p>","null","","1549737277465","","","","","","",""
"857.8999999999069","","html-button-response","348","772792","0.0-8.0-0.0-18.1","08","<div class = ""response_question"">WAS THE IMAGE ROTATED...</div>","","0","","","6","2","neg","left","test","true"
"1213.5","","html-button-response","349","774009","0.0-8.0-0.0-0.2","08","","","0","","","","","","","",""
"null","","html-keyboard-response","350","774082","0.0-8.0-0.0-1.2","08","<p><img class= 'stimulus' src='images/baseline/Road 1.jpg'></img></p>","null","","1549737280631","","","","","","",""
"null","","html-keyboard-response","351","774181","0.0-8.0-0.0-2.2","08","<p><img class= 'stimulus' src='images/baseline/pexels-photo-427676.jpeg'></img></p>","null","","1549737280732","","","","","","",""
"null","","html-keyboard-response","352","774281","0.0-8.0-0.0-3.2","08","<p><img class= 'stimulus' src='images/baseline/05252v.jpg'></img></p>","null","","1549737280830","","","","","","",""
"null","","html-keyboard-response","353","774381","0.0-8.0-0.0-4.2","08","<p><img class= 'stimulus' src='images/baseline/pexels-photo-414491.jpeg'></img></p>","null","","1549737280931","4","","","","","",""
"null","","html-keyboard-response","354","774481","0.0-8.0-0.0-5.2","08","<p><img class= 'stimulus' src='images/baseline/farmhouse3.jpg'></img></p>","null","","1549737281031","","","","","","",""
"null","","html-keyboard-response","355","774581","0.0-8.0-0.0-6.2","08","<p><img class= 'stimulus' src='images/baseline/04098v.jpg'></img></p>","null","","1549737281131","6","","","","","",""
"null","","html-keyboard-response","356","774681","0.0-8.0-0.0-7.2","08","<p><img class= 'stimulus' src='images/baseline/03063v.jpg'></img></p>","null","","1549737281232","","","","","","",""
"null","","html-keyboard-response","357","774781","0.0-8.0-0.0-8.2","08","<p><img class= 'stimulus' src='images/target/tree_1.jpg'></img></p>","null","","1549737281332","8","","","","","",""
"null","","html-keyboard-response","358","774881","0.0-8.0-0.0-9.2","08","<p><img class= 'stimulus' src='images/baseline/05240v.jpg'></img></p>","null","","1549737281431","","","","","","",""
"null","","html-keyboard-response","359","774981","0.0-8.0-0.0-10.2","08","<p><img class= 'stimulus' src='images/baseline/landscape7.jpg'></img></p>","null","","1549737281531","","","","","","",""
"null","","html-keyboard-response","360","775082","0.0-8.0-0.0-11.2","08","<p><img class= 'stimulus' src='images/baseline/landscape15.jpg'></img></p>","null","","1549737281632","","","","","","",""
"null","","html-keyboard-response","361","775181","0.0-8.0-0.0-12.2","08","<p><img class= 'stimulus' src='images/baseline/house3.jpg'></img></p>","null","","1549737281733","12","","","","","",""
"null","","html-keyboard-response","362","775281","0.0-8.0-0.0-13.2","08","<p><img class= 'stimulus' src='images/baseline/Street 4.jpg'></img></p>","null","","1549737281832","","","","","","",""
"null","","html-keyboard-response","363","775380","0.0-8.0-0.0-14.2","08","<p><img class= 'stimulus' src='images/baseline/kokkari-1523011968Xfr.jpg'></img></p>","null","","1549737281932","14","","","","","",""
"null","","html-keyboard-response","364","775481","0.0-8.0-0.0-15.2","08","<p><img class= 'stimulus' src='images/baseline/house11.jpg'></img></p>","null","","1549737282031","","","","","","",""
"null","","html-keyboard-response","365","775582","0.0-8.0-0.0-16.2","08","<p><img class= 'stimulus' src='images/baseline/pexels-photo-568236.jpeg'></img></p>","null","","1549737282131","","","","","","",""
"null","","html-keyboard-response","366","775698","0.0-8.0-0.0-17.2","08","<p><img class= 'stimulus' src='images/baseline/Sailing 3.jpg'></img></p>","null","","1549737282231","","","","","","",""
"1338.5000000001164","","html-button-response","367","778041","0.0-8.0-0.0-18.2","08","<div class = ""response_question"">WAS THE IMAGE ROTATED...</div>","","3","","","6","2","bas","right","test","true"
"774.1000000000931","","html-button-response","368","778817","0.0-8.0-0.0-0.3","08","","","0","","","","","","","",""
"null","","html-keyboard-response","369","778914","0.0-8.0-0.0-1.3","08","<p><img class= 'stimulus' src='images/baseline/lake 2.jpg'></img></p>","null","","1549737285465","","","","","","",""
"null","","html-keyboard-response","370","779016","0.0-8.0-0.0-2.3","08","<p><img class= 'stimulus' src='images/baseline/Happy pose 3.jpg'></img></p>","null","","1549737285565","","","","","","",""
"null","","html-keyboard-response","371","779115","0.0-8.0-0.0-3.3","08","<p><img class= 'stimulus' src='images/baseline/04064v.jpg'></img></p>","null","","1549737285665","","","","","","",""
"null","","html-keyboard-response","372","779214","0.0-8.0-0.0-4.3","08","<p><img class= 'stimulus' src='images/baseline/05292v.jpg'></img></p>","null","","1549737285765","4","","","","","",""
"null","","html-keyboard-response","373","779316","0.0-8.0-0.0-5.3","08","<p><img class= 'stimulus' src='images/baseline/Desert_View_Indian_Wells.jpg'></img></p>","null","","1549737285865","","","","","","",""
"null","","html-keyboard-response","374","779415","0.0-8.0-0.0-6.3","08","<p><img class= 'stimulus' src='images/baseline/04193v.jpg'></img></p>","null","","1549737285965","6","","","","","",""
"null","","html-keyboard-response","375","779515","0.0-8.0-0.0-7.3","08","<p><img class= 'stimulus' src='images/baseline/cyrillic.jpg'></img></p>","null","","1549737286066","","","","","","",""
"null","","html-keyboard-response","376","779615","0.0-8.0-0.0-8.3","08","<p><img class= 'stimulus left-rotate' src='images/target/pexels-photo-236294.jpeg'></img></p>","null","","1549737286164","8","","","","","",""
"null","","html-keyboard-response","377","779715","0.0-8.0-0.0-9.3","08","<p><img class= 'stimulus' src='images/baseline/04021v.jpg'></img></p>","null","","1549737286264","","","","","","",""
"null","","html-keyboard-response","378","779815","0.0-8.0-0.0-10.3","08","<p><img class= 'stimulus' src='images/baseline/Sunset 5.jpg'></img></p>","null","","1549737286365","","","","","","",""
"null","","html-keyboard-response","379","779914","0.0-8.0-0.0-11.3","08","<p><img class= 'stimulus' src='images/baseline/lookout_tower.jpg'></img></p>","null","","1549737286466","","","","","","",""
"null","","html-keyboard-response","380","780015","0.0-8.0-0.0-12.3","08","<p><img class= 'stimulus' src='images/baseline/building6.jpg'></img></p>","null","","1549737286565","12","","","","","",""
"null","","html-keyboard-response","381","780115","0.0-8.0-0.0-13.3","08","<p><img class= 'stimulus' src='images/baseline/landscape37.jpg'></img></p>","null","","1549737286666","","","","","","",""
"null","","html-keyboard-response","382","780214","0.0-8.0-0.0-14.3","08","<p><img class= 'stimulus' src='images/baseline/pexels-photo-1054289.jpeg'></img></p>","null","","1549737286765","14","","","","","",""
"null","","html-keyboard-response","383","780314","0.0-8.0-0.0-15.3","08","<p><img class= 'stimulus' src='images/baseline/pexels-photo-541101.jpeg'></img></p>","null","","1549737286865","","","","","","",""
"null","","html-keyboard-response","384","780415","0.0-8.0-0.0-16.3","08","<p><img class= 'stimulus' src='images/baseline/03075v.jpg'></img></p>","null","","1549737286965","","","","","","",""
"null","","html-keyboard-response","385","780532","0.0-8.0-0.0-17.3","08","<p><img class= 'stimulus' src='images/baseline/foreclosed_home.jpg'></img></p>","null","","1549737287065","","","","","","",""
"777.7000000000698","","html-button-response","386","782313","0.0-8.0-0.0-18.3","08","<div class = ""response_question"">WAS THE IMAGE ROTATED...</div>","","0","","","6","2","bas","left","test","true"
"998.2999999999302","","html-button-response","387","783313","0.0-8.0-0.0-0.4","08","","","0","","","","","","","",""
"null","","html-keyboard-response","388","783398","0.0-8.0-0.0-1.4","08","<p><img class= 'stimulus' src='images/baseline/Lake 9.jpg'></img></p>","null","","1549737289948","","","","","","",""
"null","","html-keyboard-response","389","783498","0.0-8.0-0.0-2.4","08","<p><img class= 'stimulus' src='images/baseline/05145v.jpg'></img></p>","null","","1549737290048","","","","","","",""
"null","","html-keyboard-response","390","783598","0.0-8.0-0.0-3.4","08","<p><img class= 'stimulus' src='images/baseline/geese-flying-over-lake-at-dusk.jpg'></img></p>","null","","1549737290148","","","","","","",""
"null","","html-keyboard-response","391","783698","0.0-8.0-0.0-4.4","08","<p><img class= 'stimulus' src='images/baseline/pexels-photo-280222.jpeg'></img></p>","null","","1549737290248","4","","","","","",""
"null","","html-keyboard-response","392","783798","0.0-8.0-0.0-5.4","08","<p><img class= 'stimulus' src='images/baseline/landscape4.jpg'></img></p>","null","","1549737290348","","","","","","",""
"null","","html-keyboard-response","393","783897","0.0-8.0-0.0-6.4","08","<p><img class= 'stimulus' src='images/neutral/berkay-gumustekin-402114-unsplash (1) (1).jpg'></img></p>","null","","1549737290448","6","","","","","",""
"null","","html-keyboard-response","394","783998","0.0-8.0-0.0-7.4","08","<p><img class= 'stimulus' src='images/baseline/Lake 16.jpg'></img></p>","null","","1549737290549","","","","","","",""
"null","","html-keyboard-response","395","784097","0.0-8.0-0.0-8.4","08","<p><img class= 'stimulus' src='images/baseline/farmhouse6.jpg'></img></p>","null","","1549737290649","8","","","","","",""
"null","","html-keyboard-response","396","784197","0.0-8.0-0.0-9.4","08","<p><img class= 'stimulus' src='images/baseline/meadow-with-mountain-in-background.jpg'></img></p>","null","","1549737290750","","","","","","",""
"null","","html-keyboard-response","397","784297","0.0-8.0-0.0-10.4","08","<p><img class= 'stimulus' src='images/baseline/landscape12.jpg'></img></p>","null","","1549737290848","","","","","","",""
"null","","html-keyboard-response","398","784398","0.0-8.0-0.0-11.4","08","<p><img class= 'stimulus' src='images/baseline/03041v.jpg'></img></p>","null","","1549737290949","","","","","","",""
"null","","html-keyboard-response","399","784498","0.0-8.0-0.0-12.4","08","<p><img class= 'stimulus' src='images/baseline/Street 2.jpg'></img></p>","null","","1549737291049","12","","","","","",""
"null","","html-keyboard-response","400","784597","0.0-8.0-0.0-13.4","08","<p><img class= 'stimulus' src='images/baseline/Skyscraper 2.jpg'></img></p>","null","","1549737291149","","","","","","",""
"null","","html-keyboard-response","401","784698","0.0-8.0-0.0-14.4","08","<p><img class= 'stimulus left-rotate' src='images/target/buildin2.png'></img></p>","null","","1549737291248","14","","","","","",""
"null","","html-keyboard-response","402","784798","0.0-8.0-0.0-15.4","08","<p><img class= 'stimulus' src='images/baseline/agriculture-countryside-crop-259280.jpg'></img></p>","null","","1549737291348","","","","","","",""
"null","","html-keyboard-response","403","784898","0.0-8.0-0.0-16.4","08","<p><img class= 'stimulus' src='images/baseline/Nature 1.jpg'></img></p>","null","","1549737291448","","","","","","",""
"null","","html-keyboard-response","404","785014","0.0-8.0-0.0-17.4","08","<p><img class= 'stimulus' src='images/baseline/pexels-photo-210617.jpeg'></img></p>","null","","1549737291548","","","","","","",""
"1143.8000000000466","","html-button-response","405","787160","0.0-8.0-0.0-18.4","08","<div class = ""response_question"">WAS THE IMAGE ROTATED...</div>","","0","","","6","8","neu","left","test","true"
"1086.300000000163","","html-button-response","406","788248","0.0-8.0-0.0-0.5","08","","","0","","","","","","","",""
"null","","html-keyboard-response","407","788332","0.0-8.0-0.0-1.5","08","<p><img class= 'stimulus' src='images/baseline/04179v.jpg'></img></p>","null","","1549737294882","","","","","","",""
"null","","html-keyboard-response","408","788432","0.0-8.0-0.0-2.5","08","<p><img class= 'stimulus' src='images/baseline/flooded-bridge.jpg'></img></p>","null","","1549737294982","","","","","","",""
"null","","html-keyboard-response","409","788532","0.0-8.0-0.0-3.5","08","<p><img class= 'stimulus' src='images/baseline/lake 1.jpg'></img></p>","null","","1549737295082","","","","","","",""
"null","","html-keyboard-response","410","788632","0.0-8.0-0.0-4.5","08","<p><img class= 'stimulus' src='images/baseline/farmhouse9.jpg'></img></p>","null","","1549737295182","4","","","","","",""
"null","","html-keyboard-response","411","788731","0.0-8.0-0.0-5.5","08","<p><img class= 'stimulus' src='images/baseline/05203v.jpg'></img></p>","null","","1549737295282","","","","","","",""
"null","","html-keyboard-response","412","788831","0.0-8.0-0.0-6.5","08","<p><img class= 'stimulus' src='images/target/coconut-3396945_640.jpg'></img></p>","null","","1549737295383","6","","","","","",""
"null","","html-keyboard-response","413","788931","0.0-8.0-0.0-7.5","08","<p><img class= 'stimulus' src='images/baseline/Path 1.jpg'></img></p>","null","","1549737295483","","","","","","",""
"null","","html-keyboard-response","414","789031","0.0-8.0-0.0-8.5","08","<p><img class= 'stimulus' src='images/baseline/Lake 5.jpg'></img></p>","null","","1549737295582","8","","","","","",""
"null","","html-keyboard-response","415","789131","0.0-8.0-0.0-9.5","08","<p><img class= 'stimulus' src='images/baseline/pexels-photo-1837621.jpeg'></img></p>","null","","1549737295682","","","","","","",""
"null","","html-keyboard-response","416","789232","0.0-8.0-0.0-10.5","08","<p><img class= 'stimulus' src='images/baseline/03098v.jpg'></img></p>","null","","1549737295781","","","","","","",""
"null","","html-keyboard-response","417","789331","0.0-8.0-0.0-11.5","08","<p><img class= 'stimulus' src='images/baseline/valley 1.jpg'></img></p>","null","","1549737295882","","","","","","",""
"null","","html-keyboard-response","418","789432","0.0-8.0-0.0-12.5","08","<p><img class= 'stimulus' src='images/baseline/Niinsaare_jarv.jpg'></img></p>","null","","1549737295981","12","","","","","",""
"null","","html-keyboard-response","419","789532","0.0-8.0-0.0-13.5","08","<p><img class= 'stimulus' src='images/baseline/Grass 6.jpg'></img></p>","null","","1549737296082","","","","","","",""
"null","","html-keyboard-response","420","789632","0.0-8.0-0.0-14.5","08","<p><img class= 'stimulus' src='images/baseline/Sunset 3.jpg'></img></p>","null","","1549737296183","14","","","","","",""
"null","","html-keyboard-response","421","789730","0.0-8.0-0.0-15.5","08","<p><img class= 'stimulus' src='images/baseline/05198v.jpg'></img></p>","null","","1549737296283","","","","","","",""
"null","","html-keyboard-response","422","789831","0.0-8.0-0.0-16.5","08","<p><img class= 'stimulus' src='images/baseline/04040v.jpg'></img></p>","null","","1549737296382","","","","","","",""
"null","","html-keyboard-response","423","789948","0.0-8.0-0.0-17.5","08","<p><img class= 'stimulus' src='images/baseline/Nature 2.jpg'></img></p>","null","","1549737296482","","","","","","",""
"880.5","","html-button-response","424","791833","0.0-8.0-0.0-18.5","08","<div class = ""response_question"">WAS THE IMAGE ROTATED...</div>","","3","","","4","2","bas","right","test","true"
"822.1000000000931","","html-button-response","425","792656","0.0-8.0-0.0-0.6","08","","","0","","","","","","","",""
"null","","html-keyboard-response","426","792731","0.0-8.0-0.0-1.6","08","<p><img class= 'stimulus' src='images/baseline/landscape34.jpg'></img></p>","null","","1549737299281","","","","","","",""
"null","","html-keyboard-response","427","792831","0.0-8.0-0.0-2.6","08","<p><img class= 'stimulus' src='images/baseline/05303v.jpg'></img></p>","null","","1549737299382","","","","","","",""
"null","","html-keyboard-response","428","792932","0.0-8.0-0.0-3.6","08","<p><img class= 'stimulus' src='images/baseline/seoul-410266_1920.jpg'></img></p>","null","","1549737299483","","","","","","",""
"null","","html-keyboard-response","429","793031","0.0-8.0-0.0-4.6","08","<p><img class= 'stimulus' src='images/baseline/house1.jpg'></img></p>","null","","1549737299582","4","","","","","",""
"null","","html-keyboard-response","430","793131","0.0-8.0-0.0-5.6","08","<p><img class= 'stimulus' src='images/baseline/landscape16.jpg'></img></p>","null","","1549737299683","","","","","","",""
"null","","html-keyboard-response","431","793231","0.0-8.0-0.0-6.6","08","<p><img class= 'stimulus' src='images/baseline/landscape39.jpg'></img></p>","null","","1549737299782","6","","","","","",""
"null","","html-keyboard-response","432","793331","0.0-8.0-0.0-7.6","08","<p><img class= 'stimulus' src='images/baseline/03212v.jpg'></img></p>","null","","1549737299882","","","","","","",""
"null","","html-keyboard-response","433","793432","0.0-8.0-0.0-8.6","08","<p><img class= 'stimulus' src='images/baseline/landscape31.jpg'></img></p>","null","","1549737299982","8","","","","","",""
"null","","html-keyboard-response","434","793531","0.0-8.0-0.0-9.6","08","<p><img class= 'stimulus' src='images/baseline/03112v.jpg'></img></p>","null","","1549737300083","","","","","","",""
"null","","html-keyboard-response","435","793631","0.0-8.0-0.0-10.6","08","<p><img class= 'stimulus' src='images/baseline/Bridge 1.jpg'></img></p>","null","","1549737300182","","","","","","",""
"null","","html-keyboard-response","436","793732","0.0-8.0-0.0-11.6","08","<p><img class= 'stimulus' src='images/baseline/lone-old-cottonwood-tree.jpg'></img></p>","null","","1549737300281","","","","","","",""
"null","","html-keyboard-response","437","793832","0.0-8.0-0.0-12.6","08","<p><img class= 'stimulus' src='images/target/Wild-West-South-West-Usa-Landscape-America-1663497.jpg'></img></p>","null","","1549737300382","12","","","","","",""
"null","","html-keyboard-response","438","793931","0.0-8.0-0.0-13.6","08","<p><img class= 'stimulus' src='images/baseline/vintage-art-deco-storefront.jpg'></img></p>","null","","1549737300481","","","","","","",""
"null","","html-keyboard-response","439","794032","0.0-8.0-0.0-14.6","08","<p><img class= 'stimulus' src='images/baseline/field 4.jpg'></img></p>","null","","1549737300582","14","","","","","",""
"null","","html-keyboard-response","440","794131","0.0-8.0-0.0-15.6","08","<p><img class= 'stimulus' src='images/baseline/pexels-photo-894312.jpeg'></img></p>","null","","1549737300682","","","","","","",""
"null","","html-keyboard-response","441","794231","0.0-8.0-0.0-16.6","08","<p><img class= 'stimulus' src='images/baseline/04158v.jpg'></img></p>","null","","1549737300783","","","","","","",""
"null","","html-keyboard-response","442","794348","0.0-8.0-0.0-17.6","08","<p><img class= 'stimulus' src='images/baseline/04062v.jpg'></img></p>","null","","1549737300884","","","","","","",""
"1457.7999999999302","","html-button-response","443","796809","0.0-8.0-0.0-18.6","08","<div class = ""response_question"">WAS THE IMAGE ROTATED...</div>","","4","","","4","8","bas","right","test","true"
"822.0000000001164","","html-button-response","444","797633","0.0-8.0-0.0-0.7","08","","","0","","","","","","","",""
"null","","html-keyboard-response","445","797715","0.0-8.0-0.0-1.7","08","<p><img class= 'stimulus' src='images/baseline/farmhouse1.jpg'></img></p>","null","","1549737304266","","","","","","",""
"null","","html-keyboard-response","446","797815","0.0-8.0-0.0-2.7","08","<p><img class= 'stimulus' src='images/baseline/landscape2.jpg'></img></p>","null","","1549737304365","","","","","","",""
"null","","html-keyboard-response","447","797915","0.0-8.0-0.0-3.7","08","<p><img class= 'stimulus' src='images/baseline/grand-teton-mountains.jpg'></img></p>","null","","1549737304465","","","","","","",""
"null","","html-keyboard-response","448","798015","0.0-8.0-0.0-4.7","08","<p><img class= 'stimulus' src='images/neutral/Horse 1.jpg'></img></p>","null","","1549737304565","4","","","","","",""
"null","","html-keyboard-response","449","798115","0.0-8.0-0.0-5.7","08","<p><img class= 'stimulus' src='images/baseline/pexels-photo-750108.jpeg'></img></p>","null","","1549737304665","","","","","","",""
"null","","html-keyboard-response","450","798214","0.0-8.0-0.0-6.7","08","<p><img class= 'stimulus' src='images/baseline/05179v.jpg'></img></p>","null","","1549737304766","6","","","","","",""
"null","","html-keyboard-response","451","798315","0.0-8.0-0.0-7.7","08","<p><img class= 'stimulus' src='images/baseline/agriculture-bright-clouds-440731.jpg'></img></p>","null","","1549737304865","","","","","","",""
"null","","html-keyboard-response","452","798415","0.0-8.0-0.0-8.7","08","<p><img class= 'stimulus' src='images/baseline/03162v.jpg'></img></p>","null","","1549737304966","8","","","","","",""
"null","","html-keyboard-response","453","798514","0.0-8.0-0.0-9.7","08","<p><img class= 'stimulus' src='images/baseline/02962v.jpg'></img></p>","null","","1549737305065","","","","","","",""
"null","","html-keyboard-response","454","798615","0.0-8.0-0.0-10.7","08","<p><img class= 'stimulus' src='images/baseline/landscape3.jpg'></img></p>","null","","1549737305165","","","","","","",""
"null","","html-keyboard-response","455","798714","0.0-8.0-0.0-11.7","08","<p><img class= 'stimulus' src='images/baseline/05189v.jpg'></img></p>","null","","1549737305265","","","","","","",""
"null","","html-keyboard-response","456","798814","0.0-8.0-0.0-12.7","08","<p><img class= 'stimulus left-rotate' src='images/target/tree-197536_640.jpg'></img></p>","null","","1549737305365","12","","","","","",""
"null","","html-keyboard-response","457","798915","0.0-8.0-0.0-13.7","08","<p><img class= 'stimulus' src='images/baseline/04086v.jpg'></img></p>","null","","1549737305464","","","","","","",""
"null","","html-keyboard-response","458","799014","0.0-8.0-0.0-14.7","08","<p><img class= 'stimulus' src='images/baseline/landscape1.jpg'></img></p>","null","","1549737305564","14","","","","","",""
"null","","html-keyboard-response","459","799115","0.0-8.0-0.0-15.7","08","<p><img class= 'stimulus' src='images/baseline/Kocherbaumwald-01.jpg'></img></p>","null","","1549737305666","","","","","","",""
"null","","html-keyboard-response","460","799215","0.0-8.0-0.0-16.7","08","<p><img class= 'stimulus' src='images/baseline/Cold 7.jpg'></img></p>","null","","1549737305765","","","","","","",""
"null","","html-keyboard-response","461","799331","0.0-8.0-0.0-17.7","08","<p><img class= 'stimulus' src='images/baseline/road.jpg'></img></p>","null","","1549737305865","","","","","","",""
"2090.899999999907","","html-button-response","462","802424","0.0-8.0-0.0-18.7","08","<div class = ""response_question"">WAS THE IMAGE ROTATED...</div>","","0","","","4","8","neu","left","test","true"
"782.1000000002095","","html-button-response","463","803208","0.0-8.0-0.0-0.8","08","","","0","","","","","","","",""
"null","","html-keyboard-response","464","803280","0.0-8.0-0.0-1.8","08","<p><img class= 'stimulus' src='images/baseline/pexels-photo-440731.jpeg'></img></p>","null","","1549737309832","","","","","","",""
"null","","html-keyboard-response","465","803382","0.0-8.0-0.0-2.8","08","<p><img class= 'stimulus' src='images/baseline/pexels-photo-534164.jpeg'></img></p>","null","","1549737309932","","","","","","",""
"null","","html-keyboard-response","466","803481","0.0-8.0-0.0-3.8","08","<p><img class= 'stimulus' src='images/baseline/03220v.jpg'></img></p>","null","","1549737310032","","","","","","",""
"null","","html-keyboard-response","467","803581","0.0-8.0-0.0-4.8","08","<p><img class= 'stimulus' src='images/baseline/farmhouse7.jpg'></img></p>","null","","1549737310134","4","","","","","",""
"null","","html-keyboard-response","468","803681","0.0-8.0-0.0-5.8","08","<p><img class= 'stimulus' src='images/baseline/Beach 2.jpg'></img></p>","null","","1549737310231","","","","","","",""
"null","","html-keyboard-response","469","803781","0.0-8.0-0.0-6.8","08","<p><img class= 'stimulus' src='images/baseline/04031v.jpg'></img></p>","null","","1549737310332","6","","","","","",""
"null","","html-keyboard-response","470","803881","0.0-8.0-0.0-7.8","08","<p><img class= 'stimulus' src='images/baseline/landscape23.jpg'></img></p>","null","","1549737310431","","","","","","",""
"null","","html-keyboard-response","471","803981","0.0-8.0-0.0-8.8","08","<p><img class= 'stimulus' src='images/target/transamerica-pyramid-530061_640.jpg'></img></p>","null","","1549737310532","8","","","","","",""
"null","","html-keyboard-response","472","804082","0.0-8.0-0.0-9.8","08","<p><img class= 'stimulus' src='images/baseline/03045v.jpg'></img></p>","null","","1549737310632","","","","","","",""
"null","","html-keyboard-response","473","804181","0.0-8.0-0.0-10.8","08","<p><img class= 'stimulus' src='images/baseline/building3.jpg'></img></p>","null","","1549737310731","","","","","","",""
"null","","html-keyboard-response","474","804282","0.0-8.0-0.0-11.8","08","<p><img class= 'stimulus' src='images/baseline/landscape19.jpg'></img></p>","null","","1549737310832","","","","","","",""
"null","","html-keyboard-response","475","804381","0.0-8.0-0.0-12.8","08","<p><img class= 'stimulus' src='images/baseline/landscape35.jpg'></img></p>","null","","1549737310931","12","","","","","",""
"null","","html-keyboard-response","476","804482","0.0-8.0-0.0-13.8","08","<p><img class= 'stimulus' src='images/baseline/04162v.jpg'></img></p>","null","","1549737311032","","","","","","",""
"null","","html-keyboard-response","477","804582","0.0-8.0-0.0-14.8","08","<p><img class= 'stimulus' src='images/baseline/04222v.jpg'></img></p>","null","","1549737311132","14","","","","","",""
"null","","html-keyboard-response","478","804681","0.0-8.0-0.0-15.8","08","<p><img class= 'stimulus' src='images/baseline/house7.jpg'></img></p>","null","","1549737311232","","","","","","",""
"null","","html-keyboard-response","479","804781","0.0-8.0-0.0-16.8","08","<p><img class= 'stimulus' src='images/baseline/landscape17.jpg'></img></p>","null","","1549737311331","","","","","","",""
"null","","html-keyboard-response","480","804898","0.0-8.0-0.0-17.8","08","<p><img class= 'stimulus' src='images/baseline/farmhouse2.jpg'></img></p>","null","","1549737311431","","","","","","",""
"971.0000000001164","","html-button-response","481","806873","0.0-8.0-0.0-18.8","08","<div class = ""response_question"">WAS THE IMAGE ROTATED...</div>","","3","","","6","2","bas","right","test","true"
"798.5999999998603","","html-button-response","482","807673","0.0-8.0-0.0-0.9","08","","","0","","","","","","","",""
"null","","html-keyboard-response","483","807748","0.0-8.0-0.0-1.9","08","<p><img class= 'stimulus' src='images/baseline/house10.jpg'></img></p>","null","","1549737314298","","","","","","",""
"null","","html-keyboard-response","484","807848","0.0-8.0-0.0-2.9","08","<p><img class= 'stimulus' src='images/baseline/Beach 3.jpg'></img></p>","null","","1549737314399","","","","","","",""
"null","","html-keyboard-response","485","807948","0.0-8.0-0.0-3.9","08","<p><img class= 'stimulus' src='images/baseline/pexels-photo-59321.jpeg'></img></p>","null","","1549737314499","","","","","","",""
"null","","html-keyboard-response","486","808048","0.0-8.0-0.0-4.9","08","<p><img class= 'stimulus' src='images/baseline/building4.jpg'></img></p>","null","","1549737314599","4","","","","","",""
"null","","html-keyboard-response","487","808148","0.0-8.0-0.0-5.9","08","<p><img class= 'stimulus' src='images/baseline/dirt-road-or-trail-through-park.jpg'></img></p>","null","","1549737314699","","","","","","",""
"null","","html-keyboard-response","488","808248","0.0-8.0-0.0-6.9","08","<p><img class= 'stimulus' src='images/neutral/Gazing 6.jpg'></img></p>","null","","1549737314799","6","","","","","",""
"null","","html-keyboard-response","489","808348","0.0-8.0-0.0-7.9","08","<p><img class= 'stimulus' src='images/baseline/Dock 1.jpg'></img></p>","null","","1549737314898","","","","","","",""
"null","","html-keyboard-response","490","808449","0.0-8.0-0.0-8.9","08","<p><img class= 'stimulus left-rotate' src='images/target/landscape32.jpg'></img></p>","null","","1549737314999","8","","","","","",""
"null","","html-keyboard-response","491","808548","0.0-8.0-0.0-9.9","08","<p><img class= 'stimulus' src='images/baseline/Skijump 1.jpg'></img></p>","null","","1549737315099","","","","","","",""
"null","","html-keyboard-response","492","808649","0.0-8.0-0.0-10.9","08","<p><img class= 'stimulus' src='images/baseline/pexels-photo-808465.jpeg'></img></p>","null","","1549737315199","","","","","","",""
"null","","html-keyboard-response","493","808747","0.0-8.0-0.0-11.9","08","<p><img class= 'stimulus' src='images/baseline/__08_-_ITALY_-_Forli_under_snow_-_winter_landscape_of_city_(christmas).jpg'></img></p>","null","","1549737315299","","","","","","",""
"null","","html-keyboard-response","494","808848","0.0-8.0-0.0-12.9","08","<p><img class= 'stimulus' src='images/baseline/Lake 13.jpg'></img></p>","null","","1549737315399","12","","","","","",""
"null","","html-keyboard-response","495","808948","0.0-8.0-0.0-13.9","08","<p><img class= 'stimulus' src='images/baseline/04201v.jpg'></img></p>","null","","1549737315499","","","","","","",""
"null","","html-keyboard-response","496","809048","0.0-8.0-0.0-14.9","08","<p><img class= 'stimulus' src='images/baseline/landscape33.jpg'></img></p>","null","","1549737315599","14","","","","","",""
"null","","html-keyboard-response","497","809148","0.0-8.0-0.0-15.9","08","<p><img class= 'stimulus' src='images/baseline/Lake 14.jpg'></img></p>","null","","1549737315699","","","","","","",""
"null","","html-keyboard-response","498","809248","0.0-8.0-0.0-16.9","08","<p><img class= 'stimulus' src='images/baseline/4k-wallpaper-agriculture-clouds-842711.jpg'></img></p>","null","","1549737315798","","","","","","",""
"null","","html-keyboard-response","499","809365","0.0-8.0-0.0-17.9","08","<p><img class= 'stimulus' src='images/baseline/building12.jpg'></img></p>","null","","1549737315898","","","","","","",""
"1429.0000000001164","","html-button-response","500","811809","0.0-8.0-0.0-18.9","08","<div class = ""response_question"">WAS THE IMAGE ROTATED...</div>","","4","","","6","2","neu","left","test","false"
"574.4999999998836","","html-button-response","501","812384","0.0-8.0-0.0-0.10","08","","","0","","","","","","","",""
"null","","html-keyboard-response","502","812465","0.0-8.0-0.0-1.10","08","<p><img class= 'stimulus' src='images/baseline/road 1(1).jpg'></img></p>","null","","1549737319014","","","","","","",""
"null","","html-keyboard-response","503","812564","0.0-8.0-0.0-2.10","08","<p><img class= 'stimulus' src='images/baseline/04010v.jpg'></img></p>","null","","1549737319115","","","","","","",""
"null","","html-keyboard-response","504","812665","0.0-8.0-0.0-3.10","08","<p><img class= 'stimulus' src='images/baseline/Sidewalk 4.jpg'></img></p>","null","","1549737319215","","","","","","",""
"null","","html-keyboard-response","505","812765","0.0-8.0-0.0-4.10","08","<p><img class= 'stimulus' src='images/baseline/Lake 3.jpg'></img></p>","null","","1549737319315","4","","","","","",""
"null","","html-keyboard-response","506","812864","0.0-8.0-0.0-5.10","08","<p><img class= 'stimulus' src='images/baseline/red-rocks-park.jpg'></img></p>","null","","1549737319415","","","","","","",""
"null","","html-keyboard-response","507","812964","0.0-8.0-0.0-6.10","08","<p><img class= 'stimulus' src='images/negative/War 2.jpg'></img></p>","null","","1549737319515","6","","","","","",""
"null","","html-keyboard-response","508","813064","0.0-8.0-0.0-7.10","08","<p><img class= 'stimulus' src='images/baseline/field 1.jpg'></img></p>","null","","1549737319615","","","","","","",""
"null","","html-keyboard-response","509","813165","0.0-8.0-0.0-8.10","08","<p><img class= 'stimulus' src='images/baseline/Aletschgletscher-Eggishorn.jpg'></img></p>","null","","1549737319716","8","","","","","",""
"null","","html-keyboard-response","510","813264","0.0-8.0-0.0-9.10","08","<p><img class= 'stimulus' src='images/baseline/05139v.jpg'></img></p>","null","","1549737319817","","","","","","",""
