"rt","responses","trial_type","trial_index","time_elapsed","internal_node_id","participant_id","stimulus","key_press","button_pressed","stim_onset","sequence_position","distractor_position","target_lag","distractor_type","target_orientation","phase","correct"
"14560.200000000805","{""Q0"":""01""}","survey-text","0","14565","0.0-0.0","01","","","","","","","","","","",""
"2536283.6000000006","","html-keyboard-response","1","2550857","0.0-1.0","01","Welcome to the experiment.","67","","","","","","","","",""
"42248.19999999972","","html-button-response","2","2593112","0.0-2.0","01","<p>Several images will be presented sequentially.        Each image will only be on the screen for about 100 milliseconds.</p>        <p> One of the images may be rotated 90 degrees right or left.        Watch for this image and remember if it is rotated right or left.</p>               <p>Images of people and animals will appear, and sometimes they will be unpleasant.        These will never be the rotated target image.</p>","","0","","","","","","","",""
"2966.2999999998137","","html-button-response","3","2596079","0.0-3.0","01","<p><img class=""stimulus left-rotate"" src=""images/target/dreifaltigkeitskirche_sandhausen_837699.jpg""></img></p><p>This is an example of an image rotated to the left.</p>","","0","","","","","","","",""
"1718.699999999255","","html-button-response","4","2597798","0.0-4.0","01","<p><img class=""stimulus"" src=""images/target/italy-building-1206128_1280.jpg""></img></p><p>This is an example of an image rotated to the right.</p>","","0","","","","","","","",""
"12671.099999999627","","html-button-response","5","2610469","0.0-5.0","01","<p>We will now begin a short practice session.</p>         <p>A + symbol will appear in the middle of the screen. Please fix your gaze on the center of the +, and then click the mouse button to begin the image sequence.</p>         <p>Please avoid blinking or eye movements while the images are on the screen.</p>        <p>The image sequence will start relatively slow. After a few sequences, it will speed up.</p>","","0","","","","","","","",""
"4230.4000000003725","","html-button-response","6","2614701","0.0-6.0-0.0","01","","","0","","","","","","","",""
"null","","html-keyboard-response","7","2614886","0.0-6.0-1.0","01","<p><img class= 'stimulus' src='images/baseline/99_-_Machu_Picchu_-_Juin_2009.edit3.jpg'></img></p>","null","","1549475059459","","","","","","",""
"null","","html-keyboard-response","8","2615087","0.0-6.0-2.0","01","<p><img class= 'stimulus' src='images/baseline/Skyscraper 1.jpg'></img></p>","null","","1549475059659","","","","","","",""
"null","","html-keyboard-response","9","2615286","0.0-6.0-3.0","01","<p><img class= 'stimulus' src='images/baseline/05264v.jpg'></img></p>","null","","1549475059859","","","","","","",""
"null","","html-keyboard-response","10","2615486","0.0-6.0-4.0","01","<p><img class= 'stimulus' src='images/baseline/building8.jpg'></img></p>","null","","1549475060060","4","","","","","",""
"null","","html-keyboard-response","11","2615689","0.0-6.0-5.0","01","<p><img class= 'stimulus' src='images/baseline/Dirt 2.jpg'></img></p>","null","","1549475060260","","","","","","",""
"null","","html-keyboard-response","12","2615887","0.0-6.0-6.0","01","<p><img class= 'stimulus' src='images/baseline/valley 2.jpg'></img></p>","null","","1549475060460","6","","","","","",""
"null","","html-keyboard-response","13","2616087","0.0-6.0-7.0","01","<p><img class= 'stimulus' src='images/baseline/Street 4.jpg'></img></p>","null","","1549475060660","","","","","","",""
"null","","html-keyboard-response","14","2616288","0.0-6.0-8.0","01","<p><img class= 'stimulus' src='images/baseline/Beach 8.jpg'></img></p>","null","","1549475060860","8","","","","","",""
"null","","html-keyboard-response","15","2616489","0.0-6.0-9.0","01","<p><img class= 'stimulus' src='images/baseline/field 2.jpg'></img></p>","null","","1549475061061","","","","","","",""
"null","","html-keyboard-response","16","2616688","0.0-6.0-10.0","01","<p><img class= 'stimulus' src='images/baseline/03220v.jpg'></img></p>","null","","1549475061261","","","","","","",""
"null","","html-keyboard-response","17","2616890","0.0-6.0-11.0","01","<p><img class= 'stimulus' src='images/baseline/04117v.jpg'></img></p>","null","","1549475061460","","","","","","",""
"null","","html-keyboard-response","18","2617089","0.0-6.0-12.0","01","<p><img class= 'stimulus' src='images/target/tree_1.jpg'></img></p>","null","","1549475061661","12","","","","","",""
"null","","html-keyboard-response","19","2617289","0.0-6.0-13.0","01","<p><img class= 'stimulus' src='images/baseline/pexels-photo-414491.jpeg'></img></p>","null","","1549475061862","","","","","","",""
"null","","html-keyboard-response","20","2617489","0.0-6.0-14.0","01","<p><img class= 'stimulus' src='images/baseline/landscape8.jpg'></img></p>","null","","1549475062061","14","","","","","",""
"null","","html-keyboard-response","21","2617692","0.0-6.0-15.0","01","<p><img class= 'stimulus' src='images/baseline/Sunset 6.jpg'></img></p>","null","","1549475062262","","","","","","",""
"null","","html-keyboard-response","22","2617889","0.0-6.0-16.0","01","<p><img class= 'stimulus' src='images/baseline/farmhouse2.jpg'></img></p>","null","","1549475062464","","","","","","",""
"null","","html-keyboard-response","23","2618110","0.0-6.0-17.0","01","<p><img class= 'stimulus' src='images/baseline/lookout_tower.jpg'></img></p>","null","","1549475062662","","","","","","",""
"6183.700000001118","","html-button-response","24","2625301","0.0-6.0-18.0","01","<div class = ""response_question"">WAS THE IMAGE ROTATED...</div>","","4","","","4","8","bas","right","practice","true"
"2325.3000000002794","","html-button-response","25","2627629","0.0-6.0-0.1","01","","","0","","","","","","","",""
"null","","html-keyboard-response","26","2627805","0.0-6.0-1.1","01","<p><img class= 'stimulus' src='images/baseline/Street 1.jpg'></img></p>","null","","1549475072378","","","","","","",""
"null","","html-keyboard-response","27","2628006","0.0-6.0-2.1","01","<p><img class= 'stimulus' src='images/baseline/Aletschgletscher-Eggishorn.jpg'></img></p>","null","","1549475072577","","","","","","",""
"null","","html-keyboard-response","28","2628205","0.0-6.0-3.1","01","<p><img class= 'stimulus' src='images/baseline/02960v.jpg'></img></p>","null","","1549475072777","","","","","","",""
"null","","html-keyboard-response","29","2628406","0.0-6.0-4.1","01","<p><img class= 'stimulus' src='images/baseline/landscape2.jpg'></img></p>","null","","1549475072978","4","","","","","",""
"null","","html-keyboard-response","30","2628606","0.0-6.0-5.1","01","<p><img class= 'stimulus' src='images/baseline/field 3.jpg'></img></p>","null","","1549475073178","","","","","","",""
"null","","html-keyboard-response","31","2628807","0.0-6.0-6.1","01","<p><img class= 'stimulus' src='images/baseline/hills 3.jpg'></img></p>","null","","1549475073379","6","","","","","",""
"null","","html-keyboard-response","32","2629005","0.0-6.0-7.1","01","<p><img class= 'stimulus' src='images/baseline/road.jpg'></img></p>","null","","1549475073578","","","","","","",""
"null","","html-keyboard-response","33","2629206","0.0-6.0-8.1","01","<p><img class= 'stimulus left-rotate' src='images/target/pexels-photo-210683.jpeg'></img></p>","null","","1549475073779","8","","","","","",""
"null","","html-keyboard-response","34","2629406","0.0-6.0-9.1","01","<p><img class= 'stimulus' src='images/baseline/04062v.jpg'></img></p>","null","","1549475073977","","","","","","",""
"null","","html-keyboard-response","35","2629605","0.0-6.0-10.1","01","<p><img class= 'stimulus' src='images/baseline/chicago-skyline-at-night-1476869511p8U.jpg'></img></p>","null","","1549475074177","","","","","","",""
"null","","html-keyboard-response","36","2629805","0.0-6.0-11.1","01","<p><img class= 'stimulus' src='images/baseline/architecture_modern_architecture_852928.jpg'></img></p>","null","","1549475074377","","","","","","",""
"null","","html-keyboard-response","37","2630005","0.0-6.0-12.1","01","<p><img class= 'stimulus' src='images/baseline/03212v.jpg'></img></p>","null","","1549475074577","12","","","","","",""
"null","","html-keyboard-response","38","2630206","0.0-6.0-13.1","01","<p><img class= 'stimulus' src='images/baseline/farmhouse1.jpg'></img></p>","null","","1549475074778","","","","","","",""
"null","","html-keyboard-response","39","2630407","0.0-6.0-14.1","01","<p><img class= 'stimulus' src='images/baseline/02945v.jpg'></img></p>","null","","1549475074978","14","","","","","",""
"null","","html-keyboard-response","40","2630606","0.0-6.0-15.1","01","<p><img class= 'stimulus' src='images/baseline/building5.jpg'></img></p>","null","","1549475075179","","","","","","",""
"null","","html-keyboard-response","41","2630806","0.0-6.0-16.1","01","<p><img class= 'stimulus' src='images/baseline/pexels-photo-1261728.jpeg'></img></p>","null","","1549475075380","","","","","","",""
"null","","html-keyboard-response","42","2631022","0.0-6.0-17.1","01","<p><img class= 'stimulus' src='images/baseline/Nature 1.jpg'></img></p>","null","","1549475075578","","","","","","",""
"2089.7000000001863","","html-button-response","43","2634118","0.0-6.0-18.1","01","<div class = ""response_question"">WAS THE IMAGE ROTATED...</div>","","4","","","6","2","bas","left","practice","false"
"1589.6000000010245","","html-button-response","44","2635709","0.0-6.0-0.2","01","","","0","","","","","","","",""
"null","","html-keyboard-response","45","2635888","0.0-6.0-1.2","01","<p><img class= 'stimulus' src='images/baseline/landscape34.jpg'></img></p>","null","","1549475080460","","","","","","",""
"null","","html-keyboard-response","46","2636087","0.0-6.0-2.2","01","<p><img class= 'stimulus' src='images/baseline/landscape4.jpg'></img></p>","null","","1549475080660","","","","","","",""
"null","","html-keyboard-response","47","2636289","0.0-6.0-3.2","01","<p><img class= 'stimulus' src='images/baseline/05255v.jpg'></img></p>","null","","1549475080861","","","","","","",""
"null","","html-keyboard-response","48","2636488","0.0-6.0-4.2","01","<p><img class= 'stimulus' src='images/baseline/Lake 4.jpg'></img></p>","null","","1549475081061","4","","","","","",""
"null","","html-keyboard-response","49","2636688","0.0-6.0-5.2","01","<p><img class= 'stimulus' src='images/baseline/Sidewalk 4.jpg'></img></p>","null","","1549475081260","","","","","","",""
"null","","html-keyboard-response","50","2636888","0.0-6.0-6.2","01","<p><img class= 'stimulus' src='images/baseline/04179v.jpg'></img></p>","null","","1549475081460","6","","","","","",""
"null","","html-keyboard-response","51","2637089","0.0-6.0-7.2","01","<p><img class= 'stimulus' src='images/baseline/pexels-photo-59321.jpeg'></img></p>","null","","1549475081661","","","","","","",""
"null","","html-keyboard-response","52","2637288","0.0-6.0-8.2","01","<p><img class= 'stimulus' src='images/baseline/05252v.jpg'></img></p>","null","","1549475081861","8","","","","","",""
"null","","html-keyboard-response","53","2637488","0.0-6.0-9.2","01","<p><img class= 'stimulus' src='images/baseline/vintage-art-deco-storefront.jpg'></img></p>","null","","1549475082062","","","","","","",""
"null","","html-keyboard-response","54","2637687","0.0-6.0-10.2","01","<p><img class= 'stimulus' src='images/baseline/03063v.jpg'></img></p>","null","","1549475082262","","","","","","",""
"null","","html-keyboard-response","55","2637888","0.0-6.0-11.2","01","<p><img class= 'stimulus' src='images/baseline/pexels-photo-427676.jpeg'></img></p>","null","","1549475082461","","","","","","",""
"null","","html-keyboard-response","56","2638088","0.0-6.0-12.2","01","<p><img class= 'stimulus left-rotate' src='images/target/9525-a-lonely-single-tree-in-a-field-pv.jpg'></img></p>","null","","1549475082661","12","","","","","",""
"null","","html-keyboard-response","57","2638288","0.0-6.0-13.2","01","<p><img class= 'stimulus' src='images/baseline/horse_statue.jpg'></img></p>","null","","1549475082862","","","","","","",""
"null","","html-keyboard-response","58","2638488","0.0-6.0-14.2","01","<p><img class= 'stimulus' src='images/baseline/Paysage_karabagh_02.jpg'></img></p>","null","","1549475083062","14","","","","","",""
"null","","html-keyboard-response","59","2638689","0.0-6.0-15.2","01","<p><img class= 'stimulus' src='images/baseline/dirt-road-or-trail-through-park.jpg'></img></p>","null","","1549475083260","","","","","","",""
"null","","html-keyboard-response","60","2638889","0.0-6.0-16.2","01","<p><img class= 'stimulus' src='images/baseline/architecture-1314416_1920.jpg'></img></p>","null","","1549475083461","","","","","","",""
"null","","html-keyboard-response","61","2639106","0.0-6.0-17.2","01","<p><img class= 'stimulus' src='images/baseline/05303v.jpg'></img></p>","null","","1549475083662","","","","","","",""
"826.500000001397","","html-button-response","62","2640949","0.0-6.0-18.2","01","<div class = ""response_question"">WAS THE IMAGE ROTATED...</div>","","0","","","4","8","bas","left","practice","true"
"1318.300000000745","","html-button-response","63","2642269","0.0-6.0-0.3","01","","","0","","","","","","","",""
"null","","html-keyboard-response","64","2642456","0.0-6.0-1.3","01","<p><img class= 'stimulus' src='images/baseline/05139v.jpg'></img></p>","null","","1549475087027","","","","","","",""
"null","","html-keyboard-response","65","2642654","0.0-6.0-2.3","01","<p><img class= 'stimulus' src='images/baseline/05292v.jpg'></img></p>","null","","1549475087228","","","","","","",""
"null","","html-keyboard-response","66","2642855","0.0-6.0-3.3","01","<p><img class= 'stimulus' src='images/baseline/pexels-photo-568236.jpeg'></img></p>","null","","1549475087428","","","","","","",""
"null","","html-keyboard-response","67","2643055","0.0-6.0-4.3","01","<p><img class= 'stimulus' src='images/baseline/04021v.jpg'></img></p>","null","","1549475087628","4","","","","","",""
"null","","html-keyboard-response","68","2643255","0.0-6.0-5.3","01","<p><img class= 'stimulus' src='images/baseline/agriculture-cereal-clouds-175389.jpg'></img></p>","null","","1549475087827","","","","","","",""
"null","","html-keyboard-response","69","2643455","0.0-6.0-6.3","01","<p><img class= 'stimulus left-rotate' src='images/target/building17.jpg'></img></p>","null","","1549475088028","6","","","","","",""
"null","","html-keyboard-response","70","2643656","0.0-6.0-7.3","01","<p><img class= 'stimulus' src='images/baseline/Lake 16.jpg'></img></p>","null","","1549475088228","","","","","","",""
"null","","html-keyboard-response","71","2643859","0.0-6.0-8.3","01","<p><img class= 'stimulus' src='images/baseline/pexels-photo-534164.jpeg'></img></p>","null","","1549475088428","8","","","","","",""
"null","","html-keyboard-response","72","2644057","0.0-6.0-9.3","01","<p><img class= 'stimulus' src='images/baseline/seoul-410266_1920.jpg'></img></p>","null","","1549475088632","","","","","","",""
"null","","html-keyboard-response","73","2644257","0.0-6.0-10.3","01","<p><img class= 'stimulus' src='images/baseline/03045v.jpg'></img></p>","null","","1549475088829","","","","","","",""
"null","","html-keyboard-response","74","2644456","0.0-6.0-11.3","01","<p><img class= 'stimulus' src='images/baseline/02962v.jpg'></img></p>","null","","1549475089029","","","","","","",""
"null","","html-keyboard-response","75","2644656","0.0-6.0-12.3","01","<p><img class= 'stimulus' src='images/baseline/Waterfall 1.jpg'></img></p>","null","","1549475089230","12","","","","","",""
"null","","html-keyboard-response","76","2644856","0.0-6.0-13.3","01","<p><img class= 'stimulus' src='images/baseline/Nature 2.jpg'></img></p>","null","","1549475089428","","","","","","",""
"null","","html-keyboard-response","77","2645056","0.0-6.0-14.3","01","<p><img class= 'stimulus' src='images/baseline/Desert_View_Indian_Wells.jpg'></img></p>","null","","1549475089629","14","","","","","",""
"null","","html-keyboard-response","78","2645255","0.0-6.0-15.3","01","<p><img class= 'stimulus' src='images/baseline/building9.jpg'></img></p>","null","","1549475089830","","","","","","",""
"null","","html-keyboard-response","79","2645456","0.0-6.0-16.3","01","<p><img class= 'stimulus' src='images/baseline/landscape35.jpg'></img></p>","null","","1549475090028","","","","","","",""
"null","","html-keyboard-response","80","2645673","0.0-6.0-17.3","01","<p><img class= 'stimulus' src='images/baseline/Cold 7.jpg'></img></p>","null","","1549475090229","","","","","","",""
"1096.9000000003725","","html-button-response","81","2647773","0.0-6.0-18.3","01","<div class = ""response_question"">WAS THE IMAGE ROTATED...</div>","","0","","","4","2","bas","left","practice","true"
"1422.5000000009313","","html-button-response","82","2649197","0.0-6.0-0.4","01","","","0","","","","","","","",""
"null","","html-keyboard-response","83","2649321","0.0-6.0-1.4","01","<p><img class= 'stimulus' src='images/baseline/valley 1.jpg'></img></p>","null","","1549475093944","","","","","","",""
"null","","html-keyboard-response","84","2649471","0.0-6.0-2.4","01","<p><img class= 'stimulus' src='images/baseline/05167v.jpg'></img></p>","null","","1549475094094","","","","","","",""
"null","","html-keyboard-response","85","2649622","0.0-6.0-3.4","01","<p><img class= 'stimulus' src='images/baseline/Skijump 1.jpg'></img></p>","null","","1549475094244","","","","","","",""
"null","","html-keyboard-response","86","2649771","0.0-6.0-4.4","01","<p><img class= 'stimulus' src='images/baseline/03180v.jpg'></img></p>","null","","1549475094393","4","","","","","",""
"null","","html-keyboard-response","87","2649921","0.0-6.0-5.4","01","<p><img class= 'stimulus' src='images/baseline/landscape15.jpg'></img></p>","null","","1549475094544","","","","","","",""
"null","","html-keyboard-response","88","2650071","0.0-6.0-6.4","01","<p><img class= 'stimulus' src='images/baseline/farmhouse11.jpg'></img></p>","null","","1549475094694","6","","","","","",""
"null","","html-keyboard-response","89","2650221","0.0-6.0-7.4","01","<p><img class= 'stimulus' src='images/baseline/cyrillic.jpg'></img></p>","null","","1549475094845","","","","","","",""
"null","","html-keyboard-response","90","2650371","0.0-6.0-8.4","01","<p><img class= 'stimulus' src='images/target/buildin2.png'></img></p>","null","","1549475094993","8","","","","","",""
"null","","html-keyboard-response","91","2650522","0.0-6.0-9.4","01","<p><img class= 'stimulus' src='images/baseline/Street 2.jpg'></img></p>","null","","1549475095144","","","","","","",""
"null","","html-keyboard-response","92","2650671","0.0-6.0-10.4","01","<p><img class= 'stimulus' src='images/baseline/03112v.jpg'></img></p>","null","","1549475095293","","","","","","",""
"null","","html-keyboard-response","93","2650820","0.0-6.0-11.4","01","<p><img class= 'stimulus' src='images/baseline/pexels-photo-1287089.jpeg'></img></p>","null","","1549475095443","","","","","","",""
"null","","html-keyboard-response","94","2650970","0.0-6.0-12.4","01","<p><img class= 'stimulus' src='images/baseline/Lake 14.jpg'></img></p>","null","","1549475095594","12","","","","","",""
"null","","html-keyboard-response","95","2651121","0.0-6.0-13.4","01","<p><img class= 'stimulus' src='images/baseline/landscape40.jpg'></img></p>","null","","1549475095744","","","","","","",""
"null","","html-keyboard-response","96","2651271","0.0-6.0-14.4","01","<p><img class= 'stimulus' src='images/baseline/05145v.jpg'></img></p>","null","","1549475095893","14","","","","","",""
"null","","html-keyboard-response","97","2651421","0.0-6.0-15.4","01","<p><img class= 'stimulus' src='images/baseline/05247v.jpg'></img></p>","null","","1549475096043","","","","","","",""
"null","","html-keyboard-response","98","2651571","0.0-6.0-16.4","01","<p><img class= 'stimulus' src='images/baseline/tennis-court-net-buried-in-snow.jpg'></img></p>","null","","1549475096194","","","","","","",""
"null","","html-keyboard-response","99","2651737","0.0-6.0-17.4","01","<p><img class= 'stimulus' src='images/baseline/pexels-photo-351264.jpeg'></img></p>","null","","1549475096345","","","","","","",""
"949.2999999979511","","html-button-response","100","2653701","0.0-6.0-18.4","01","<div class = ""response_question"">WAS THE IMAGE ROTATED...</div>","","3","","","6","2","bas","right","practice","true"
"1358.3999999994412","","html-button-response","101","2655061","0.0-6.0-0.5","01","","","0","","","","","","","",""
"null","","html-keyboard-response","102","2655187","0.0-6.0-1.5","01","<p><img class= 'stimulus' src='images/baseline/03217v.jpg'></img></p>","null","","1549475099810","","","","","","",""
"null","","html-keyboard-response","103","2655337","0.0-6.0-2.5","01","<p><img class= 'stimulus' src='images/baseline/empire-state-building.jpg'></img></p>","null","","1549475099961","","","","","","",""
"null","","html-keyboard-response","104","2655488","0.0-6.0-3.5","01","<p><img class= 'stimulus' src='images/baseline/building16.jpg'></img></p>","null","","1549475100109","","","","","","",""
"null","","html-keyboard-response","105","2655637","0.0-6.0-4.5","01","<p><img class= 'stimulus' src='images/baseline/Kocherbaumwald-01.jpg'></img></p>","null","","1549475100259","4","","","","","",""
"null","","html-keyboard-response","106","2655788","0.0-6.0-5.5","01","<p><img class= 'stimulus' src='images/baseline/03114v.jpg'></img></p>","null","","1549475100409","","","","","","",""
"null","","html-keyboard-response","107","2655937","0.0-6.0-6.5","01","<p><img class= 'stimulus' src='images/baseline/05280v.jpg'></img></p>","null","","1549475100560","6","","","","","",""
"null","","html-keyboard-response","108","2656088","0.0-6.0-7.5","01","<p><img class= 'stimulus' src='images/baseline/landscape14.jpg'></img></p>","null","","1549475100711","","","","","","",""
"null","","html-keyboard-response","109","2656238","0.0-6.0-8.5","01","<p><img class= 'stimulus' src='images/baseline/04010v.jpg'></img></p>","null","","1549475100860","8","","","","","",""
"null","","html-keyboard-response","110","2656381","0.0-6.0-9.5","01","<p><img class= 'stimulus' src='images/baseline/city-silhouette-at-sunset-871291580819Esw.jpg'></img></p>","null","","1549475101009","","","","","","",""
"null","","html-keyboard-response","111","2656537","0.0-6.0-10.5","01","<p><img class= 'stimulus' src='images/baseline/pexels-photo-808465.jpeg'></img></p>","null","","1549475101153","","","","","","",""
"null","","html-keyboard-response","112","2656688","0.0-6.0-11.5","01","<p><img class= 'stimulus' src='images/baseline/04300v.jpg'></img></p>","null","","1549475101310","","","","","","",""
"null","","html-keyboard-response","113","2656837","0.0-6.0-12.5","01","<p><img class= 'stimulus' src='images/baseline/building_at_national_conservation.jpg'></img></p>","null","","1549475101460","12","","","","","",""
"null","","html-keyboard-response","114","2656987","0.0-6.0-13.5","01","<p><img class= 'stimulus' src='images/baseline/landscape37.jpg'></img></p>","null","","1549475101610","","","","","","",""
"null","","html-keyboard-response","115","2657137","0.0-6.0-14.5","01","<p><img class= 'stimulus' src='images/target/building1.jpg'></img></p>","null","","1549475101760","14","","","","","",""
"null","","html-keyboard-response","116","2657287","0.0-6.0-15.5","01","<p><img class= 'stimulus' src='images/baseline/landscape22.jpg'></img></p>","null","","1549475101909","","","","","","",""
"null","","html-keyboard-response","117","2657437","0.0-6.0-16.5","01","<p><img class= 'stimulus' src='images/baseline/Happy pose 3.jpg'></img></p>","null","","1549475102060","","","","","","",""
"null","","html-keyboard-response","118","2657604","0.0-6.0-17.5","01","<p><img class= 'stimulus' src='images/baseline/05186v.jpg'></img></p>","null","","1549475102210","","","","","","",""
"764.9000000003725","","html-button-response","119","2659373","0.0-6.0-18.5","01","<div class = ""response_question"">WAS THE IMAGE ROTATED...</div>","","3","","","6","8","bas","right","practice","true"
"2502.200000000652","","html-button-response","120","2661877","0.0-6.0-0.6","01","","","0","","","","","","","",""
"null","","html-keyboard-response","121","2662005","0.0-6.0-1.6","01","<p><img class= 'stimulus' src='images/baseline/meadow-with-mountain-in-background.jpg'></img></p>","null","","1549475106626","","","","","","",""
"null","","html-keyboard-response","122","2662154","0.0-6.0-2.6","01","<p><img class= 'stimulus' src='images/baseline/building4.jpg'></img></p>","null","","1549475106778","","","","","","",""
"null","","html-keyboard-response","123","2662305","0.0-6.0-3.6","01","<p><img class= 'stimulus' src='images/baseline/landscape16.jpg'></img></p>","null","","1549475106926","","","","","","",""
"null","","html-keyboard-response","124","2662454","0.0-6.0-4.6","01","<p><img class= 'stimulus' src='images/baseline/landscape3.jpg'></img></p>","null","","1549475107077","4","","","","","",""
"null","","html-keyboard-response","125","2662604","0.0-6.0-5.6","01","<p><img class= 'stimulus' src='images/baseline/03148v.jpg'></img></p>","null","","1549475107228","","","","","","",""
"null","","html-keyboard-response","126","2662755","0.0-6.0-6.6","01","<p><img class= 'stimulus' src='images/baseline/pexels-photo-1840893.jpeg'></img></p>","null","","1549475107377","6","","","","","",""
"null","","html-keyboard-response","127","2662904","0.0-6.0-7.6","01","<p><img class= 'stimulus' src='images/baseline/autumn-in-red-rocks-park.jpg'></img></p>","null","","1549475107526","","","","","","",""
"null","","html-keyboard-response","128","2663054","0.0-6.0-8.6","01","<p><img class= 'stimulus' src='images/baseline/flooded-bridge.jpg'></img></p>","null","","1549475107676","8","","","","","",""
"null","","html-keyboard-response","129","2663205","0.0-6.0-9.6","01","<p><img class= 'stimulus' src='images/baseline/05161v.jpg'></img></p>","null","","1549475107826","","","","","","",""
"null","","html-keyboard-response","130","2663354","0.0-6.0-10.6","01","<p><img class= 'stimulus' src='images/baseline/agriculture-bright-clouds-440731.jpg'></img></p>","null","","1549475107977","","","","","","",""
"null","","html-keyboard-response","131","2663505","0.0-6.0-11.6","01","<p><img class= 'stimulus' src='images/baseline/landscape13.jpg'></img></p>","null","","1549475108128","","","","","","",""
"null","","html-keyboard-response","132","2663655","0.0-6.0-12.6","01","<p><img class= 'stimulus' src='images/baseline/03162v.jpg'></img></p>","null","","1549475108278","12","","","","","",""
"null","","html-keyboard-response","133","2663805","0.0-6.0-13.6","01","<p><img class= 'stimulus' src='images/baseline/Lake 15.jpg'></img></p>","null","","1549475108428","","","","","","",""
"null","","html-keyboard-response","134","2663955","0.0-6.0-14.6","01","<p><img class= 'stimulus left-rotate' src='images/target/lone-tree-1934897_640.jpg'></img></p>","null","","1549475108577","14","","","","","",""
"null","","html-keyboard-response","135","2664105","0.0-6.0-15.6","01","<p><img class= 'stimulus' src='images/baseline/03098v.jpg'></img></p>","null","","1549475108727","","","","","","",""
"null","","html-keyboard-response","136","2664254","0.0-6.0-16.6","01","<p><img class= 'stimulus' src='images/baseline/Bridge 1.jpg'></img></p>","null","","1549475108877","","","","","","",""
"null","","html-keyboard-response","137","2664422","0.0-6.0-17.6","01","<p><img class= 'stimulus' src='images/baseline/house6.jpg'></img></p>","null","","1549475109028","","","","","","",""
"1313.5","","html-button-response","138","2666749","0.0-6.0-18.6","01","<div class = ""response_question"">WAS THE IMAGE ROTATED...</div>","","0","","","6","8","bas","left","practice","true"
"1126.5999999996275","","html-button-response","139","2667877","0.0-6.0-0.7","01","","","0","","","","","","","",""
"null","","html-keyboard-response","140","2668005","0.0-6.0-1.7","01","<p><img class= 'stimulus' src='images/baseline/scenic-mountain-landscape.jpg'></img></p>","null","","1549475112626","","","","","","",""
"null","","html-keyboard-response","141","2668155","0.0-6.0-2.7","01","<p><img class= 'stimulus' src='images/baseline/04085v.jpg'></img></p>","null","","1549475112776","","","","","","",""
"null","","html-keyboard-response","142","2668305","0.0-6.0-3.7","01","<p><img class= 'stimulus' src='images/baseline/03075v.jpg'></img></p>","null","","1549475112927","","","","","","",""
"null","","html-keyboard-response","143","2668455","0.0-6.0-4.7","01","<p><img class= 'stimulus' src='images/baseline/04162v.jpg'></img></p>","null","","1549475113076","4","","","","","",""
"null","","html-keyboard-response","144","2668604","0.0-6.0-5.7","01","<p><img class= 'stimulus' src='images/baseline/Sky 1.jpg'></img></p>","null","","1549475113227","","","","","","",""
"null","","html-keyboard-response","145","2668754","0.0-6.0-6.7","01","<p><img class= 'stimulus' src='images/target/cactus1.jpg'></img></p>","null","","1549475113377","6","","","","","",""
"null","","html-keyboard-response","146","2668904","0.0-6.0-7.7","01","<p><img class= 'stimulus' src='images/baseline/05240v.jpg'></img></p>","null","","1549475113528","","","","","","",""
"null","","html-keyboard-response","147","2669054","0.0-6.0-8.7","01","<p><img class= 'stimulus' src='images/baseline/landscape1.jpg'></img></p>","null","","1549475113676","8","","","","","",""
"null","","html-keyboard-response","148","2669204","0.0-6.0-9.7","01","<p><img class= 'stimulus' src='images/baseline/pexels-photo-440731.jpeg'></img></p>","null","","1549475113826","","","","","","",""
"null","","html-keyboard-response","149","2669354","0.0-6.0-10.7","01","<p><img class= 'stimulus' src='images/baseline/lake 2.jpg'></img></p>","null","","1549475113976","","","","","","",""
"null","","html-keyboard-response","150","2669503","0.0-6.0-11.7","01","<p><img class= 'stimulus' src='images/baseline/04193v.jpg'></img></p>","null","","1549475114126","","","","","","",""
"null","","html-keyboard-response","151","2669653","0.0-6.0-12.7","01","<p><img class= 'stimulus' src='images/baseline/Street 5.jpg'></img></p>","null","","1549475114276","12","","","","","",""
"null","","html-keyboard-response","152","2669804","0.0-6.0-13.7","01","<p><img class= 'stimulus' src='images/baseline/05279v.jpg'></img></p>","null","","1549475114428","","","","","","",""
"null","","html-keyboard-response","153","2669954","0.0-6.0-14.7","01","<p><img class= 'stimulus' src='images/baseline/house8.jpg'></img></p>","null","","1549475114577","14","","","","","",""
"null","","html-keyboard-response","154","2670104","0.0-6.0-15.7","01","<p><img class= 'stimulus' src='images/baseline/04031v.jpg'></img></p>","null","","1549475114726","","","","","","",""
"null","","html-keyboard-response","155","2670254","0.0-6.0-16.7","01","<p><img class= 'stimulus' src='images/baseline/building12.jpg'></img></p>","null","","1549475114877","","","","","","",""
"null","","html-keyboard-response","156","2670423","0.0-6.0-17.7","01","<p><img class= 'stimulus' src='images/baseline/house10.jpg'></img></p>","null","","1549475115026","","","","","","",""
"1037.7999999998137","","html-button-response","157","2672464","0.0-6.0-18.7","01","<div class = ""response_question"">WAS THE IMAGE ROTATED...</div>","","3","","","4","2","bas","right","practice","true"
"1374.299999999348","","html-button-response","158","2673840","0.0-6.0-0.8","01","","","0","","","","","","","",""
"null","","html-keyboard-response","159","2673924","0.0-6.0-1.8","01","<p><img class= 'stimulus' src='images/baseline/road 1(1).jpg'></img></p>","null","","1549475118596","","","","","","",""
"null","","html-keyboard-response","160","2674023","0.0-6.0-2.8","01","<p><img class= 'stimulus' src='images/baseline/field 4.jpg'></img></p>","null","","1549475118697","","","","","","",""
"null","","html-keyboard-response","161","2674122","0.0-6.0-3.8","01","<p><img class= 'stimulus' src='images/baseline/Bahia_Onelli_Parque_Nacional_Los_Glaciares_Patagonia_Argentina_Luca_Galuzzi_2005.jpg'></img></p>","null","","1549475118796","","","","","","",""
"null","","html-keyboard-response","162","2674223","0.0-6.0-4.8","01","<p><img class= 'stimulus' src='images/baseline/bird-flying-at-sunset.jpg'></img></p>","null","","1549475118897","4","","","","","",""
"null","","html-keyboard-response","163","2674323","0.0-6.0-5.8","01","<p><img class= 'stimulus' src='images/baseline/landscape7.jpg'></img></p>","null","","1549475118996","","","","","","",""
"null","","html-keyboard-response","164","2674423","0.0-6.0-6.8","01","<p><img class= 'stimulus left-rotate' src='images/target/landscape32.jpg'></img></p>","null","","1549475119096","6","","","","","",""
"null","","html-keyboard-response","165","2674523","0.0-6.0-7.8","01","<p><img class= 'stimulus' src='images/baseline/landscape12.jpg'></img></p>","null","","1549475119195","","","","","","",""
"null","","html-keyboard-response","166","2674624","0.0-6.0-8.8","01","<p><img class= 'stimulus' src='images/baseline/05189v.jpg'></img></p>","null","","1549475119295","8","","","","","",""
"null","","html-keyboard-response","167","2674723","0.0-6.0-9.8","01","<p><img class= 'stimulus' src='images/baseline/04130v.jpg'></img></p>","null","","1549475119396","","","","","","",""
"null","","html-keyboard-response","168","2674824","0.0-6.0-10.8","01","<p><img class= 'stimulus' src='images/baseline/building2.jpg'></img></p>","null","","1549475119496","","","","","","",""
"null","","html-keyboard-response","169","2674923","0.0-6.0-11.8","01","<p><img class= 'stimulus' src='images/baseline/Peyto_Lake-Banff_NP-Canada.jpg'></img></p>","null","","1549475119596","","","","","","",""
"null","","html-keyboard-response","170","2675023","0.0-6.0-12.8","01","<p><img class= 'stimulus' src='images/baseline/autumn-landscape-with-lake-fall-trees-mountains.jpg'></img></p>","null","","1549475119696","12","","","","","",""
"null","","html-keyboard-response","171","2675123","0.0-6.0-13.8","01","<p><img class= 'stimulus' src='images/baseline/__08_-_ITALY_-_Forli_under_snow_-_winter_landscape_of_city_(christmas).jpg'></img></p>","null","","1549475119796","","","","","","",""
"null","","html-keyboard-response","172","2675224","0.0-6.0-14.8","01","<p><img class= 'stimulus' src='images/baseline/04086v.jpg'></img></p>","null","","1549475119895","14","","","","","",""
"null","","html-keyboard-response","173","2675323","0.0-6.0-15.8","01","<p><img class= 'stimulus' src='images/baseline/farmhouse8.jpg'></img></p>","null","","1549475119996","","","","","","",""
"null","","html-keyboard-response","174","2675423","0.0-6.0-16.8","01","<p><img class= 'stimulus' src='images/baseline/pexels-photo-221125.jpeg'></img></p>","null","","1549475120097","","","","","","",""
"null","","html-keyboard-response","175","2675540","0.0-6.0-17.8","01","<p><img class= 'stimulus' src='images/baseline/04063v.jpg'></img></p>","null","","1549475120196","","","","","","",""
"1055.7999999998137","","html-button-response","176","2677599","0.0-6.0-18.8","01","<div class = ""response_question"">WAS THE IMAGE ROTATED...</div>","","0","","","4","2","bas","left","practice","true"
"1350.3000000002794","","html-button-response","177","2678952","0.0-6.0-0.9","01","","","0","","","","","","","",""
"null","","html-keyboard-response","178","2679023","0.0-6.0-1.9","01","<p><img class= 'stimulus' src='images/baseline/pexels-photo-1048039.jpeg'></img></p>","null","","1549475123696","","","","","","",""
"null","","html-keyboard-response","179","2679123","0.0-6.0-2.9","01","<p><img class= 'stimulus' src='images/baseline/pexels-photo-1054289.jpeg'></img></p>","null","","1549475123796","","","","","","",""
"null","","html-keyboard-response","180","2679223","0.0-6.0-3.9","01","<p><img class= 'stimulus' src='images/baseline/02947v.jpg'></img></p>","null","","1549475123897","","","","","","",""
"null","","html-keyboard-response","181","2679323","0.0-6.0-4.9","01","<p><img class= 'stimulus' src='images/baseline/pexels-photo-210617.jpeg'></img></p>","null","","1549475123996","4","","","","","",""
"null","","html-keyboard-response","182","2679424","0.0-6.0-5.9","01","<p><img class= 'stimulus' src='images/baseline/architecture-956332_1280.jpg'></img></p>","null","","1549475124095","","","","","","",""
"null","","html-keyboard-response","183","2679523","0.0-6.0-6.9","01","<p><img class= 'stimulus' src='images/target/church-2306128_640.jpg'></img></p>","null","","1549475124195","6","","","","","",""
"null","","html-keyboard-response","184","2679623","0.0-6.0-7.9","01","<p><img class= 'stimulus' src='images/baseline/02988v.jpg'></img></p>","null","","1549475124295","","","","","","",""
"null","","html-keyboard-response","185","2679724","0.0-6.0-8.9","01","<p><img class= 'stimulus' src='images/baseline/house11.jpg'></img></p>","null","","1549475124395","8","","","","","",""
"null","","html-keyboard-response","186","2679823","0.0-6.0-9.9","01","<p><img class= 'stimulus' src='images/baseline/4k-wallpaper-agriculture-clouds-842711.jpg'></img></p>","null","","1549475124495","","","","","","",""
"null","","html-keyboard-response","187","2679924","0.0-6.0-10.9","01","<p><img class= 'stimulus' src='images/baseline/pexels-photo-1837621.jpeg'></img></p>","null","","1549475124596","","","","","","",""
"null","","html-keyboard-response","188","2680024","0.0-6.0-11.9","01","<p><img class= 'stimulus' src='images/baseline/sunny-landscape-with-dry-brush-and-mountain-background.jpg'></img></p>","null","","1549475124696","","","","","","",""
"null","","html-keyboard-response","189","2680122","0.0-6.0-12.9","01","<p><img class= 'stimulus' src='images/baseline/Road 1.jpg'></img></p>","null","","1549475124796","12","","","","","",""
"null","","html-keyboard-response","190","2680223","0.0-6.0-13.9","01","<p><img class= 'stimulus' src='images/baseline/building3.jpg'></img></p>","null","","1549475124897","","","","","","",""
"null","","html-keyboard-response","191","2680324","0.0-6.0-14.9","01","<p><img class= 'stimulus' src='images/baseline/building6.jpg'></img></p>","null","","1549475124996","14","","","","","",""
"null","","html-keyboard-response","192","2680423","0.0-6.0-15.9","01","<p><img class= 'stimulus' src='images/baseline/05203v.jpg'></img></p>","null","","1549475125096","","","","","","",""
"null","","html-keyboard-response","193","2680523","0.0-6.0-16.9","01","<p><img class= 'stimulus' src='images/baseline/hiking-trail.jpg'></img></p>","null","","1549475125197","","","","","","",""
"null","","html-keyboard-response","194","2680641","0.0-6.0-17.9","01","<p><img class= 'stimulus' src='images/baseline/sun-through-winter-tree-branches1.jpg'></img></p>","null","","1549475125296","","","","","","",""
"724.4999999981374","","html-button-response","195","2682368","0.0-6.0-18.9","01","<div class = ""response_question"">WAS THE IMAGE ROTATED...</div>","","3","","","4","2","bas","right","practice","true"
"990.2000000001863","","html-button-response","196","2683360","0.0-6.0-0.10","01","","","0","","","","","","","",""
"null","","html-keyboard-response","197","2683440","0.0-6.0-1.10","01","<p><img class= 'stimulus' src='images/baseline/farmhouse3.jpg'></img></p>","null","","1549475128113","","","","","","",""
"null","","html-keyboard-response","198","2683540","0.0-6.0-2.10","01","<p><img class= 'stimulus' src='images/baseline/Dock 1.jpg'></img></p>","null","","1549475128214","","","","","","",""
"null","","html-keyboard-response","199","2683640","0.0-6.0-3.10","01","<p><img class= 'stimulus' src='images/baseline/Linden,_paysage.jpg'></img></p>","null","","1549475128312","","","","","","",""
"null","","html-keyboard-response","200","2683740","0.0-6.0-4.10","01","<p><img class= 'stimulus' src='images/baseline/Beach 3.jpg'></img></p>","null","","1549475128412","4","","","","","",""
"null","","html-keyboard-response","201","2683840","0.0-6.0-5.10","01","<p><img class= 'stimulus' src='images/baseline/03041v.jpg'></img></p>","null","","1549475128512","","","","","","",""
"null","","html-keyboard-response","202","2683940","0.0-6.0-6.10","01","<p><img class= 'stimulus' src='images/baseline/landscape36.jpg'></img></p>","null","","1549475128614","6","","","","","",""
"null","","html-keyboard-response","203","2684040","0.0-6.0-7.10","01","<p><img class= 'stimulus' src='images/baseline/03201v.jpg'></img></p>","null","","1549475128714","","","","","","",""
"null","","html-keyboard-response","204","2684141","0.0-6.0-8.10","01","<p><img class= 'stimulus' src='images/target/house-estate-1100x733.jpg'></img></p>","null","","1549475128812","8","","","","","",""
"null","","html-keyboard-response","205","2684241","0.0-6.0-9.10","01","<p><img class= 'stimulus' src='images/baseline/farmhouse4.jpg'></img></p>","null","","1549475128912","","","","","","",""
"null","","html-keyboard-response","206","2684340","0.0-6.0-10.10","01","<p><img class= 'stimulus' src='images/baseline/landscape29.jpg'></img></p>","null","","1549475129012","","","","","","",""
"null","","html-keyboard-response","207","2684440","0.0-6.0-11.10","01","<p><img class= 'stimulus' src='images/baseline/04222v.jpg'></img></p>","null","","1549475129113","","","","","","",""
"null","","html-keyboard-response","208","2684540","0.0-6.0-12.10","01","<p><img class= 'stimulus' src='images/baseline/Sunset 3.jpg'></img></p>","null","","1549475129213","12","","","","","",""
"null","","html-keyboard-response","209","2684640","0.0-6.0-13.10","01","<p><img class= 'stimulus' src='images/baseline/pexels-photo-750108.jpeg'></img></p>","null","","1549475129313","","","","","","",""
"null","","html-keyboard-response","210","2684740","0.0-6.0-14.10","01","<p><img class= 'stimulus' src='images/baseline/04229v.jpg'></img></p>","null","","1549475129412","14","","","","","",""
"null","","html-keyboard-response","211","2684840","0.0-6.0-15.10","01","<p><img class= 'stimulus' src='images/baseline/hills 4.jpg'></img></p>","null","","1549475129513","","","","","","",""
"null","","html-keyboard-response","212","2684940","0.0-6.0-16.10","01","<p><img class= 'stimulus' src='images/baseline/04060v.jpg'></img></p>","null","","1549475129612","","","","","","",""
"null","","html-keyboard-response","213","2685056","0.0-6.0-17.10","01","<p><img class= 'stimulus' src='images/baseline/lake3.jpg'></img></p>","null","","1549475129712","","","","","","",""
"1092.0999999996275","","html-button-response","214","2687152","0.0-6.0-18.10","01","<div class = ""response_question"">WAS THE IMAGE ROTATED...</div>","","4","","","6","2","bas","right","practice","true"
"1222.1000000010245","","html-button-response","215","2688376","0.0-6.0-0.11","01","","","0","","","","","","","",""
"null","","html-keyboard-response","216","2688458","0.0-6.0-1.11","01","<p><img class= 'stimulus' src='images/baseline/03204v.jpg'></img></p>","null","","1549475133130","","","","","","",""
"null","","html-keyboard-response","217","2688557","0.0-6.0-2.11","01","<p><img class= 'stimulus' src='images/baseline/04201v.jpg'></img></p>","null","","1549475133229","","","","","","",""
"null","","html-keyboard-response","218","2688657","0.0-6.0-3.11","01","<p><img class= 'stimulus' src='images/baseline/Niinsaare_jarv.jpg'></img></p>","null","","1549475133329","","","","","","",""
"null","","html-keyboard-response","219","2688757","0.0-6.0-4.11","01","<p><img class= 'stimulus' src='images/baseline/landscape39.jpg'></img></p>","null","","1549475133429","4","","","","","",""
"null","","html-keyboard-response","220","2688856","0.0-6.0-5.11","01","<p><img class= 'stimulus' src='images/baseline/pexels-photo-280222.jpeg'></img></p>","null","","1549475133529","","","","","","",""
"null","","html-keyboard-response","221","2688957","0.0-6.0-6.11","01","<p><img class= 'stimulus' src='images/baseline/pexels-photo-459203.jpeg'></img></p>","null","","1549475133629","6","","","","","",""
"null","","html-keyboard-response","222","2689058","0.0-6.0-7.11","01","<p><img class= 'stimulus' src='images/baseline/landscape31.jpg'></img></p>","null","","1549475133730","","","","","","",""
"null","","html-keyboard-response","223","2689156","0.0-6.0-8.11","01","<p><img class= 'stimulus' src='images/baseline/river 1.jpg'></img></p>","null","","1549475133830","8","","","","","",""
"null","","html-keyboard-response","224","2689258","0.0-6.0-9.11","01","<p><img class= 'stimulus' src='images/baseline/Sunset 5.jpg'></img></p>","null","","1549475133931","","","","","","",""
"null","","html-keyboard-response","225","2689357","0.0-6.0-10.11","01","<p><img class= 'stimulus' src='images/baseline/05242v.jpg'></img></p>","null","","1549475134029","","","","","","",""
"null","","html-keyboard-response","226","2689457","0.0-6.0-11.11","01","<p><img class= 'stimulus' src='images/baseline/02982v.jpg'></img></p>","null","","1549475134128","","","","","","",""
"null","","html-keyboard-response","227","2689557","0.0-6.0-12.11","01","<p><img class= 'stimulus' src='images/baseline/landscape6.jpg'></img></p>","null","","1549475134229","12","","","","","",""
"null","","html-keyboard-response","228","2689657","0.0-6.0-13.11","01","<p><img class= 'stimulus' src='images/baseline/05198v.jpg'></img></p>","null","","1549475134329","","","","","","",""
"null","","html-keyboard-response","229","2689757","0.0-6.0-14.11","01","<p><img class= 'stimulus left-rotate' src='images/target/lone-tree.png'></img></p>","null","","1549475134429","14","","","","","",""
"null","","html-keyboard-response","230","2689857","0.0-6.0-15.11","01","<p><img class= 'stimulus' src='images/baseline/agriculture-countryside-crop-259280.jpg'></img></p>","null","","1549475134529","","","","","","",""
"null","","html-keyboard-response","231","2689958","0.0-6.0-16.11","01","<p><img class= 'stimulus' src='images/baseline/landscape38.jpg'></img></p>","null","","1549475134630","","","","","","",""
"null","","html-keyboard-response","232","2690073","0.0-6.0-17.11","01","<p><img class= 'stimulus' src='images/baseline/05158v.jpg'></img></p>","null","","1549475134730","","","","","","",""
"859.5000000004657","","html-button-response","233","2691936","0.0-6.0-18.11","01","<div class = ""response_question"">WAS THE IMAGE ROTATED...</div>","","1","","","6","8","bas","left","practice","true"
"1302.4999999995343","","html-button-response","234","2693240","0.0-6.0-0.12","01","","","0","","","","","","","",""
"null","","html-keyboard-response","235","2693324","0.0-6.0-1.12","01","<p><img class= 'stimulus' src='images/baseline/Path 1.jpg'></img></p>","null","","1549475137996","","","","","","",""
"null","","html-keyboard-response","236","2693423","0.0-6.0-2.12","01","<p><img class= 'stimulus' src='images/baseline/farmhouse9.jpg'></img></p>","null","","1549475138096","","","","","","",""
"null","","html-keyboard-response","237","2693524","0.0-6.0-3.12","01","<p><img class= 'stimulus' src='images/baseline/trees 23.jpg'></img></p>","null","","1549475138196","","","","","","",""
"null","","html-keyboard-response","238","2693624","0.0-6.0-4.12","01","<p><img class= 'stimulus' src='images/baseline/red-rocks-park.jpg'></img></p>","null","","1549475138296","4","","","","","",""
"null","","html-keyboard-response","239","2693723","0.0-6.0-5.12","01","<p><img class= 'stimulus' src='images/baseline/foreclosed_home.jpg'></img></p>","null","","1549475138397","","","","","","",""
"null","","html-keyboard-response","240","2693824","0.0-6.0-6.12","01","<p><img class= 'stimulus' src='images/baseline/Beach 2.jpg'></img></p>","null","","1549475138495","6","","","","","",""
"null","","html-keyboard-response","241","2693924","0.0-6.0-7.12","01","<p><img class= 'stimulus' src='images/baseline/farmhouse7.jpg'></img></p>","null","","1549475138596","","","","","","",""
"null","","html-keyboard-response","242","2694024","0.0-6.0-8.12","01","<p><img class= 'stimulus' src='images/baseline/02971v.jpg'></img></p>","null","","1549475138696","8","","","","","",""
"null","","html-keyboard-response","243","2694123","0.0-6.0-9.12","01","<p><img class= 'stimulus' src='images/baseline/landscape23.jpg'></img></p>","null","","1549475138796","","","","","","",""
"null","","html-keyboard-response","244","2694224","0.0-6.0-10.12","01","<p><img class= 'stimulus' src='images/baseline/Paysage_enneige_02.jpg'></img></p>","null","","1549475138896","","","","","","",""
"null","","html-keyboard-response","245","2694325","0.0-6.0-11.12","01","<p><img class= 'stimulus' src='images/baseline/snowy tree.jpg'></img></p>","null","","1549475138996","","","","","","",""
"null","","html-keyboard-response","246","2694424","0.0-6.0-12.12","01","<p><img class= 'stimulus' src='images/target/building4.jpg'></img></p>","null","","1549475139096","12","","","","","",""
"null","","html-keyboard-response","247","2694523","0.0-6.0-13.12","01","<p><img class= 'stimulus' src='images/baseline/Lake 7.jpg'></img></p>","null","","1549475139196","","","","","","",""
"null","","html-keyboard-response","248","2694624","0.0-6.0-14.12","01","<p><img class= 'stimulus' src='images/baseline/Skyscraper 2.jpg'></img></p>","null","","1549475139297","14","","","","","",""
"null","","html-keyboard-response","249","2694723","0.0-6.0-15.12","01","<p><img class= 'stimulus' src='images/baseline/house1.jpg'></img></p>","null","","1549475139397","","","","","","",""
"null","","html-keyboard-response","250","2694823","0.0-6.0-16.12","01","<p><img class= 'stimulus' src='images/baseline/lake 1.jpg'></img></p>","null","","1549475139497","","","","","","",""
"null","","html-keyboard-response","251","2694941","0.0-6.0-17.12","01","<p><img class= 'stimulus' src='images/baseline/04158v.jpg'></img></p>","null","","1549475139595","","","","","","",""
"872.9000000003725","","html-button-response","252","2696816","0.0-6.0-18.12","01","<div class = ""response_question"">WAS THE IMAGE ROTATED...</div>","","3","","","4","8","bas","right","practice","true"
"1182.2000000011176","","html-button-response","253","2698000","0.0-6.0-0.13","01","","","0","","","","","","","",""
"null","","html-keyboard-response","254","2698074","0.0-6.0-1.13","01","<p><img class= 'stimulus' src='images/baseline/sunset-over-the-lake.jpg'></img></p>","null","","1549475142745","","","","","","",""
"null","","html-keyboard-response","255","2698175","0.0-6.0-2.13","01","<p><img class= 'stimulus' src='images/baseline/cranes 1.jpg'></img></p>","null","","1549475142846","","","","","","",""
"null","","html-keyboard-response","256","2698273","0.0-6.0-3.13","01","<p><img class= 'stimulus' src='images/baseline/pexels-photo-259280.jpeg'></img></p>","null","","1549475142946","","","","","","",""
"null","","html-keyboard-response","257","2698374","0.0-6.0-4.13","01","<p><img class= 'stimulus' src='images/baseline/house7.jpg'></img></p>","null","","1549475143047","4","","","","","",""
"null","","html-keyboard-response","258","2698473","0.0-6.0-5.13","01","<p><img class= 'stimulus' src='images/baseline/04064v.jpg'></img></p>","null","","1549475143146","","","","","","",""
"null","","html-keyboard-response","259","2698573","0.0-6.0-6.13","01","<p><img class= 'stimulus' src='images/baseline/landscape33.jpg'></img></p>","null","","1549475143246","6","","","","","",""
"null","","html-keyboard-response","260","2698674","0.0-6.0-7.13","01","<p><img class= 'stimulus' src='images/baseline/landscape19.jpg'></img></p>","null","","1549475143347","","","","","","",""
"null","","html-keyboard-response","261","2698773","0.0-6.0-8.13","01","<p><img class= 'stimulus left-rotate' src='images/target/dreifaltigkeitskirche_sandhausen_837699.jpg'></img></p>","null","","1549475143446","8","","","","","",""
"null","","html-keyboard-response","262","2698873","0.0-6.0-9.13","01","<p><img class= 'stimulus' src='images/baseline/Lake 8.jpg'></img></p>","null","","1549475143546","","","","","","",""
"null","","html-keyboard-response","263","2698974","0.0-6.0-10.13","01","<p><img class= 'stimulus' src='images/baseline/05131v.jpg'></img></p>","null","","1549475143647","","","","","","",""
"null","","html-keyboard-response","264","2699074","0.0-6.0-11.13","01","<p><img class= 'stimulus' src='images/baseline/house2.jpg'></img></p>","null","","1549475143747","","","","","","",""
"null","","html-keyboard-response","265","2699174","0.0-6.0-12.13","01","<p><img class= 'stimulus' src='images/baseline/Freudenberg_sg_Switzerland.jpg'></img></p>","null","","1549475143847","12","","","","","",""
"null","","html-keyboard-response","266","2699274","0.0-6.0-13.13","01","<p><img class= 'stimulus' src='images/baseline/house3.jpg'></img></p>","null","","1549475143946","","","","","","",""
"null","","html-keyboard-response","267","2699374","0.0-6.0-14.13","01","<p><img class= 'stimulus' src='images/baseline/pexels-photo-894312.jpeg'></img></p>","null","","1549475144046","14","","","","","",""
"null","","html-keyboard-response","268","2699474","0.0-6.0-15.13","01","<p><img class= 'stimulus' src='images/baseline/Sailing 3.jpg'></img></p>","null","","1549475144147","","","","","","",""
"null","","html-keyboard-response","269","2699574","0.0-6.0-16.13","01","<p><img class= 'stimulus' src='images/baseline/red rocks from afar.jpg'></img></p>","null","","1549475144246","","","","","","",""
"null","","html-keyboard-response","270","2699691","0.0-6.0-17.13","01","<p><img class= 'stimulus' src='images/baseline/lone-old-cottonwood-tree.jpg'></img></p>","null","","1549475144346","","","","","","",""
"1035.3999999989755","","html-button-response","271","2701743","0.0-6.0-18.13","01","<div class = ""response_question"">WAS THE IMAGE ROTATED...</div>","","0","","","6","2","bas","left","practice","true"
"1222.0999999991618","","html-button-response","272","2702967","0.0-6.0-0.14","01","","","0","","","","","","","",""
"null","","html-keyboard-response","273","2703041","0.0-6.0-1.14","01","<p><img class= 'stimulus' src='images/baseline/pexels-photo-541101.jpeg'></img></p>","null","","1549475147713","","","","","","",""
"null","","html-keyboard-response","274","2703141","0.0-6.0-2.14","01","<p><img class= 'stimulus' src='images/baseline/church-silhouette-8712964986014Kb.jpg'></img></p>","null","","1549475147814","","","","","","",""
"null","","html-keyboard-response","275","2703241","0.0-6.0-3.14","01","<p><img class= 'stimulus' src='images/baseline/Lake 9.jpg'></img></p>","null","","1549475147914","","","","","","",""
"null","","html-keyboard-response","276","2703340","0.0-6.0-4.14","01","<p><img class= 'stimulus' src='images/baseline/Lake 13.jpg'></img></p>","null","","1549475148013","4","","","","","",""
"null","","html-keyboard-response","277","2703440","0.0-6.0-5.14","01","<p><img class= 'stimulus' src='images/baseline/02977v.jpg'></img></p>","null","","1549475148113","","","","","","",""
"null","","html-keyboard-response","278","2703540","0.0-6.0-6.14","01","<p><img class= 'stimulus' src='images/baseline/landscape11.jpg'></img></p>","null","","1549475148213","6","","","","","",""
"null","","html-keyboard-response","279","2703641","0.0-6.0-7.14","01","<p><img class= 'stimulus' src='images/baseline/05179v.jpg'></img></p>","null","","1549475148313","","","","","","",""
"null","","html-keyboard-response","280","2703741","0.0-6.0-8.14","01","<p><img class= 'stimulus' src='images/baseline/04196v.jpg'></img></p>","null","","1549475148413","8","","","","","",""
"null","","html-keyboard-response","281","2703840","0.0-6.0-9.14","01","<p><img class= 'stimulus' src='images/baseline/Grass 6.jpg'></img></p>","null","","1549475148513","","","","","","",""
"null","","html-keyboard-response","282","2703941","0.0-6.0-10.14","01","<p><img class= 'stimulus' src='images/baseline/kokkari-1523011968Xfr.jpg'></img></p>","null","","1549475148613","","","","","","",""
"null","","html-keyboard-response","283","2704041","0.0-6.0-11.14","01","<p><img class= 'stimulus' src='images/baseline/03066v.jpg'></img></p>","null","","1549475148713","","","","","","",""
"null","","html-keyboard-response","284","2704141","0.0-6.0-12.14","01","<p><img class= 'stimulus' src='images/baseline/Street 3.jpg'></img></p>","null","","1549475148813","12","","","","","",""
"null","","html-keyboard-response","285","2704240","0.0-6.0-13.14","01","<p><img class= 'stimulus' src='images/baseline/04014v.jpg'></img></p>","null","","1549475148914","","","","","","",""
"null","","html-keyboard-response","286","2704340","0.0-6.0-14.14","01","<p><img class= 'stimulus' src='images/target/pexels-photo-1102846.jpeg'></img></p>","null","","1549475149013","14","","","","","",""
"null","","html-keyboard-response","287","2704442","0.0-6.0-15.14","01","<p><img class= 'stimulus' src='images/baseline/geese-flying-over-lake-at-dusk.jpg'></img></p>","null","","1549475149114","","","","","","",""
"null","","html-keyboard-response","288","2704540","0.0-6.0-16.14","01","<p><img class= 'stimulus' src='images/baseline/landscape17.jpg'></img></p>","null","","1549475149212","","","","","","",""
"null","","html-keyboard-response","289","2704657","0.0-6.0-17.14","01","<p><img class= 'stimulus' src='images/baseline/04284v.jpg'></img></p>","null","","1549475149312","","","","","","",""
"1200.8000000002794","","html-button-response","290","2706864","0.0-6.0-18.14","01","<div class = ""response_question"">WAS THE IMAGE ROTATED...</div>","","4","","","6","8","bas","right","practice","true"
"1181.699999999255","","html-button-response","291","2708048","0.0-6.0-0.15","01","","","0","","","","","","","",""
"null","","html-keyboard-response","292","2708124","0.0-6.0-1.15","01","<p><img class= 'stimulus' src='images/baseline/Lake 3.jpg'></img></p>","null","","1549475152796","","","","","","",""
"null","","html-keyboard-response","293","2708223","0.0-6.0-2.15","01","<p><img class= 'stimulus' src='images/baseline/hills 1.jpg'></img></p>","null","","1549475152896","","","","","","",""
"null","","html-keyboard-response","294","2708324","0.0-6.0-3.15","01","<p><img class= 'stimulus' src='images/baseline/Camping 10.jpg'></img></p>","null","","1549475152998","","","","","","",""
"null","","html-keyboard-response","295","2708424","0.0-6.0-4.15","01","<p><img class= 'stimulus' src='images/baseline/field 1.jpg'></img></p>","null","","1549475153097","4","","","","","",""
"null","","html-keyboard-response","296","2708525","0.0-6.0-5.15","01","<p><img class= 'stimulus' src='images/baseline/03056v.jpg'></img></p>","null","","1549475153196","","","","","","",""
"null","","html-keyboard-response","297","2708623","0.0-6.0-6.15","01","<p><img class= 'stimulus' src='images/baseline/farmhouse6.jpg'></img></p>","null","","1549475153296","6","","","","","",""
"null","","html-keyboard-response","298","2708724","0.0-6.0-7.15","01","<p><img class= 'stimulus' src='images/baseline/Sunset 4.jpg'></img></p>","null","","1549475153396","","","","","","",""
"null","","html-keyboard-response","299","2708824","0.0-6.0-8.15","01","<p><img class= 'stimulus' src='images/baseline/04098v.jpg'></img></p>","null","","1549475153496","8","","","","","",""
"null","","html-keyboard-response","300","2708924","0.0-6.0-9.15","01","<p><img class= 'stimulus' src='images/baseline/Lake 5.jpg'></img></p>","null","","1549475153595","","","","","","",""
"null","","html-keyboard-response","301","2709023","0.0-6.0-10.15","01","<p><img class= 'stimulus' src='images/baseline/town-square-in-wroclaw-1539098440MZy.jpg'></img></p>","null","","1549475153695","","","","","","",""
"null","","html-keyboard-response","302","2709123","0.0-6.0-11.15","01","<p><img class= 'stimulus' src='images/baseline/grand-teton-mountains.jpg'></img></p>","null","","1549475153795","","","","","","",""
"null","","html-keyboard-response","303","2709224","0.0-6.0-12.15","01","<p><img class= 'stimulus left-rotate' src='images/target/landscape1.jpg'></img></p>","null","","1549475153896","12","","","","","",""
"null","","html-keyboard-response","304","2709324","0.0-6.0-13.15","01","<p><img class= 'stimulus' src='images/baseline/04040v.jpg'></img></p>","null","","1549475153996","","","","","","",""
"null","","html-keyboard-response","305","2709424","0.0-6.0-14.15","01","<p><img class= 'stimulus' src='images/baseline/05242v.jpg'></img></p>","null","","1549475154096","14","","","","","",""
"null","","html-keyboard-response","306","2709523","0.0-6.0-15.15","01","<p><img class= 'stimulus' src='images/baseline/landscape40.jpg'></img></p>","null","","1549475154196","","","","","","",""
"null","","html-keyboard-response","307","2709625","0.0-6.0-16.15","01","<p><img class= 'stimulus' src='images/baseline/04064v.jpg'></img></p>","null","","1549475154296","","","","","","",""
"null","","html-keyboard-response","308","2709741","0.0-6.0-17.15","01","<p><img class= 'stimulus' src='images/baseline/Freudenberg_sg_Switzerland.jpg'></img></p>","null","","1549475154396","","","","","","",""
"648.0000000009313","","html-button-response","309","2711392","0.0-6.0-18.15","01","<div class = ""response_question"">WAS THE IMAGE ROTATED...</div>","","1","","","4","8","bas","left","practice","true"
"55750.5","","html-button-response","310","2767143","0.0-7.0","01","<p>You have now completed the practice phase. We will now begin the real trials.         This is a reminder that you will be searching for a rotated image among the series of upright images.</p>         <p>Remember, please do not blink or move your eyes while the images are on the screen.</p>         <p>At the end of the experiment, the experimenter will be able to show you how accurate you were.</p>","","0","","","","","","","",""
"1342.8000000002794","","html-button-response","311","2768487","0.0-8.0-0.0-0.0","01","","","0","","","","","","","",""
"null","","html-keyboard-response","312","2768574","0.0-8.0-0.0-1.0","01","<p><img class= 'stimulus' src='images/baseline/03112v.jpg'></img></p>","null","","1549475213246","","","","","","",""
"null","","html-keyboard-response","313","2768674","0.0-8.0-0.0-2.0","01","<p><img class= 'stimulus' src='images/baseline/Lake 14.jpg'></img></p>","null","","1549475213347","","","","","","",""
"null","","html-keyboard-response","314","2768774","0.0-8.0-0.0-3.0","01","<p><img class= 'stimulus' src='images/baseline/pexels-photo-750108.jpeg'></img></p>","null","","1549475213447","","","","","","",""
"null","","html-keyboard-response","315","2768874","0.0-8.0-0.0-4.0","01","<p><img class= 'stimulus' src='images/neutral/Sleepy pose 2.jpg'></img></p>","null","","1549475213546","4","","","","","",""
"null","","html-keyboard-response","316","2768974","0.0-8.0-0.0-5.0","01","<p><img class= 'stimulus' src='images/baseline/architecture-1314416_1920.jpg'></img></p>","null","","1549475213647","","","","","","",""
"null","","html-keyboard-response","317","2769074","0.0-8.0-0.0-6.0","01","<p><img class= 'stimulus' src='images/baseline/04162v.jpg'></img></p>","null","","1549475213746","6","","","","","",""
"null","","html-keyboard-response","318","2769175","0.0-8.0-0.0-7.0","01","<p><img class= 'stimulus' src='images/baseline/farmhouse3.jpg'></img></p>","null","","1549475213846","","","","","","",""
"null","","html-keyboard-response","319","2769274","0.0-8.0-0.0-8.0","01","<p><img class= 'stimulus' src='images/baseline/landscape13.jpg'></img></p>","null","","1549475213947","8","","","","","",""
"null","","html-keyboard-response","320","2769375","0.0-8.0-0.0-9.0","01","<p><img class= 'stimulus' src='images/baseline/03114v.jpg'></img></p>","null","","1549475214046","","","","","","",""
"null","","html-keyboard-response","321","2769474","0.0-8.0-0.0-10.0","01","<p><img class= 'stimulus' src='images/baseline/hills 3.jpg'></img></p>","null","","1549475214147","","","","","","",""
"null","","html-keyboard-response","322","2769573","0.0-8.0-0.0-11.0","01","<p><img class= 'stimulus' src='images/baseline/pexels-photo-1840893.jpeg'></img></p>","null","","1549475214246","","","","","","",""
"null","","html-keyboard-response","323","2769675","0.0-8.0-0.0-12.0","01","<p><img class= 'stimulus' src='images/target/lookout_tower.jpg'></img></p>","null","","1549475214347","12","","","","","",""
"null","","html-keyboard-response","324","2769774","0.0-8.0-0.0-13.0","01","<p><img class= 'stimulus' src='images/baseline/pexels-photo-894312.jpeg'></img></p>","null","","1549475214448","","","","","","",""
"null","","html-keyboard-response","325","2769874","0.0-8.0-0.0-14.0","01","<p><img class= 'stimulus' src='images/baseline/04284v.jpg'></img></p>","null","","1549475214547","14","","","","","",""
"null","","html-keyboard-response","326","2769974","0.0-8.0-0.0-15.0","01","<p><img class= 'stimulus' src='images/baseline/farmhouse4.jpg'></img></p>","null","","1549475214646","","","","","","",""
"null","","html-keyboard-response","327","2770073","0.0-8.0-0.0-16.0","01","<p><img class= 'stimulus' src='images/baseline/pexels-photo-427676.jpeg'></img></p>","null","","1549475214746","","","","","","",""
"null","","html-keyboard-response","328","2770191","0.0-8.0-0.0-17.0","01","<p><img class= 'stimulus' src='images/baseline/building3.jpg'></img></p>","null","","1549475214846","","","","","","",""
"877.8000000002794","","html-button-response","329","2772072","0.0-8.0-0.0-18.0","01","<div class = ""response_question"">WAS THE IMAGE ROTATED...</div>","","3","","","4","8","neu","right","test","true"
"1070.1999999997206","","html-button-response","330","2773143","0.0-8.0-0.0-0.1","01","","","0","","","","","","","",""
"null","","html-keyboard-response","331","2773223","0.0-8.0-0.0-1.1","01","<p><img class= 'stimulus' src='images/baseline/chicago-skyline-at-night-1476869511p8U.jpg'></img></p>","null","","1549475217896","","","","","","",""
"null","","html-keyboard-response","332","2773323","0.0-8.0-0.0-2.1","01","<p><img class= 'stimulus' src='images/baseline/05292v.jpg'></img></p>","null","","1549475217998","","","","","","",""
"null","","html-keyboard-response","333","2773425","0.0-8.0-0.0-3.1","01","<p><img class= 'stimulus' src='images/baseline/Beach 8.jpg'></img></p>","null","","1549475218097","","","","","","",""
"null","","html-keyboard-response","334","2773524","0.0-8.0-0.0-4.1","01","<p><img class= 'stimulus' src='images/neutral/Dog 2.jpg'></img></p>","null","","1549475218197","4","","","","","",""
"null","","html-keyboard-response","335","2773624","0.0-8.0-0.0-5.1","01","<p><img class= 'stimulus' src='images/baseline/03045v.jpg'></img></p>","null","","1549475218297","","","","","","",""
"null","","html-keyboard-response","336","2773724","0.0-8.0-0.0-6.1","01","<p><img class= 'stimulus' src='images/target/transamerica-pyramid-530061_640.jpg'></img></p>","null","","1549475218396","6","","","","","",""
"null","","html-keyboard-response","337","2773824","0.0-8.0-0.0-7.1","01","<p><img class= 'stimulus' src='images/baseline/Lake 13.jpg'></img></p>","null","","1549475218496","","","","","","",""
"null","","html-keyboard-response","338","2773924","0.0-8.0-0.0-8.1","01","<p><img class= 'stimulus' src='images/baseline/04098v.jpg'></img></p>","null","","1549475218596","8","","","","","",""
"null","","html-keyboard-response","339","2774024","0.0-8.0-0.0-9.1","01","<p><img class= 'stimulus' src='images/baseline/building6.jpg'></img></p>","null","","1549475218696","","","","","","",""
"null","","html-keyboard-response","340","2774125","0.0-8.0-0.0-10.1","01","<p><img class= 'stimulus' src='images/baseline/valley 1.jpg'></img></p>","null","","1549475218797","","","","","","",""
"null","","html-keyboard-response","341","2774226","0.0-8.0-0.0-11.1","01","<p><img class= 'stimulus' src='images/baseline/Sunset 4.jpg'></img></p>","null","","1549475218897","","","","","","",""
"null","","html-keyboard-response","342","2774324","0.0-8.0-0.0-12.1","01","<p><img class= 'stimulus' src='images/baseline/Street 4.jpg'></img></p>","null","","1549475218997","12","","","","","",""
"null","","html-keyboard-response","343","2774423","0.0-8.0-0.0-13.1","01","<p><img class= 'stimulus' src='images/baseline/house1.jpg'></img></p>","null","","1549475219097","","","","","","",""
"null","","html-keyboard-response","344","2774525","0.0-8.0-0.0-14.1","01","<p><img class= 'stimulus' src='images/baseline/landscape23.jpg'></img></p>","null","","1549475219197","14","","","","","",""
"null","","html-keyboard-response","345","2774624","0.0-8.0-0.0-15.1","01","<p><img class= 'stimulus' src='images/baseline/vintage-art-deco-storefront.jpg'></img></p>","null","","1549475219297","","","","","","",""
"null","","html-keyboard-response","346","2774723","0.0-8.0-0.0-16.1","01","<p><img class= 'stimulus' src='images/baseline/lake 1.jpg'></img></p>","null","","1549475219398","","","","","","",""
"null","","html-keyboard-response","347","2774841","0.0-8.0-0.0-17.1","01","<p><img class= 'stimulus' src='images/baseline/Sunset 6.jpg'></img></p>","null","","1549475219496","","","","","","",""
"802.2000000001863","","html-button-response","348","2776648","0.0-8.0-0.0-18.1","01","<div class = ""response_question"">WAS THE IMAGE ROTATED...</div>","","4","","","4","2","neu","right","test","true"
"1293.9999999995343","","html-button-response","349","2777944","0.0-8.0-0.0-0.2","01","","","0","","","","","","","",""
"null","","html-keyboard-response","350","2778024","0.0-8.0-0.0-1.2","01","<p><img class= 'stimulus' src='images/baseline/hills 1.jpg'></img></p>","null","","1549475222696","","","","","","",""
"null","","html-keyboard-response","351","2778123","0.0-8.0-0.0-2.2","01","<p><img class= 'stimulus' src='images/baseline/Lake 5.jpg'></img></p>","null","","1549475222797","","","","","","",""
"null","","html-keyboard-response","352","2778224","0.0-8.0-0.0-3.2","01","<p><img class= 'stimulus' src='images/baseline/Dock 1.jpg'></img></p>","null","","1549475222897","","","","","","",""
"null","","html-keyboard-response","353","2778325","0.0-8.0-0.0-4.2","01","<p><img class= 'stimulus' src='images/negative/Explosion 1.jpg'></img></p>","null","","1549475222997","4","","","","","",""
"null","","html-keyboard-response","354","2778424","0.0-8.0-0.0-5.2","01","<p><img class= 'stimulus' src='images/baseline/Bridge 1.jpg'></img></p>","null","","1549475223098","","","","","","",""
"null","","html-keyboard-response","355","2778524","0.0-8.0-0.0-6.2","01","<p><img class= 'stimulus left-rotate' src='images/target/tree.jpeg'></img></p>","null","","1549475223196","6","","","","","",""
"null","","html-keyboard-response","356","2778625","0.0-8.0-0.0-7.2","01","<p><img class= 'stimulus' src='images/baseline/scenic-mountain-landscape.jpg'></img></p>","null","","1549475223296","","","","","","",""
"null","","html-keyboard-response","357","2778724","0.0-8.0-0.0-8.2","01","<p><img class= 'stimulus' src='images/baseline/city-silhouette-at-sunset-871291580819Esw.jpg'></img></p>","null","","1549475223396","8","","","","","",""
"null","","html-keyboard-response","358","2778824","0.0-8.0-0.0-9.2","01","<p><img class= 'stimulus' src='images/baseline/cyrillic.jpg'></img></p>","null","","1549475223496","","","","","","",""
"null","","html-keyboard-response","359","2778925","0.0-8.0-0.0-10.2","01","<p><img class= 'stimulus' src='images/baseline/pexels-photo-459203.jpeg'></img></p>","null","","1549475223597","","","","","","",""
"null","","html-keyboard-response","360","2779024","0.0-8.0-0.0-11.2","01","<p><img class= 'stimulus' src='images/baseline/05203v.jpg'></img></p>","null","","1549475223697","","","","","","",""
"null","","html-keyboard-response","361","2779124","0.0-8.0-0.0-12.2","01","<p><img class= 'stimulus' src='images/baseline/Sailing 3.jpg'></img></p>","null","","1549475223797","12","","","","","",""
"null","","html-keyboard-response","362","2779224","0.0-8.0-0.0-13.2","01","<p><img class= 'stimulus' src='images/baseline/03041v.jpg'></img></p>","null","","1549475223897","","","","","","",""
"null","","html-keyboard-response","363","2779324","0.0-8.0-0.0-14.2","01","<p><img class= 'stimulus' src='images/baseline/kokkari-1523011968Xfr.jpg'></img></p>","null","","1549475223997","14","","","","","",""
"null","","html-keyboard-response","364","2779424","0.0-8.0-0.0-15.2","01","<p><img class= 'stimulus' src='images/baseline/pexels-photo-1048039.jpeg'></img></p>","null","","1549475224097","","","","","","",""
"null","","html-keyboard-response","365","2779524","0.0-8.0-0.0-16.2","01","<p><img class= 'stimulus' src='images/baseline/road 1(1).jpg'></img></p>","null","","1549475224197","","","","","","",""
"null","","html-keyboard-response","366","2779641","0.0-8.0-0.0-17.2","01","<p><img class= 'stimulus' src='images/baseline/04021v.jpg'></img></p>","null","","1549475224296","","","","","","",""
"1145.9999999990687","","html-button-response","367","2781792","0.0-8.0-0.0-18.2","01","<div class = ""response_question"">WAS THE IMAGE ROTATED...</div>","","5","","","4","2","neg","left","test","false"
"862.1000000005588","","html-button-response","368","2782655","0.0-8.0-0.0-0.3","01","","","0","","","","","","","",""
"null","","html-keyboard-response","369","2782741","0.0-8.0-0.0-1.3","01","<p><img class= 'stimulus' src='images/baseline/geese-flying-over-lake-at-dusk.jpg'></img></p>","null","","1549475227414","","","","","","",""
"null","","html-keyboard-response","370","2782841","0.0-8.0-0.0-2.3","01","<p><img class= 'stimulus' src='images/baseline/05280v.jpg'></img></p>","null","","1549475227513","","","","","","",""
"null","","html-keyboard-response","371","2782940","0.0-8.0-0.0-3.3","01","<p><img class= 'stimulus' src='images/baseline/Sky 1.jpg'></img></p>","null","","1549475227613","","","","","","",""
"null","","html-keyboard-response","372","2783041","0.0-8.0-0.0-4.3","01","<p><img class= 'stimulus' src='images/baseline/grand-teton-mountains.jpg'></img></p>","null","","1549475227713","4","","","","","",""
"null","","html-keyboard-response","373","2783141","0.0-8.0-0.0-5.3","01","<p><img class= 'stimulus' src='images/baseline/landscape6.jpg'></img></p>","null","","1549475227814","","","","","","",""
"null","","html-keyboard-response","374","2783241","0.0-8.0-0.0-6.3","01","<p><img class= 'stimulus' src='images/baseline/Waterfall 1.jpg'></img></p>","null","","1549475227913","6","","","","","",""
"null","","html-keyboard-response","375","2783341","0.0-8.0-0.0-7.3","01","<p><img class= 'stimulus' src='images/baseline/seoul-410266_1920.jpg'></img></p>","null","","1549475228014","","","","","","",""
"null","","html-keyboard-response","376","2783441","0.0-8.0-0.0-8.3","01","<p><img class= 'stimulus' src='images/baseline/red rocks from afar.jpg'></img></p>","null","","1549475228113","8","","","","","",""
"null","","html-keyboard-response","377","2783540","0.0-8.0-0.0-9.3","01","<p><img class= 'stimulus' src='images/baseline/house3.jpg'></img></p>","null","","1549475228214","","","","","","",""
"null","","html-keyboard-response","378","2783642","0.0-8.0-0.0-10.3","01","<p><img class= 'stimulus' src='images/baseline/lone-old-cottonwood-tree.jpg'></img></p>","null","","1549475228313","","","","","","",""
"null","","html-keyboard-response","379","2783740","0.0-8.0-0.0-11.3","01","<p><img class= 'stimulus' src='images/baseline/dirt-road-or-trail-through-park.jpg'></img></p>","null","","1549475228415","","","","","","",""
"null","","html-keyboard-response","380","2783841","0.0-8.0-0.0-12.3","01","<p><img class= 'stimulus' src='images/baseline/pexels-photo-59321.jpeg'></img></p>","null","","1549475228514","12","","","","","",""
"null","","html-keyboard-response","381","2783941","0.0-8.0-0.0-13.3","01","<p><img class= 'stimulus' src='images/baseline/05240v.jpg'></img></p>","null","","1549475228613","","","","","","",""
"null","","html-keyboard-response","382","2784041","0.0-8.0-0.0-14.3","01","<p><img class= 'stimulus' src='images/baseline/pexels-photo-808465.jpeg'></img></p>","null","","1549475228713","14","","","","","",""
"null","","html-keyboard-response","383","2784141","0.0-8.0-0.0-15.3","01","<p><img class= 'stimulus' src='images/baseline/farmhouse8.jpg'></img></p>","null","","1549475228813","","","","","","",""
"null","","html-keyboard-response","384","2784241","0.0-8.0-0.0-16.3","01","<p><img class= 'stimulus' src='images/baseline/hills 4.jpg'></img></p>","null","","1549475228914","","","","","","",""
"null","","html-keyboard-response","385","2784358","0.0-8.0-0.0-17.3","01","<p><img class= 'stimulus' src='images/baseline/farmhouse6.jpg'></img></p>","null","","1549475229013","","","","","","",""
"1645.3999999994412","","html-button-response","386","2787008","0.0-8.0-0.0-18.3","01","<div class = ""response_question"">WAS THE IMAGE ROTATED...</div>","","2","","","null","null","null","null","test","null"
"1518.5000000004657","","html-button-response","387","2788528","0.0-8.0-0.0-0.4","01","","","0","","","","","","","",""
"null","","html-keyboard-response","388","2788608","0.0-8.0-0.0-1.4","01","<p><img class= 'stimulus' src='images/baseline/Nature 1.jpg'></img></p>","null","","1549475233281","","","","","","",""
"null","","html-keyboard-response","389","2788707","0.0-8.0-0.0-2.4","01","<p><img class= 'stimulus' src='images/baseline/landscape15.jpg'></img></p>","null","","1549475233380","","","","","","",""
"null","","html-keyboard-response","390","2788808","0.0-8.0-0.0-3.4","01","<p><img class= 'stimulus' src='images/baseline/04193v.jpg'></img></p>","null","","1549475233481","","","","","","",""
"null","","html-keyboard-response","391","2788907","0.0-8.0-0.0-4.4","01","<p><img class= 'stimulus' src='images/baseline/Beach 3.jpg'></img></p>","null","","1549475233580","4","","","","","",""
"null","","html-keyboard-response","392","2789007","0.0-8.0-0.0-5.4","01","<p><img class= 'stimulus' src='images/baseline/Sunset 5.jpg'></img></p>","null","","1549475233681","","","","","","",""
"null","","html-keyboard-response","393","2789107","0.0-8.0-0.0-6.4","01","<p><img class= 'stimulus' src='images/baseline/agriculture-countryside-crop-259280.jpg'></img></p>","null","","1549475233781","6","","","","","",""
"null","","html-keyboard-response","394","2789208","0.0-8.0-0.0-7.4","01","<p><img class= 'stimulus' src='images/baseline/04014v.jpg'></img></p>","null","","1549475233881","","","","","","",""
"null","","html-keyboard-response","395","2789307","0.0-8.0-0.0-8.4","01","<p><img class= 'stimulus' src='images/baseline/Paysage_karabagh_02.jpg'></img></p>","null","","1549475233981","8","","","","","",""
"null","","html-keyboard-response","396","2789407","0.0-8.0-0.0-9.4","01","<p><img class= 'stimulus' src='images/baseline/04229v.jpg'></img></p>","null","","1549475234081","","","","","","",""
"null","","html-keyboard-response","397","2789507","0.0-8.0-0.0-10.4","01","<p><img class= 'stimulus' src='images/baseline/landscape34.jpg'></img></p>","null","","1549475234180","","","","","","",""
"null","","html-keyboard-response","398","2789607","0.0-8.0-0.0-11.4","01","<p><img class= 'stimulus' src='images/baseline/landscape17.jpg'></img></p>","null","","1549475234280","","","","","","",""
"null","","html-keyboard-response","399","2789707","0.0-8.0-0.0-12.4","01","<p><img class= 'stimulus left-rotate' src='images/target/building3.jpg'></img></p>","null","","1549475234380","12","","","","","",""
"null","","html-keyboard-response","400","2789808","0.0-8.0-0.0-13.4","01","<p><img class= 'stimulus' src='images/baseline/landscape37.jpg'></img></p>","null","","1549475234479","","","","","","",""
"null","","html-keyboard-response","401","2789908","0.0-8.0-0.0-14.4","01","<p><img class= 'stimulus' src='images/baseline/02982v.jpg'></img></p>","null","","1549475234580","14","","","","","",""
"null","","html-keyboard-response","402","2790009","0.0-8.0-0.0-15.4","01","<p><img class= 'stimulus' src='images/baseline/landscape3.jpg'></img></p>","null","","1549475234680","","","","","","",""
"null","","html-keyboard-response","403","2790108","0.0-8.0-0.0-16.4","01","<p><img class= 'stimulus' src='images/baseline/Street 1.jpg'></img></p>","null","","1549475234780","","","","","","",""
"null","","html-keyboard-response","404","2790224","0.0-8.0-0.0-17.4","01","<p><img class= 'stimulus' src='images/baseline/horse_statue.jpg'></img></p>","null","","1549475234880","","","","","","",""
"1207.6000000000931","","html-button-response","405","2792439","0.0-8.0-0.0-18.4","01","<div class = ""response_question"">WAS THE IMAGE ROTATED...</div>","","1","","","4","8","bas","left","test","true"
"846.2999999993481","","html-button-response","406","2793287","0.0-8.0-0.0-0.5","01","","","0","","","","","","","",""
"null","","html-keyboard-response","407","2793375","0.0-8.0-0.0-1.5","01","<p><img class= 'stimulus' src='images/baseline/house6.jpg'></img></p>","null","","1549475238048","","","","","","",""
"null","","html-keyboard-response","408","2793475","0.0-8.0-0.0-2.5","01","<p><img class= 'stimulus' src='images/baseline/04179v.jpg'></img></p>","null","","1549475238146","","","","","","",""
"null","","html-keyboard-response","409","2793574","0.0-8.0-0.0-3.5","01","<p><img class= 'stimulus' src='images/baseline/02945v.jpg'></img></p>","null","","1549475238246","","","","","","",""
"null","","html-keyboard-response","410","2793675","0.0-8.0-0.0-4.5","01","<p><img class= 'stimulus' src='images/baseline/pexels-photo-541101.jpeg'></img></p>","null","","1549475238348","4","","","","","",""
"null","","html-keyboard-response","411","2793774","0.0-8.0-0.0-5.5","01","<p><img class= 'stimulus' src='images/baseline/03220v.jpg'></img></p>","null","","1549475238447","","","","","","",""
"null","","html-keyboard-response","412","2793874","0.0-8.0-0.0-6.5","01","<p><img class= 'stimulus' src='images/baseline/landscape36.jpg'></img></p>","null","","1549475238547","6","","","","","",""
"null","","html-keyboard-response","413","2793975","0.0-8.0-0.0-7.5","01","<p><img class= 'stimulus' src='images/baseline/landscape12.jpg'></img></p>","null","","1549475238646","","","","","","",""
"null","","html-keyboard-response","414","2794076","0.0-8.0-0.0-8.5","01","<p><img class= 'stimulus' src='images/baseline/Linden,_paysage.jpg'></img></p>","null","","1549475238747","8","","","","","",""
"null","","html-keyboard-response","415","2794175","0.0-8.0-0.0-9.5","01","<p><img class= 'stimulus' src='images/baseline/Road 1.jpg'></img></p>","null","","1549475238847","","","","","","",""
"null","","html-keyboard-response","416","2794274","0.0-8.0-0.0-10.5","01","<p><img class= 'stimulus' src='images/baseline/Skyscraper 1.jpg'></img></p>","null","","1549475238948","","","","","","",""
"null","","html-keyboard-response","417","2794374","0.0-8.0-0.0-11.5","01","<p><img class= 'stimulus' src='images/baseline/landscape11.jpg'></img></p>","null","","1549475239046","","","","","","",""
"null","","html-keyboard-response","418","2794475","0.0-8.0-0.0-12.5","01","<p><img class= 'stimulus' src='images/baseline/04060v.jpg'></img></p>","null","","1549475239148","12","","","","","",""
"null","","html-keyboard-response","419","2794575","0.0-8.0-0.0-13.5","01","<p><img class= 'stimulus' src='images/baseline/landscape4.jpg'></img></p>","null","","1549475239247","","","","","","",""
"null","","html-keyboard-response","420","2794674","0.0-8.0-0.0-14.5","01","<p><img class= 'stimulus left-rotate' src='images/target/beach1.jpeg'></img></p>","null","","1549475239348","14","","","","","",""
"null","","html-keyboard-response","421","2794775","0.0-8.0-0.0-15.5","01","<p><img class= 'stimulus' src='images/baseline/Bahia_Onelli_Parque_Nacional_Los_Glaciares_Patagonia_Argentina_Luca_Galuzzi_2005.jpg'></img></p>","null","","1549475239447","","","","","","",""
"null","","html-keyboard-response","422","2794875","0.0-8.0-0.0-16.5","01","<p><img class= 'stimulus' src='images/baseline/03066v.jpg'></img></p>","null","","1549475239546","","","","","","",""
"null","","html-keyboard-response","423","2794991","0.0-8.0-0.0-17.5","01","<p><img class= 'stimulus' src='images/baseline/Aletschgletscher-Eggishorn.jpg'></img></p>","null","","1549475239647","","","","","","",""
"852.9999999990687","","html-button-response","424","2796847","0.0-8.0-0.0-18.5","01","<div class = ""response_question"">WAS THE IMAGE ROTATED...</div>","","0","","","6","8","bas","left","test","true"
"846.2999999988824","","html-button-response","425","2797696","0.0-8.0-0.0-0.6","01","","","0","","","","","","","",""
"null","","html-keyboard-response","426","2797775","0.0-8.0-0.0-1.6","01","<p><img class= 'stimulus' src='images/baseline/05179v.jpg'></img></p>","null","","1549475242447","","","","","","",""
"null","","html-keyboard-response","427","2797876","0.0-8.0-0.0-2.6","01","<p><img class= 'stimulus' src='images/baseline/99_-_Machu_Picchu_-_Juin_2009.edit3.jpg'></img></p>","null","","1549475242548","","","","","","",""
"null","","html-keyboard-response","428","2797975","0.0-8.0-0.0-3.6","01","<p><img class= 'stimulus' src='images/baseline/lake3.jpg'></img></p>","null","","1549475242647","","","","","","",""
"null","","html-keyboard-response","429","2798075","0.0-8.0-0.0-4.6","01","<p><img class= 'stimulus' src='images/baseline/Sidewalk 4.jpg'></img></p>","null","","1549475242748","4","","","","","",""
"null","","html-keyboard-response","430","2798174","0.0-8.0-0.0-5.6","01","<p><img class= 'stimulus' src='images/baseline/4k-wallpaper-agriculture-clouds-842711.jpg'></img></p>","null","","1549475242848","","","","","","",""
"null","","html-keyboard-response","431","2798275","0.0-8.0-0.0-6.6","01","<p><img class= 'stimulus' src='images/baseline/pexels-photo-1287089.jpeg'></img></p>","null","","1549475242947","6","","","","","",""
"null","","html-keyboard-response","432","2798375","0.0-8.0-0.0-7.6","01","<p><img class= 'stimulus' src='images/baseline/05279v.jpg'></img></p>","null","","1549475243047","","","","","","",""
"null","","html-keyboard-response","433","2798475","0.0-8.0-0.0-8.6","01","<p><img class= 'stimulus' src='images/baseline/sun-through-winter-tree-branches1.jpg'></img></p>","null","","1549475243147","8","","","","","",""
"null","","html-keyboard-response","434","2798574","0.0-8.0-0.0-9.6","01","<p><img class= 'stimulus' src='images/baseline/lookout_tower.jpg'></img></p>","null","","1549475243247","","","","","","",""
"null","","html-keyboard-response","435","2798675","0.0-8.0-0.0-10.6","01","<p><img class= 'stimulus' src='images/baseline/landscape14.jpg'></img></p>","null","","1549475243347","","","","","","",""
"null","","html-keyboard-response","436","2798774","0.0-8.0-0.0-11.6","01","<p><img class= 'stimulus' src='images/baseline/05145v.jpg'></img></p>","null","","1549475243447","","","","","","",""
"null","","html-keyboard-response","437","2798874","0.0-8.0-0.0-12.6","01","<p><img class= 'stimulus left-rotate' src='images/target/tree-197536_640.jpg'></img></p>","null","","1549475243547","12","","","","","",""
"null","","html-keyboard-response","438","2798975","0.0-8.0-0.0-13.6","01","<p><img class= 'stimulus' src='images/baseline/field 1.jpg'></img></p>","null","","1549475243647","","","","","","",""
"null","","html-keyboard-response","439","2799074","0.0-8.0-0.0-14.6","01","<p><img class= 'stimulus' src='images/baseline/architecture-956332_1280.jpg'></img></p>","null","","1549475243747","14","","","","","",""
"null","","html-keyboard-response","440","2799175","0.0-8.0-0.0-15.6","01","<p><img class= 'stimulus' src='images/baseline/sunny-landscape-with-dry-brush-and-mountain-background.jpg'></img></p>","null","","1549475243847","","","","","","",""
"null","","html-keyboard-response","441","2799275","0.0-8.0-0.0-16.6","01","<p><img class= 'stimulus' src='images/baseline/landscape33.jpg'></img></p>","null","","1549475243946","","","","","","",""
"null","","html-keyboard-response","442","2799391","0.0-8.0-0.0-17.6","01","<p><img class= 'stimulus' src='images/baseline/empire-state-building.jpg'></img></p>","null","","1549475244047","","","","","","",""
"725.2000000011176","","html-button-response","443","2801108","0.0-8.0-0.0-18.6","01","<div class = ""response_question"">WAS THE IMAGE ROTATED...</div>","","0","","","4","8","bas","left","test","true"
"2070.299999999348","","html-button-response","444","2803181","0.0-8.0-0.0-0.7","01","","","0","","","","","","","",""
"null","","html-keyboard-response","445","2803265","0.0-8.0-0.0-1.7","01","<p><img class= 'stimulus' src='images/baseline/05186v.jpg'></img></p>","null","","1549475247937","","","","","","",""
"null","","html-keyboard-response","446","2803365","0.0-8.0-0.0-2.7","01","<p><img class= 'stimulus' src='images/baseline/Path 1.jpg'></img></p>","null","","1549475248037","","","","","","",""
"null","","html-keyboard-response","447","2803466","0.0-8.0-0.0-3.7","01","<p><img class= 'stimulus' src='images/baseline/house8.jpg'></img></p>","null","","1549475248137","","","","","","",""
"null","","html-keyboard-response","448","2803565","0.0-8.0-0.0-4.7","01","<p><img class= 'stimulus' src='images/neutral/sheep.png'></img></p>","null","","1549475248237","4","","","","","",""
"null","","html-keyboard-response","449","2803664","0.0-8.0-0.0-5.7","01","<p><img class= 'stimulus' src='images/baseline/Street 3.jpg'></img></p>","null","","1549475248337","","","","","","",""
"null","","html-keyboard-response","450","2803764","0.0-8.0-0.0-6.7","01","<p><img class= 'stimulus' src='images/baseline/landscape8.jpg'></img></p>","null","","1549475248436","6","","","","","",""
"null","","html-keyboard-response","451","2803864","0.0-8.0-0.0-7.7","01","<p><img class= 'stimulus' src='images/baseline/04300v.jpg'></img></p>","null","","1549475248537","","","","","","",""
"null","","html-keyboard-response","452","2803964","0.0-8.0-0.0-8.7","01","<p><img class= 'stimulus' src='images/baseline/05303v.jpg'></img></p>","null","","1549475248636","8","","","","","",""
"null","","html-keyboard-response","453","2804064","0.0-8.0-0.0-9.7","01","<p><img class= 'stimulus' src='images/baseline/Dirt 2.jpg'></img></p>","null","","1549475248736","","","","","","",""
"null","","html-keyboard-response","454","2804163","0.0-8.0-0.0-10.7","01","<p><img class= 'stimulus' src='images/baseline/02960v.jpg'></img></p>","null","","1549475248837","","","","","","",""
"null","","html-keyboard-response","455","2804263","0.0-8.0-0.0-11.7","01","<p><img class= 'stimulus' src='images/baseline/03201v.jpg'></img></p>","null","","1549475248937","","","","","","",""
"null","","html-keyboard-response","456","2804363","0.0-8.0-0.0-12.7","01","<p><img class= 'stimulus' src='images/target/mitre peak.jpg'></img></p>","null","","1549475249037","12","","","","","",""
"null","","html-keyboard-response","457","2804464","0.0-8.0-0.0-13.7","01","<p><img class= 'stimulus' src='images/baseline/Paysage_enneige_02.jpg'></img></p>","null","","1549475249137","","","","","","",""
"null","","html-keyboard-response","458","2804564","0.0-8.0-0.0-14.7","01","<p><img class= 'stimulus' src='images/baseline/landscape38.jpg'></img></p>","null","","1549475249236","14","","","","","",""
"null","","html-keyboard-response","459","2804664","0.0-8.0-0.0-15.7","01","<p><img class= 'stimulus' src='images/baseline/05158v.jpg'></img></p>","null","","1549475249336","","","","","","",""
"null","","html-keyboard-response","460","2804764","0.0-8.0-0.0-16.7","01","<p><img class= 'stimulus' src='images/baseline/05131v.jpg'></img></p>","null","","1549475249436","","","","","","",""
"null","","html-keyboard-response","461","2804880","0.0-8.0-0.0-17.7","01","<p><img class= 'stimulus' src='images/baseline/agriculture-cereal-clouds-175389.jpg'></img></p>","null","","1549475249536","","","","","","",""
"886.8999999994412","","html-button-response","462","2806773","0.0-8.0-0.0-18.7","01","<div class = ""response_question"">WAS THE IMAGE ROTATED...</div>","","2","","","4","8","neu","right","test","false"
"1078.2000000001863","","html-button-response","463","2807853","0.0-8.0-0.0-0.8","01","","","0","","","","","","","",""
"null","","html-keyboard-response","464","2807931","0.0-8.0-0.0-1.8","01","<p><img class= 'stimulus' src='images/baseline/trees 23.jpg'></img></p>","null","","1549475252603","","","","","","",""
"null","","html-keyboard-response","465","2808030","0.0-8.0-0.0-2.8","01","<p><img class= 'stimulus' src='images/baseline/house11.jpg'></img></p>","null","","1549475252702","","","","","","",""
"null","","html-keyboard-response","466","2808131","0.0-8.0-0.0-3.8","01","<p><img class= 'stimulus' src='images/baseline/05189v.jpg'></img></p>","null","","1549475252804","","","","","","",""
"null","","html-keyboard-response","467","2808230","0.0-8.0-0.0-4.8","01","<p><img class= 'stimulus' src='images/baseline/farmhouse1.jpg'></img></p>","null","","1549475252903","4","","","","","",""
"null","","html-keyboard-response","468","2808330","0.0-8.0-0.0-5.8","01","<p><img class= 'stimulus' src='images/baseline/03162v.jpg'></img></p>","null","","1549475253003","","","","","","",""
"null","","html-keyboard-response","469","2808430","0.0-8.0-0.0-6.8","01","<p><img class= 'stimulus' src='images/baseline/pexels-photo-259280.jpeg'></img></p>","null","","1549475253103","6","","","","","",""
"null","","html-keyboard-response","470","2808530","0.0-8.0-0.0-7.8","01","<p><img class= 'stimulus' src='images/baseline/04086v.jpg'></img></p>","null","","1549475253204","","","","","","",""
"null","","html-keyboard-response","471","2808631","0.0-8.0-0.0-8.8","01","<p><img class= 'stimulus' src='images/baseline/Lake 9.jpg'></img></p>","null","","1549475253303","8","","","","","",""
"null","","html-keyboard-response","472","2808730","0.0-8.0-0.0-9.8","01","<p><img class= 'stimulus' src='images/baseline/foreclosed_home.jpg'></img></p>","null","","1549475253403","","","","","","",""
"null","","html-keyboard-response","473","2808830","0.0-8.0-0.0-10.8","01","<p><img class= 'stimulus' src='images/baseline/house2.jpg'></img></p>","null","","1549475253503","","","","","","",""
"null","","html-keyboard-response","474","2808931","0.0-8.0-0.0-11.8","01","<p><img class= 'stimulus' src='images/baseline/03217v.jpg'></img></p>","null","","1549475253603","","","","","","",""
"null","","html-keyboard-response","475","2809031","0.0-8.0-0.0-12.8","01","<p><img class= 'stimulus' src='images/baseline/Grass 6.jpg'></img></p>","null","","1549475253703","12","","","","","",""
"null","","html-keyboard-response","476","2809130","0.0-8.0-0.0-13.8","01","<p><img class= 'stimulus' src='images/baseline/05198v.jpg'></img></p>","null","","1549475253802","","","","","","",""
"null","","html-keyboard-response","477","2809231","0.0-8.0-0.0-14.8","01","<p><img class= 'stimulus' src='images/baseline/__08_-_ITALY_-_Forli_under_snow_-_winter_landscape_of_city_(christmas).jpg'></img></p>","null","","1549475253903","14","","","","","",""
"null","","html-keyboard-response","478","2809331","0.0-8.0-0.0-15.8","01","<p><img class= 'stimulus' src='images/baseline/pexels-photo-221125.jpeg'></img></p>","null","","1549475254003","","","","","","",""
"null","","html-keyboard-response","479","2809430","0.0-8.0-0.0-16.8","01","<p><img class= 'stimulus' src='images/baseline/pexels-photo-1837621.jpeg'></img></p>","null","","1549475254104","","","","","","",""
"null","","html-keyboard-response","480","2809547","0.0-8.0-0.0-17.8","01","<p><img class= 'stimulus' src='images/baseline/landscape29.jpg'></img></p>","null","","1549475254202","","","","","","",""
"1605.3000000012107","","html-button-response","481","2812158","0.0-8.0-0.0-18.8","01","<div class = ""response_question"">WAS THE IMAGE ROTATED...</div>","","5","","","null","null","null","null","test","null"
"1094.000000001397","","html-button-response","482","2813253","0.0-8.0-0.0-0.9","01","","","0","","","","","","","",""
"null","","html-keyboard-response","483","2813331","0.0-8.0-0.0-1.9","01","<p><img class= 'stimulus' src='images/baseline/pexels-photo-1261728.jpeg'></img></p>","null","","1549475258002","","","","","","",""
"null","","html-keyboard-response","484","2813430","0.0-8.0-0.0-2.9","01","<p><img class= 'stimulus' src='images/baseline/landscape39.jpg'></img></p>","null","","1549475258103","","","","","","",""
"null","","html-keyboard-response","485","2813531","0.0-8.0-0.0-3.9","01","<p><img class= 'stimulus' src='images/baseline/Camping 10.jpg'></img></p>","null","","1549475258203","","","","","","",""
"null","","html-keyboard-response","486","2813630","0.0-8.0-0.0-4.9","01","<p><img class= 'stimulus' src='images/baseline/building2.jpg'></img></p>","null","","1549475258303","4","","","","","",""
"null","","html-keyboard-response","487","2813730","0.0-8.0-0.0-5.9","01","<p><img class= 'stimulus' src='images/baseline/building8.jpg'></img></p>","null","","1549475258403","","","","","","",""
"null","","html-keyboard-response","488","2813830","0.0-8.0-0.0-6.9","01","<p><img class= 'stimulus' src='images/baseline/cranes 1.jpg'></img></p>","null","","1549475258503","6","","","","","",""
"null","","html-keyboard-response","489","2813930","0.0-8.0-0.0-7.9","01","<p><img class= 'stimulus' src='images/baseline/house7.jpg'></img></p>","null","","1549475258602","","","","","","",""
"null","","html-keyboard-response","490","2814031","0.0-8.0-0.0-8.9","01","<p><img class= 'stimulus left-rotate' src='images/target/coconut-3396945_640.jpg'></img></p>","null","","1549475258702","8","","","","","",""
"null","","html-keyboard-response","491","2814131","0.0-8.0-0.0-9.9","01","<p><img class= 'stimulus' src='images/baseline/04063v.jpg'></img></p>","null","","1549475258802","","","","","","",""
"null","","html-keyboard-response","492","2814231","0.0-8.0-0.0-10.9","01","<p><img class= 'stimulus' src='images/baseline/03098v.jpg'></img></p>","null","","1549475258904","","","","","","",""
"null","","html-keyboard-response","493","2814331","0.0-8.0-0.0-11.9","01","<p><img class= 'stimulus' src='images/baseline/Kocherbaumwald-01.jpg'></img></p>","null","","1549475259004","","","","","","",""
"null","","html-keyboard-response","494","2814431","0.0-8.0-0.0-12.9","01","<p><img class= 'stimulus' src='images/baseline/autumn-landscape-with-lake-fall-trees-mountains.jpg'></img></p>","null","","1549475259103","12","","","","","",""
"null","","html-keyboard-response","495","2814530","0.0-8.0-0.0-13.9","01","<p><img class= 'stimulus' src='images/baseline/farmhouse7.jpg'></img></p>","null","","1549475259203","","","","","","",""
"null","","html-keyboard-response","496","2814631","0.0-8.0-0.0-14.9","01","<p><img class= 'stimulus' src='images/baseline/agriculture-bright-clouds-440731.jpg'></img></p>","null","","1549475259303","14","","","","","",""
"null","","html-keyboard-response","497","2814730","0.0-8.0-0.0-15.9","01","<p><img class= 'stimulus' src='images/baseline/03204v.jpg'></img></p>","null","","1549475259404","","","","","","",""
"null","","html-keyboard-response","498","2814830","0.0-8.0-0.0-16.9","01","<p><img class= 'stimulus' src='images/baseline/05167v.jpg'></img></p>","null","","1549475259503","","","","","","",""
"null","","html-keyboard-response","499","2814947","0.0-8.0-0.0-17.9","01","<p><img class= 'stimulus' src='images/baseline/Lake 7.jpg'></img></p>","null","","1549475259603","","","","","","",""
"1179.2000000001863","","html-button-response","500","2817141","0.0-8.0-0.0-18.9","01","<div class = ""response_question"">WAS THE IMAGE ROTATED...</div>","","1","","","6","2","bas","left","test","true"
"5038.000000000466","","html-button-response","501","2822180","0.0-8.0-0.0-0.10","01","","","0","","","","","","","",""
"null","","html-keyboard-response","502","2822264","0.0-8.0-0.0-1.10","01","<p><img class= 'stimulus' src='images/baseline/landscape1.jpg'></img></p>","null","","1549475266936","","","","","","",""
"null","","html-keyboard-response","503","2822364","0.0-8.0-0.0-2.10","01","<p><img class= 'stimulus' src='images/baseline/valley 2.jpg'></img></p>","null","","1549475267036","","","","","","",""
"null","","html-keyboard-response","504","2822464","0.0-8.0-0.0-3.10","01","<p><img class= 'stimulus' src='images/baseline/landscape22.jpg'></img></p>","null","","1549475267136","","","","","","",""
"null","","html-keyboard-response","505","2822564","0.0-8.0-0.0-4.10","01","<p><img class= 'stimulus' src='images/baseline/03075v.jpg'></img></p>","null","","1549475267237","4","","","","","",""
"null","","html-keyboard-response","506","2822664","0.0-8.0-0.0-5.10","01","<p><img class= 'stimulus' src='images/baseline/Desert_View_Indian_Wells.jpg'></img></p>","null","","1549475267336","","","","","","",""
