"rt","responses","trial_type","trial_index","time_elapsed","internal_node_id","participant_id","stimulus","key_press","button_pressed","stim_onset","sequence_position","distractor_position","target_lag","distractor_type","target_orientation","phase","correct"
"2229.6000000205822","{""Q0"":""19""}","survey-text","0","2235","0.0-0.0","19","","","","","","","","","","",""
"1119167.2999999719","","html-keyboard-response","1","1121413","0.0-1.0","19","Welcome to the experiment.","67","","","","","","","","",""
"24907.00000000652","","html-button-response","2","1146324","0.0-2.0","19","<p>Several images will be presented sequentially.        Each image will only be on the screen for about 100 milliseconds.</p>        <p> One of the images may be rotated 90 degrees right or left.        Watch for this image and remember if it is rotated right or left.</p>               <p>Images of people and animals will appear, and sometimes they will be unpleasant.        These will never be the rotated target image.</p>","","0","","","","","","","",""
"2734.20000000624","","html-button-response","3","1149060","0.0-3.0","19","<p><img class=""stimulus left-rotate"" src=""images/target/building4.jpg""></img></p><p>This is an example of an image rotated to the left.</p>","","0","","","","","","","",""
"1494.799999985844","","html-button-response","4","1150556","0.0-4.0","19","<p><img class=""stimulus"" src=""images/target/beach1.jpeg""></img></p><p>This is an example of an image rotated to the right.</p>","","0","","","","","","","",""
"7279.399999999441","","html-button-response","5","1157836","0.0-5.0","19","<p>We will now begin a short practice session.</p>         <p>A + symbol will appear in the middle of the screen. Please fix your gaze on the center of the +, and then click the mouse button to begin the image sequence.</p>         <p>Please avoid blinking or eye movements while the images are on the screen.</p>        <p>The image sequence will start relatively slow. After a few sequences, it will speed up.</p>","","0","","","","","","","",""
"11830.400000035297","","html-button-response","6","1169667","0.0-6.0-0.0","19","","","0","","","","","","","",""
"null","","html-keyboard-response","7","1169847","0.0-6.0-1.0","19","<p><img class= 'stimulus' src='images/baseline/house6.jpg'></img></p>","null","","1550348694296","","","","","","",""
"null","","html-keyboard-response","8","1170045","0.0-6.0-2.0","19","<p><img class= 'stimulus' src='images/baseline/Peyto_Lake-Banff_NP-Canada.jpg'></img></p>","null","","1550348694497","","","","","","",""
"null","","html-keyboard-response","9","1170245","0.0-6.0-3.0","19","<p><img class= 'stimulus' src='images/baseline/04010v.jpg'></img></p>","null","","1550348694697","","","","","","",""
"null","","html-keyboard-response","10","1170445","0.0-6.0-4.0","19","<p><img class= 'stimulus' src='images/baseline/04193v.jpg'></img></p>","null","","1550348694897","4","","","","","",""
"null","","html-keyboard-response","11","1170645","0.0-6.0-5.0","19","<p><img class= 'stimulus' src='images/baseline/Paysage_enneige_02.jpg'></img></p>","null","","1550348695096","","","","","","",""
"null","","html-keyboard-response","12","1170845","0.0-6.0-6.0","19","<p><img class= 'stimulus' src='images/baseline/04064v.jpg'></img></p>","null","","1550348695296","6","","","","","",""
"null","","html-keyboard-response","13","1171045","0.0-6.0-7.0","19","<p><img class= 'stimulus' src='images/baseline/05280v.jpg'></img></p>","null","","1550348695495","","","","","","",""
"null","","html-keyboard-response","14","1171245","0.0-6.0-8.0","19","<p><img class= 'stimulus' src='images/baseline/sunny-landscape-with-dry-brush-and-mountain-background.jpg'></img></p>","null","","1550348695695","8","","","","","",""
"null","","html-keyboard-response","15","1171444","0.0-6.0-9.0","19","<p><img class= 'stimulus' src='images/baseline/04158v.jpg'></img></p>","null","","1550348695896","","","","","","",""
"null","","html-keyboard-response","16","1171645","0.0-6.0-10.0","19","<p><img class= 'stimulus' src='images/baseline/landscape12.jpg'></img></p>","null","","1550348696096","","","","","","",""
"null","","html-keyboard-response","17","1171847","0.0-6.0-11.0","19","<p><img class= 'stimulus' src='images/baseline/Nature 1.jpg'></img></p>","null","","1550348696296","","","","","","",""
"null","","html-keyboard-response","18","1172045","0.0-6.0-12.0","19","<p><img class= 'stimulus' src='images/target/building19.jpg'></img></p>","null","","1550348696496","12","","","","","",""
"null","","html-keyboard-response","19","1172246","0.0-6.0-13.0","19","<p><img class= 'stimulus' src='images/baseline/Bahia_Onelli_Parque_Nacional_Los_Glaciares_Patagonia_Argentina_Luca_Galuzzi_2005.jpg'></img></p>","null","","1550348696696","","","","","","",""
"null","","html-keyboard-response","20","1172445","0.0-6.0-14.0","19","<p><img class= 'stimulus' src='images/baseline/Happy pose 3.jpg'></img></p>","null","","1550348696896","14","","","","","",""
"null","","html-keyboard-response","21","1172646","0.0-6.0-15.0","19","<p><img class= 'stimulus' src='images/baseline/Lake 5.jpg'></img></p>","null","","1550348697096","","","","","","",""
"null","","html-keyboard-response","22","1172846","0.0-6.0-16.0","19","<p><img class= 'stimulus' src='images/baseline/02945v.jpg'></img></p>","null","","1550348697296","","","","","","",""
"null","","html-keyboard-response","23","1173063","0.0-6.0-17.0","19","<p><img class= 'stimulus' src='images/baseline/landscape8.jpg'></img></p>","null","","1550348697496","","","","","","",""
"5871.400000003632","","html-button-response","24","1179940","0.0-6.0-18.0","19","<div class = ""response_question"">WAS THE IMAGE ROTATED...</div>","","3","","","4","8","bas","right","practice","true"
"3061.5999999572523","","html-button-response","25","1183001","0.0-6.0-0.1","19","","","0","","","","","","","",""
"null","","html-keyboard-response","26","1183176","0.0-6.0-1.1","19","<p><img class= 'stimulus' src='images/baseline/Street 1.jpg'></img></p>","null","","1550348707628","","","","","","",""
"null","","html-keyboard-response","27","1183377","0.0-6.0-2.1","19","<p><img class= 'stimulus' src='images/baseline/05161v.jpg'></img></p>","null","","1550348707826","","","","","","",""
"null","","html-keyboard-response","28","1183577","0.0-6.0-3.1","19","<p><img class= 'stimulus' src='images/baseline/landscape4.jpg'></img></p>","null","","1550348708028","","","","","","",""
"null","","html-keyboard-response","29","1183777","0.0-6.0-4.1","19","<p><img class= 'stimulus' src='images/baseline/farmhouse6.jpg'></img></p>","null","","1550348708227","4","","","","","",""
"null","","html-keyboard-response","30","1183978","0.0-6.0-5.1","19","<p><img class= 'stimulus' src='images/baseline/Lake 15.jpg'></img></p>","null","","1550348708428","","","","","","",""
"null","","html-keyboard-response","31","1184178","0.0-6.0-6.1","19","<p><img class= 'stimulus' src='images/baseline/05179v.jpg'></img></p>","null","","1550348708628","6","","","","","",""
"null","","html-keyboard-response","32","1184378","0.0-6.0-7.1","19","<p><img class= 'stimulus' src='images/baseline/05247v.jpg'></img></p>","null","","1550348708828","","","","","","",""
"null","","html-keyboard-response","33","1184577","0.0-6.0-8.1","19","<p><img class= 'stimulus left-rotate' src='images/target/pexels-photo-602607.jpeg'></img></p>","null","","1550348709027","8","","","","","",""
"null","","html-keyboard-response","34","1184779","0.0-6.0-9.1","19","<p><img class= 'stimulus' src='images/baseline/04014v.jpg'></img></p>","null","","1550348709228","","","","","","",""
"null","","html-keyboard-response","35","1184977","0.0-6.0-10.1","19","<p><img class= 'stimulus' src='images/baseline/03212v.jpg'></img></p>","null","","1550348709429","","","","","","",""
"null","","html-keyboard-response","36","1185178","0.0-6.0-11.1","19","<p><img class= 'stimulus' src='images/baseline/landscape16.jpg'></img></p>","null","","1550348709629","","","","","","",""
"null","","html-keyboard-response","37","1185377","0.0-6.0-12.1","19","<p><img class= 'stimulus' src='images/baseline/landscape6.jpg'></img></p>","null","","1550348709827","12","","","","","",""
"null","","html-keyboard-response","38","1185578","0.0-6.0-13.1","19","<p><img class= 'stimulus' src='images/baseline/pexels-photo-459203.jpeg'></img></p>","null","","1550348710027","","","","","","",""
"null","","html-keyboard-response","39","1185778","0.0-6.0-14.1","19","<p><img class= 'stimulus' src='images/baseline/pexels-photo-808465.jpeg'></img></p>","null","","1550348710228","14","","","","","",""
"null","","html-keyboard-response","40","1185978","0.0-6.0-15.1","19","<p><img class= 'stimulus' src='images/baseline/03217v.jpg'></img></p>","null","","1550348710427","","","","","","",""
"null","","html-keyboard-response","41","1186178","0.0-6.0-16.1","19","<p><img class= 'stimulus' src='images/baseline/Sidewalk 4.jpg'></img></p>","null","","1550348710628","","","","","","",""
"null","","html-keyboard-response","42","1186394","0.0-6.0-17.1","19","<p><img class= 'stimulus' src='images/baseline/valley 2.jpg'></img></p>","null","","1550348710828","","","","","","",""
"1378.499999991618","","html-button-response","43","1188778","0.0-6.0-18.1","19","<div class = ""response_question"">WAS THE IMAGE ROTATED...</div>","","0","","","6","2","bas","left","practice","true"
"2126.5000000130385","","html-button-response","44","1190906","0.0-6.0-0.2","19","","","0","","","","","","","",""
"null","","html-keyboard-response","45","1191093","0.0-6.0-1.2","19","<p><img class= 'stimulus' src='images/baseline/landscape29.jpg'></img></p>","null","","1550348715544","","","","","","",""
"null","","html-keyboard-response","46","1191294","0.0-6.0-2.2","19","<p><img class= 'stimulus' src='images/baseline/landscape11.jpg'></img></p>","null","","1550348715744","","","","","","",""
"null","","html-keyboard-response","47","1191494","0.0-6.0-3.2","19","<p><img class= 'stimulus' src='images/baseline/cranes 1.jpg'></img></p>","null","","1550348715944","","","","","","",""
"null","","html-keyboard-response","48","1191693","0.0-6.0-4.2","19","<p><img class= 'stimulus' src='images/baseline/pexels-photo-221125.jpeg'></img></p>","null","","1550348716144","4","","","","","",""
"null","","html-keyboard-response","49","1191894","0.0-6.0-5.2","19","<p><img class= 'stimulus' src='images/baseline/landscape33.jpg'></img></p>","null","","1550348716344","","","","","","",""
"null","","html-keyboard-response","50","1192094","0.0-6.0-6.2","19","<p><img class= 'stimulus' src='images/baseline/landscape2.jpg'></img></p>","null","","1550348716545","6","","","","","",""
"null","","html-keyboard-response","51","1192294","0.0-6.0-7.2","19","<p><img class= 'stimulus' src='images/baseline/landscape3.jpg'></img></p>","null","","1550348716744","","","","","","",""
"null","","html-keyboard-response","52","1192494","0.0-6.0-8.2","19","<p><img class= 'stimulus' src='images/baseline/building6.jpg'></img></p>","null","","1550348716944","8","","","","","",""
"null","","html-keyboard-response","53","1192695","0.0-6.0-9.2","19","<p><img class= 'stimulus' src='images/baseline/04162v.jpg'></img></p>","null","","1550348717145","","","","","","",""
"null","","html-keyboard-response","54","1192894","0.0-6.0-10.2","19","<p><img class= 'stimulus' src='images/baseline/02947v.jpg'></img></p>","null","","1550348717344","","","","","","",""
"null","","html-keyboard-response","55","1193096","0.0-6.0-11.2","19","<p><img class= 'stimulus' src='images/baseline/02977v.jpg'></img></p>","null","","1550348717545","","","","","","",""
"null","","html-keyboard-response","56","1193294","0.0-6.0-12.2","19","<p><img class= 'stimulus left-rotate' src='images/target/tree-3563269_640.jpg'></img></p>","null","","1550348717744","12","","","","","",""
"null","","html-keyboard-response","57","1193495","0.0-6.0-13.2","19","<p><img class= 'stimulus' src='images/baseline/landscape19.jpg'></img></p>","null","","1550348717946","","","","","","",""
"null","","html-keyboard-response","58","1193694","0.0-6.0-14.2","19","<p><img class= 'stimulus' src='images/baseline/farmhouse2.jpg'></img></p>","null","","1550348718145","14","","","","","",""
"null","","html-keyboard-response","59","1193894","0.0-6.0-15.2","19","<p><img class= 'stimulus' src='images/baseline/03180v.jpg'></img></p>","null","","1550348718346","","","","","","",""
"null","","html-keyboard-response","60","1194094","0.0-6.0-16.2","19","<p><img class= 'stimulus' src='images/baseline/architecture_modern_architecture_852928.jpg'></img></p>","null","","1550348718545","","","","","","",""
"null","","html-keyboard-response","61","1194311","0.0-6.0-17.2","19","<p><img class= 'stimulus' src='images/baseline/Lake 13.jpg'></img></p>","null","","1550348718746","","","","","","",""
"2718.499999959022","","html-button-response","62","1198033","0.0-6.0-18.2","19","<div class = ""response_question"">WAS THE IMAGE ROTATED...</div>","","0","","","4","8","bas","left","practice","true"
"1742.1999999787658","","html-button-response","63","1199777","0.0-6.0-0.3","19","","","0","","","","","","","",""
"null","","html-keyboard-response","64","1199961","0.0-6.0-1.3","19","<p><img class= 'stimulus' src='images/baseline/02971v.jpg'></img></p>","null","","1550348724411","","","","","","",""
"null","","html-keyboard-response","65","1200161","0.0-6.0-2.3","19","<p><img class= 'stimulus' src='images/baseline/99_-_Machu_Picchu_-_Juin_2009.edit3.jpg'></img></p>","null","","1550348724611","","","","","","",""
"null","","html-keyboard-response","66","1200362","0.0-6.0-3.3","19","<p><img class= 'stimulus' src='images/baseline/snowy tree.jpg'></img></p>","null","","1550348724812","","","","","","",""
"null","","html-keyboard-response","67","1200561","0.0-6.0-4.3","19","<p><img class= 'stimulus' src='images/baseline/03041v.jpg'></img></p>","null","","1550348725012","4","","","","","",""
"null","","html-keyboard-response","68","1200762","0.0-6.0-5.3","19","<p><img class= 'stimulus' src='images/baseline/bird-flying-at-sunset.jpg'></img></p>","null","","1550348725211","","","","","","",""
"null","","html-keyboard-response","69","1200962","0.0-6.0-6.3","19","<p><img class= 'stimulus' src='images/baseline/house2.jpg'></img></p>","null","","1550348725412","6","","","","","",""
"null","","html-keyboard-response","70","1201162","0.0-6.0-7.3","19","<p><img class= 'stimulus' src='images/baseline/autumn-landscape-with-lake-fall-trees-mountains.jpg'></img></p>","null","","1550348725612","","","","","","",""
"null","","html-keyboard-response","71","1201363","0.0-6.0-8.3","19","<p><img class= 'stimulus' src='images/baseline/Lake 9.jpg'></img></p>","null","","1550348725812","8","","","","","",""
"null","","html-keyboard-response","72","1201561","0.0-6.0-9.3","19","<p><img class= 'stimulus' src='images/baseline/house10.jpg'></img></p>","null","","1550348726013","","","","","","",""
"null","","html-keyboard-response","73","1201762","0.0-6.0-10.3","19","<p><img class= 'stimulus' src='images/baseline/building16.jpg'></img></p>","null","","1550348726213","","","","","","",""
"null","","html-keyboard-response","74","1201962","0.0-6.0-11.3","19","<p><img class= 'stimulus' src='images/baseline/valley 1.jpg'></img></p>","null","","1550348726412","","","","","","",""
"null","","html-keyboard-response","75","1202162","0.0-6.0-12.3","19","<p><img class= 'stimulus' src='images/baseline/building9.jpg'></img></p>","null","","1550348726612","12","","","","","",""
"null","","html-keyboard-response","76","1202362","0.0-6.0-13.3","19","<p><img class= 'stimulus' src='images/baseline/hiking-trail.jpg'></img></p>","null","","1550348726812","","","","","","",""
"null","","html-keyboard-response","77","1202564","0.0-6.0-14.3","19","<p><img class= 'stimulus left-rotate' src='images/target/dreifaltigkeitskirche_sandhausen_837699.jpg'></img></p>","null","","1550348727013","14","","","","","",""
"null","","html-keyboard-response","78","1202763","0.0-6.0-15.3","19","<p><img class= 'stimulus' src='images/baseline/Lake 3.jpg'></img></p>","null","","1550348727212","","","","","","",""
"null","","html-keyboard-response","79","1202962","0.0-6.0-16.3","19","<p><img class= 'stimulus' src='images/baseline/04062v.jpg'></img></p>","null","","1550348727413","","","","","","",""
"null","","html-keyboard-response","80","1203179","0.0-6.0-17.3","19","<p><img class= 'stimulus' src='images/baseline/landscape37.jpg'></img></p>","null","","1550348727613","","","","","","",""
"867.8000000072643","","html-button-response","81","1205050","0.0-6.0-18.3","19","<div class = ""response_question"">WAS THE IMAGE ROTATED...</div>","","0","","","6","8","bas","left","practice","true"
"1302.5999999954365","","html-button-response","82","1206353","0.0-6.0-0.4","19","","","0","","","","","","","",""
"null","","html-keyboard-response","83","1206479","0.0-6.0-1.4","19","<p><img class= 'stimulus' src='images/baseline/04021v.jpg'></img></p>","null","","1550348730980","","","","","","",""
"null","","html-keyboard-response","84","1206629","0.0-6.0-2.4","19","<p><img class= 'stimulus' src='images/baseline/Niinsaare_jarv.jpg'></img></p>","null","","1550348731130","","","","","","",""
"null","","html-keyboard-response","85","1206779","0.0-6.0-3.4","19","<p><img class= 'stimulus' src='images/baseline/landscape22.jpg'></img></p>","null","","1550348731279","","","","","","",""
"null","","html-keyboard-response","86","1206928","0.0-6.0-4.4","19","<p><img class= 'stimulus' src='images/baseline/building4.jpg'></img></p>","null","","1550348731430","4","","","","","",""
"null","","html-keyboard-response","87","1207078","0.0-6.0-5.4","19","<p><img class= 'stimulus' src='images/baseline/autumn-in-red-rocks-park.jpg'></img></p>","null","","1550348731579","","","","","","",""
"null","","html-keyboard-response","88","1207228","0.0-6.0-6.4","19","<p><img class= 'stimulus' src='images/baseline/Waterfall 1.jpg'></img></p>","null","","1550348731728","6","","","","","",""
"null","","html-keyboard-response","89","1207379","0.0-6.0-7.4","19","<p><img class= 'stimulus' src='images/baseline/Cold 7.jpg'></img></p>","null","","1550348731878","","","","","","",""
"null","","html-keyboard-response","90","1207529","0.0-6.0-8.4","19","<p><img class= 'stimulus' src='images/target/pexels-photo-1123982.jpeg'></img></p>","null","","1550348732028","8","","","","","",""
"null","","html-keyboard-response","91","1207677","0.0-6.0-9.4","19","<p><img class= 'stimulus' src='images/baseline/kokkari-1523011968Xfr.jpg'></img></p>","null","","1550348732180","","","","","","",""
"null","","html-keyboard-response","92","1207827","0.0-6.0-10.4","19","<p><img class= 'stimulus' src='images/baseline/4k-wallpaper-agriculture-clouds-842711.jpg'></img></p>","null","","1550348732328","","","","","","",""
"null","","html-keyboard-response","93","1207979","0.0-6.0-11.4","19","<p><img class= 'stimulus' src='images/baseline/02988v.jpg'></img></p>","null","","1550348732478","","","","","","",""
"null","","html-keyboard-response","94","1208127","0.0-6.0-12.4","19","<p><img class= 'stimulus' src='images/baseline/landscape13.jpg'></img></p>","null","","1550348732628","12","","","","","",""
"null","","html-keyboard-response","95","1208277","0.0-6.0-13.4","19","<p><img class= 'stimulus' src='images/baseline/town-square-in-wroclaw-1539098440MZy.jpg'></img></p>","null","","1550348732778","","","","","","",""
"null","","html-keyboard-response","96","1208427","0.0-6.0-14.4","19","<p><img class= 'stimulus' src='images/baseline/03112v.jpg'></img></p>","null","","1550348732928","14","","","","","",""
"null","","html-keyboard-response","97","1208578","0.0-6.0-15.4","19","<p><img class= 'stimulus' src='images/baseline/house7.jpg'></img></p>","null","","1550348733078","","","","","","",""
"null","","html-keyboard-response","98","1208728","0.0-6.0-16.4","19","<p><img class= 'stimulus' src='images/baseline/agriculture-bright-clouds-440731.jpg'></img></p>","null","","1550348733227","","","","","","",""
"null","","html-keyboard-response","99","1208894","0.0-6.0-17.4","19","<p><img class= 'stimulus' src='images/baseline/pexels-photo-750108.jpeg'></img></p>","null","","1550348733378","","","","","","",""
"1111.2999999895692","","html-button-response","100","1211010","0.0-6.0-18.4","19","<div class = ""response_question"">WAS THE IMAGE ROTATED...</div>","","3","","","6","2","bas","right","practice","true"
"1382.2000000509433","","html-button-response","101","1212394","0.0-6.0-0.5","19","","","0","","","","","","","",""
"null","","html-keyboard-response","102","1212526","0.0-6.0-1.5","19","<p><img class= 'stimulus' src='images/baseline/05252v.jpg'></img></p>","null","","1550348737028","","","","","","",""
"null","","html-keyboard-response","103","1212677","0.0-6.0-2.5","19","<p><img class= 'stimulus' src='images/baseline/agriculture-countryside-crop-259280.jpg'></img></p>","null","","1550348737178","","","","","","",""
"null","","html-keyboard-response","104","1212827","0.0-6.0-3.5","19","<p><img class= 'stimulus' src='images/baseline/Lake 16.jpg'></img></p>","null","","1550348737327","","","","","","",""
"null","","html-keyboard-response","105","1212977","0.0-6.0-4.5","19","<p><img class= 'stimulus' src='images/baseline/05198v.jpg'></img></p>","null","","1550348737477","4","","","","","",""
"null","","html-keyboard-response","106","1213127","0.0-6.0-5.5","19","<p><img class= 'stimulus' src='images/baseline/Kocherbaumwald-01.jpg'></img></p>","null","","1550348737628","","","","","","",""
"null","","html-keyboard-response","107","1213277","0.0-6.0-6.5","19","<p><img class= 'stimulus' src='images/target/pexels-photo-236294.jpeg'></img></p>","null","","1550348737778","6","","","","","",""
"null","","html-keyboard-response","108","1213426","0.0-6.0-7.5","19","<p><img class= 'stimulus' src='images/baseline/Bridge 1.jpg'></img></p>","null","","1550348737927","","","","","","",""
"null","","html-keyboard-response","109","1213577","0.0-6.0-8.5","19","<p><img class= 'stimulus' src='images/baseline/Grass 6.jpg'></img></p>","null","","1550348738077","8","","","","","",""
"null","","html-keyboard-response","110","1213727","0.0-6.0-9.5","19","<p><img class= 'stimulus' src='images/baseline/road.jpg'></img></p>","null","","1550348738228","","","","","","",""
"null","","html-keyboard-response","111","1213877","0.0-6.0-10.5","19","<p><img class= 'stimulus' src='images/baseline/05203v.jpg'></img></p>","null","","1550348738377","","","","","","",""
"null","","html-keyboard-response","112","1214027","0.0-6.0-11.5","19","<p><img class= 'stimulus' src='images/baseline/house11.jpg'></img></p>","null","","1550348738528","","","","","","",""
"null","","html-keyboard-response","113","1214177","0.0-6.0-12.5","19","<p><img class= 'stimulus' src='images/baseline/05158v.jpg'></img></p>","null","","1550348738677","12","","","","","",""
"null","","html-keyboard-response","114","1214326","0.0-6.0-13.5","19","<p><img class= 'stimulus' src='images/baseline/trees 23.jpg'></img></p>","null","","1550348738827","","","","","","",""
"null","","html-keyboard-response","115","1214477","0.0-6.0-14.5","19","<p><img class= 'stimulus' src='images/baseline/Nature 2.jpg'></img></p>","null","","1550348738978","14","","","","","",""
"null","","html-keyboard-response","116","1214627","0.0-6.0-15.5","19","<p><img class= 'stimulus' src='images/baseline/04201v.jpg'></img></p>","null","","1550348739129","","","","","","",""
"null","","html-keyboard-response","117","1214776","0.0-6.0-16.5","19","<p><img class= 'stimulus' src='images/baseline/landscape7.jpg'></img></p>","null","","1550348739277","","","","","","",""
"null","","html-keyboard-response","118","1214944","0.0-6.0-17.5","19","<p><img class= 'stimulus' src='images/baseline/farmhouse3.jpg'></img></p>","null","","1550348739427","","","","","","",""
"960.2999999769963","","html-button-response","119","1216914","0.0-6.0-18.5","19","<div class = ""response_question"">WAS THE IMAGE ROTATED...</div>","","3","","","4","2","bas","right","practice","true"
"1316.6000000201166","","html-button-response","120","1218234","0.0-6.0-0.6","19","","","0","","","","","","","",""
"null","","html-keyboard-response","121","1218360","0.0-6.0-1.6","19","<p><img class= 'stimulus' src='images/baseline/Sunset 3.jpg'></img></p>","null","","1550348742860","","","","","","",""
"null","","html-keyboard-response","122","1218510","0.0-6.0-2.6","19","<p><img class= 'stimulus' src='images/baseline/landscape35.jpg'></img></p>","null","","1550348743011","","","","","","",""
"null","","html-keyboard-response","123","1218660","0.0-6.0-3.6","19","<p><img class= 'stimulus' src='images/baseline/pexels-photo-351264.jpeg'></img></p>","null","","1550348743161","","","","","","",""
"null","","html-keyboard-response","124","1218810","0.0-6.0-4.6","19","<p><img class= 'stimulus' src='images/baseline/Sailing 3.jpg'></img></p>","null","","1550348743310","4","","","","","",""
"null","","html-keyboard-response","125","1218960","0.0-6.0-5.6","19","<p><img class= 'stimulus' src='images/baseline/02960v.jpg'></img></p>","null","","1550348743460","","","","","","",""
"null","","html-keyboard-response","126","1219111","0.0-6.0-6.6","19","<p><img class= 'stimulus left-rotate' src='images/target/building4.jpg'></img></p>","null","","1550348743610","6","","","","","",""
"null","","html-keyboard-response","127","1219260","0.0-6.0-7.6","19","<p><img class= 'stimulus' src='images/baseline/Paysage_karabagh_02.jpg'></img></p>","null","","1550348743760","","","","","","",""
"null","","html-keyboard-response","128","1219409","0.0-6.0-8.6","19","<p><img class= 'stimulus' src='images/baseline/pexels-photo-894312.jpeg'></img></p>","null","","1550348743911","8","","","","","",""
"null","","html-keyboard-response","129","1219560","0.0-6.0-9.6","19","<p><img class= 'stimulus' src='images/baseline/Dock 1.jpg'></img></p>","null","","1550348744061","","","","","","",""
"null","","html-keyboard-response","130","1219711","0.0-6.0-10.6","19","<p><img class= 'stimulus' src='images/baseline/05167v.jpg'></img></p>","null","","1550348744210","","","","","","",""
"null","","html-keyboard-response","131","1219860","0.0-6.0-11.6","19","<p><img class= 'stimulus' src='images/baseline/lake 1.jpg'></img></p>","null","","1550348744360","","","","","","",""
"null","","html-keyboard-response","132","1220010","0.0-6.0-12.6","19","<p><img class= 'stimulus' src='images/baseline/field 2.jpg'></img></p>","null","","1550348744510","12","","","","","",""
"null","","html-keyboard-response","133","1220161","0.0-6.0-13.6","19","<p><img class= 'stimulus' src='images/baseline/pexels-photo-427676.jpeg'></img></p>","null","","1550348744661","","","","","","",""
"null","","html-keyboard-response","134","1220310","0.0-6.0-14.6","19","<p><img class= 'stimulus' src='images/baseline/pexels-photo-59321.jpeg'></img></p>","null","","1550348744811","14","","","","","",""
"null","","html-keyboard-response","135","1220461","0.0-6.0-15.6","19","<p><img class= 'stimulus' src='images/baseline/house3.jpg'></img></p>","null","","1550348744960","","","","","","",""
"null","","html-keyboard-response","136","1220609","0.0-6.0-16.6","19","<p><img class= 'stimulus' src='images/baseline/red rocks from afar.jpg'></img></p>","null","","1550348745111","","","","","","",""
"null","","html-keyboard-response","137","1220776","0.0-6.0-17.6","19","<p><img class= 'stimulus' src='images/baseline/landscape34.jpg'></img></p>","null","","1550348745260","","","","","","",""
"701.7000000341795","","html-button-response","138","1222481","0.0-6.0-18.6","19","<div class = ""response_question"">WAS THE IMAGE ROTATED...</div>","","0","","","4","2","bas","left","practice","true"
"1078.5000000032596","","html-button-response","139","1223561","0.0-6.0-0.7","19","","","0","","","","","","","",""
"null","","html-keyboard-response","140","1223694","0.0-6.0-1.7","19","<p><img class= 'stimulus' src='images/baseline/hills 4.jpg'></img></p>","null","","1550348748195","","","","","","",""
"null","","html-keyboard-response","141","1223844","0.0-6.0-2.7","19","<p><img class= 'stimulus' src='images/baseline/05186v.jpg'></img></p>","null","","1550348748344","","","","","","",""
"null","","html-keyboard-response","142","1223993","0.0-6.0-3.7","19","<p><img class= 'stimulus' src='images/baseline/house8.jpg'></img></p>","null","","1550348748493","","","","","","",""
"null","","html-keyboard-response","143","1224143","0.0-6.0-4.7","19","<p><img class= 'stimulus' src='images/baseline/pexels-photo-1261728.jpeg'></img></p>","null","","1550348748645","4","","","","","",""
"null","","html-keyboard-response","144","1224294","0.0-6.0-5.7","19","<p><img class= 'stimulus' src='images/baseline/03162v.jpg'></img></p>","null","","1550348748794","","","","","","",""
"null","","html-keyboard-response","145","1224443","0.0-6.0-6.7","19","<p><img class= 'stimulus' src='images/baseline/05240v.jpg'></img></p>","null","","1550348748945","6","","","","","",""
"null","","html-keyboard-response","146","1224593","0.0-6.0-7.7","19","<p><img class= 'stimulus' src='images/baseline/05279v.jpg'></img></p>","null","","1550348749094","","","","","","",""
"null","","html-keyboard-response","147","1224744","0.0-6.0-8.7","19","<p><img class= 'stimulus' src='images/baseline/Beach 2.jpg'></img></p>","null","","1550348749244","8","","","","","",""
"null","","html-keyboard-response","148","1224894","0.0-6.0-9.7","19","<p><img class= 'stimulus' src='images/baseline/04085v.jpg'></img></p>","null","","1550348749394","","","","","","",""
"null","","html-keyboard-response","149","1225043","0.0-6.0-10.7","19","<p><img class= 'stimulus' src='images/baseline/Camping 10.jpg'></img></p>","null","","1550348749544","","","","","","",""
"null","","html-keyboard-response","150","1225193","0.0-6.0-11.7","19","<p><img class= 'stimulus' src='images/baseline/Path 1.jpg'></img></p>","null","","1550348749694","","","","","","",""
"null","","html-keyboard-response","151","1225344","0.0-6.0-12.7","19","<p><img class= 'stimulus' src='images/baseline/landscape14.jpg'></img></p>","null","","1550348749844","12","","","","","",""
"null","","html-keyboard-response","152","1225493","0.0-6.0-13.7","19","<p><img class= 'stimulus' src='images/baseline/Sky 1.jpg'></img></p>","null","","1550348749994","","","","","","",""
"null","","html-keyboard-response","153","1225644","0.0-6.0-14.7","19","<p><img class= 'stimulus' src='images/target/landscape32.jpg'></img></p>","null","","1550348750145","14","","","","","",""
"null","","html-keyboard-response","154","1225793","0.0-6.0-15.7","19","<p><img class= 'stimulus' src='images/baseline/landscape40.jpg'></img></p>","null","","1550348750293","","","","","","",""
"null","","html-keyboard-response","155","1225943","0.0-6.0-16.7","19","<p><img class= 'stimulus' src='images/baseline/cyrillic.jpg'></img></p>","null","","1550348750443","","","","","","",""
"null","","html-keyboard-response","156","1226111","0.0-6.0-17.7","19","<p><img class= 'stimulus' src='images/baseline/05145v.jpg'></img></p>","null","","1550348750593","","","","","","",""
"1326.6999999759719","","html-button-response","157","1228442","0.0-6.0-18.7","19","<div class = ""response_question"">WAS THE IMAGE ROTATED...</div>","","3","","","6","8","bas","right","practice","true"
"1478.400000021793","","html-button-response","158","1229922","0.0-6.0-0.8","19","","","0","","","","","","","",""
"null","","html-keyboard-response","159","1229993","0.0-6.0-1.8","19","<p><img class= 'stimulus' src='images/baseline/lake3.jpg'></img></p>","null","","1550348754544","","","","","","",""
"null","","html-keyboard-response","160","1230093","0.0-6.0-2.8","19","<p><img class= 'stimulus' src='images/baseline/pexels-photo-541101.jpeg'></img></p>","null","","1550348754644","","","","","","",""
"null","","html-keyboard-response","161","1230193","0.0-6.0-3.8","19","<p><img class= 'stimulus' src='images/baseline/05292v.jpg'></img></p>","null","","1550348754744","","","","","","",""
"null","","html-keyboard-response","162","1230293","0.0-6.0-4.8","19","<p><img class= 'stimulus' src='images/baseline/lookout_tower.jpg'></img></p>","null","","1550348754844","4","","","","","",""
"null","","html-keyboard-response","163","1230393","0.0-6.0-5.8","19","<p><img class= 'stimulus' src='images/baseline/sun-through-winter-tree-branches1.jpg'></img></p>","null","","1550348754946","","","","","","",""
"null","","html-keyboard-response","164","1230493","0.0-6.0-6.8","19","<p><img class= 'stimulus' src='images/baseline/seoul-410266_1920.jpg'></img></p>","null","","1550348755045","6","","","","","",""
"null","","html-keyboard-response","165","1230594","0.0-6.0-7.8","19","<p><img class= 'stimulus' src='images/baseline/03045v.jpg'></img></p>","null","","1550348755143","","","","","","",""
"null","","html-keyboard-response","166","1230693","0.0-6.0-8.8","19","<p><img class= 'stimulus' src='images/baseline/Lake 14.jpg'></img></p>","null","","1550348755243","8","","","","","",""
"null","","html-keyboard-response","167","1230794","0.0-6.0-9.8","19","<p><img class= 'stimulus' src='images/baseline/chicago-skyline-at-night-1476869511p8U.jpg'></img></p>","null","","1550348755344","","","","","","",""
"null","","html-keyboard-response","168","1230894","0.0-6.0-10.8","19","<p><img class= 'stimulus' src='images/baseline/landscape38.jpg'></img></p>","null","","1550348755443","","","","","","",""
"null","","html-keyboard-response","169","1230993","0.0-6.0-11.8","19","<p><img class= 'stimulus' src='images/baseline/building5.jpg'></img></p>","null","","1550348755543","","","","","","",""
"null","","html-keyboard-response","170","1231094","0.0-6.0-12.8","19","<p><img class= 'stimulus left-rotate' src='images/target/building3.jpg'></img></p>","null","","1550348755644","12","","","","","",""
"null","","html-keyboard-response","171","1231194","0.0-6.0-13.8","19","<p><img class= 'stimulus' src='images/baseline/05131v.jpg'></img></p>","null","","1550348755744","","","","","","",""
"null","","html-keyboard-response","172","1231293","0.0-6.0-14.8","19","<p><img class= 'stimulus' src='images/baseline/lone-old-cottonwood-tree.jpg'></img></p>","null","","1550348755844","14","","","","","",""
"null","","html-keyboard-response","173","1231394","0.0-6.0-15.8","19","<p><img class= 'stimulus' src='images/baseline/04063v.jpg'></img></p>","null","","1550348755945","","","","","","",""
"null","","html-keyboard-response","174","1231494","0.0-6.0-16.8","19","<p><img class= 'stimulus' src='images/baseline/04222v.jpg'></img></p>","null","","1550348756044","","","","","","",""
"null","","html-keyboard-response","175","1231610","0.0-6.0-17.8","19","<p><img class= 'stimulus' src='images/baseline/Aletschgletscher-Eggishorn.jpg'></img></p>","null","","1550348756144","","","","","","",""
"1861.399999994319","","html-button-response","176","1234481","0.0-6.0-18.8","19","<div class = ""response_question"">WAS THE IMAGE ROTATED...</div>","","1","","","4","8","bas","left","practice","true"
"1221.799999999348","","html-button-response","177","1235706","0.0-6.0-0.9","19","","","0","","","","","","","",""
"null","","html-keyboard-response","178","1235794","0.0-6.0-1.9","19","<p><img class= 'stimulus' src='images/baseline/03056v.jpg'></img></p>","null","","1550348760344","","","","","","",""
"null","","html-keyboard-response","179","1235895","0.0-6.0-2.9","19","<p><img class= 'stimulus' src='images/baseline/pexels-photo-1054289.jpeg'></img></p>","null","","1550348760444","","","","","","",""
"null","","html-keyboard-response","180","1235993","0.0-6.0-3.9","19","<p><img class= 'stimulus' src='images/baseline/farmhouse7.jpg'></img></p>","null","","1550348760545","","","","","","",""
"null","","html-keyboard-response","181","1236093","0.0-6.0-4.9","19","<p><img class= 'stimulus' src='images/baseline/landscape17.jpg'></img></p>","null","","1550348760644","4","","","","","",""
"null","","html-keyboard-response","182","1236194","0.0-6.0-5.9","19","<p><img class= 'stimulus' src='images/baseline/Sunset 6.jpg'></img></p>","null","","1550348760744","","","","","","",""
"null","","html-keyboard-response","183","1236293","0.0-6.0-6.9","19","<p><img class= 'stimulus' src='images/target/landscape20.jpg'></img></p>","null","","1550348760844","6","","","","","",""
"null","","html-keyboard-response","184","1236394","0.0-6.0-7.9","19","<p><img class= 'stimulus' src='images/baseline/Beach 8.jpg'></img></p>","null","","1550348760944","","","","","","",""
"null","","html-keyboard-response","185","1236493","0.0-6.0-8.9","19","<p><img class= 'stimulus' src='images/baseline/03098v.jpg'></img></p>","null","","1550348761043","8","","","","","",""
"null","","html-keyboard-response","186","1236593","0.0-6.0-9.9","19","<p><img class= 'stimulus' src='images/baseline/pexels-photo-440731.jpeg'></img></p>","null","","1550348761144","","","","","","",""
"null","","html-keyboard-response","187","1236693","0.0-6.0-10.9","19","<p><img class= 'stimulus' src='images/baseline/pexels-photo-414491.jpeg'></img></p>","null","","1550348761244","","","","","","",""
"null","","html-keyboard-response","188","1236794","0.0-6.0-11.9","19","<p><img class= 'stimulus' src='images/baseline/03114v.jpg'></img></p>","null","","1550348761344","","","","","","",""
"null","","html-keyboard-response","189","1236893","0.0-6.0-12.9","19","<p><img class= 'stimulus' src='images/baseline/scenic-mountain-landscape.jpg'></img></p>","null","","1550348761444","12","","","","","",""
"null","","html-keyboard-response","190","1236994","0.0-6.0-13.9","19","<p><img class= 'stimulus' src='images/baseline/Skijump 1.jpg'></img></p>","null","","1550348761544","","","","","","",""
"null","","html-keyboard-response","191","1237093","0.0-6.0-14.9","19","<p><img class= 'stimulus' src='images/baseline/Street 4.jpg'></img></p>","null","","1550348761644","14","","","","","",""
"null","","html-keyboard-response","192","1237193","0.0-6.0-15.9","19","<p><img class= 'stimulus' src='images/baseline/02982v.jpg'></img></p>","null","","1550348761745","","","","","","",""
"null","","html-keyboard-response","193","1237294","0.0-6.0-16.9","19","<p><img class= 'stimulus' src='images/baseline/field 4.jpg'></img></p>","null","","1550348761844","","","","","","",""
"null","","html-keyboard-response","194","1237410","0.0-6.0-17.9","19","<p><img class= 'stimulus' src='images/baseline/road 1(1).jpg'></img></p>","null","","1550348761944","","","","","","",""
"785.8000000123866","","html-button-response","195","1239202","0.0-6.0-18.9","19","<div class = ""response_question"">WAS THE IMAGE ROTATED...</div>","","3","","","4","2","bas","right","practice","true"
"1062.2999999905005","","html-button-response","196","1240265","0.0-6.0-0.10","19","","","0","","","","","","","",""
"null","","html-keyboard-response","197","1240344","0.0-6.0-1.10","19","<p><img class= 'stimulus' src='images/baseline/05189v.jpg'></img></p>","null","","1550348764894","","","","","","",""
"null","","html-keyboard-response","198","1240444","0.0-6.0-2.10","19","<p><img class= 'stimulus' src='images/baseline/Street 2.jpg'></img></p>","null","","1550348764994","","","","","","",""
"null","","html-keyboard-response","199","1240543","0.0-6.0-3.10","19","<p><img class= 'stimulus' src='images/baseline/pexels-photo-1048039.jpeg'></img></p>","null","","1550348765095","","","","","","",""
"null","","html-keyboard-response","200","1240643","0.0-6.0-4.10","19","<p><img class= 'stimulus' src='images/baseline/05242v.jpg'></img></p>","null","","1550348765194","4","","","","","",""
"null","","html-keyboard-response","201","1240744","0.0-6.0-5.10","19","<p><img class= 'stimulus' src='images/baseline/landscape31.jpg'></img></p>","null","","1550348765294","","","","","","",""
"null","","html-keyboard-response","202","1240843","0.0-6.0-6.10","19","<p><img class= 'stimulus' src='images/baseline/05264v.jpg'></img></p>","null","","1550348765395","6","","","","","",""
"null","","html-keyboard-response","203","1240943","0.0-6.0-7.10","19","<p><img class= 'stimulus' src='images/baseline/Beach 3.jpg'></img></p>","null","","1550348765494","","","","","","",""
"null","","html-keyboard-response","204","1241044","0.0-6.0-8.10","19","<p><img class= 'stimulus' src='images/baseline/04300v.jpg'></img></p>","null","","1550348765594","8","","","","","",""
"null","","html-keyboard-response","205","1241143","0.0-6.0-9.10","19","<p><img class= 'stimulus' src='images/baseline/horse_statue.jpg'></img></p>","null","","1550348765694","","","","","","",""
"null","","html-keyboard-response","206","1241244","0.0-6.0-10.10","19","<p><img class= 'stimulus' src='images/baseline/hills 1.jpg'></img></p>","null","","1550348765795","","","","","","",""
"null","","html-keyboard-response","207","1241343","0.0-6.0-11.10","19","<p><img class= 'stimulus' src='images/baseline/pexels-photo-1840893.jpeg'></img></p>","null","","1550348765893","","","","","","",""
"null","","html-keyboard-response","208","1241443","0.0-6.0-12.10","19","<p><img class= 'stimulus' src='images/baseline/03204v.jpg'></img></p>","null","","1550348765994","12","","","","","",""
"null","","html-keyboard-response","209","1241543","0.0-6.0-13.10","19","<p><img class= 'stimulus' src='images/baseline/03063v.jpg'></img></p>","null","","1550348766093","","","","","","",""
"null","","html-keyboard-response","210","1241643","0.0-6.0-14.10","19","<p><img class= 'stimulus left-rotate' src='images/target/tree-740901_1280.jpg'></img></p>","null","","1550348766195","14","","","","","",""
"null","","html-keyboard-response","211","1241744","0.0-6.0-15.10","19","<p><img class= 'stimulus' src='images/baseline/Desert_View_Indian_Wells.jpg'></img></p>","null","","1550348766293","","","","","","",""
"null","","html-keyboard-response","212","1241844","0.0-6.0-16.10","19","<p><img class= 'stimulus' src='images/baseline/Lake 4.jpg'></img></p>","null","","1550348766394","","","","","","",""
"null","","html-keyboard-response","213","1241960","0.0-6.0-17.10","19","<p><img class= 'stimulus' src='images/baseline/building12.jpg'></img></p>","null","","1550348766494","","","","","","",""
"1669.2000000039116","","html-button-response","214","1244628","0.0-6.0-18.10","19","<div class = ""response_question"">WAS THE IMAGE ROTATED...</div>","","0","","","6","8","bas","left","practice","true"
"1086.600000038743","","html-button-response","215","1245716","0.0-6.0-0.11","19","","","0","","","","","","","",""
"null","","html-keyboard-response","216","1245788","0.0-6.0-1.11","19","<p><img class= 'stimulus' src='images/baseline/agriculture-cereal-clouds-175389.jpg'></img></p>","null","","1550348770340","","","","","","",""
"null","","html-keyboard-response","217","1245889","0.0-6.0-2.11","19","<p><img class= 'stimulus' src='images/baseline/tennis-court-net-buried-in-snow.jpg'></img></p>","null","","1550348770439","","","","","","",""
"null","","html-keyboard-response","218","1245989","0.0-6.0-3.11","19","<p><img class= 'stimulus' src='images/baseline/vintage-art-deco-storefront.jpg'></img></p>","null","","1550348770539","","","","","","",""
"null","","html-keyboard-response","219","1246089","0.0-6.0-4.11","19","<p><img class= 'stimulus' src='images/baseline/02962v.jpg'></img></p>","null","","1550348770640","4","","","","","",""
"null","","html-keyboard-response","220","1246188","0.0-6.0-5.11","19","<p><img class= 'stimulus' src='images/baseline/house1.jpg'></img></p>","null","","1550348770739","","","","","","",""
"null","","html-keyboard-response","221","1246289","0.0-6.0-6.11","19","<p><img class= 'stimulus left-rotate' src='images/target/cactus2.jpg'></img></p>","null","","1550348770840","6","","","","","",""
"null","","html-keyboard-response","222","1246389","0.0-6.0-7.11","19","<p><img class= 'stimulus' src='images/baseline/Lake 8.jpg'></img></p>","null","","1550348770940","","","","","","",""
"null","","html-keyboard-response","223","1246488","0.0-6.0-8.11","19","<p><img class= 'stimulus' src='images/baseline/landscape1.jpg'></img></p>","null","","1550348771040","8","","","","","",""
"null","","html-keyboard-response","224","1246588","0.0-6.0-9.11","19","<p><img class= 'stimulus' src='images/baseline/landscape39.jpg'></img></p>","null","","1550348771141","","","","","","",""
"null","","html-keyboard-response","225","1246688","0.0-6.0-10.11","19","<p><img class= 'stimulus' src='images/baseline/Sunset 4.jpg'></img></p>","null","","1550348771239","","","","","","",""
"null","","html-keyboard-response","226","1246789","0.0-6.0-11.11","19","<p><img class= 'stimulus' src='images/baseline/pexels-photo-259280.jpeg'></img></p>","null","","1550348771340","","","","","","",""
"null","","html-keyboard-response","227","1246888","0.0-6.0-12.11","19","<p><img class= 'stimulus' src='images/baseline/Dirt 2.jpg'></img></p>","null","","1550348771440","12","","","","","",""
"null","","html-keyboard-response","228","1246989","0.0-6.0-13.11","19","<p><img class= 'stimulus' src='images/baseline/04130v.jpg'></img></p>","null","","1550348771538","","","","","","",""
"null","","html-keyboard-response","229","1247088","0.0-6.0-14.11","19","<p><img class= 'stimulus' src='images/baseline/__08_-_ITALY_-_Forli_under_snow_-_winter_landscape_of_city_(christmas).jpg'></img></p>","null","","1550348771638","14","","","","","",""
"null","","html-keyboard-response","230","1247189","0.0-6.0-15.11","19","<p><img class= 'stimulus' src='images/baseline/landscape15.jpg'></img></p>","null","","1550348771739","","","","","","",""
"null","","html-keyboard-response","231","1247289","0.0-6.0-16.11","19","<p><img class= 'stimulus' src='images/baseline/foreclosed_home.jpg'></img></p>","null","","1550348771839","","","","","","",""
"null","","html-keyboard-response","232","1247406","0.0-6.0-17.11","19","<p><img class= 'stimulus' src='images/baseline/Sunset 5.jpg'></img></p>","null","","1550348771939","","","","","","",""
"847.3000000230968","","html-button-response","233","1249261","0.0-6.0-18.11","19","<div class = ""response_question"">WAS THE IMAGE ROTATED...</div>","","0","","","4","2","bas","left","practice","true"
"1246.2999999988824","","html-button-response","234","1250508","0.0-6.0-0.12","19","","","0","","","","","","","",""
"null","","html-keyboard-response","235","1250589","0.0-6.0-1.12","19","<p><img class= 'stimulus' src='images/baseline/03066v.jpg'></img></p>","null","","1550348775138","","","","","","",""
"null","","html-keyboard-response","236","1250690","0.0-6.0-2.12","19","<p><img class= 'stimulus' src='images/baseline/Skyscraper 1.jpg'></img></p>","null","","1550348775239","","","","","","",""
"null","","html-keyboard-response","237","1250790","0.0-6.0-3.12","19","<p><img class= 'stimulus' src='images/baseline/landscape36.jpg'></img></p>","null","","1550348775339","","","","","","",""
"null","","html-keyboard-response","238","1250889","0.0-6.0-4.12","19","<p><img class= 'stimulus' src='images/baseline/03220v.jpg'></img></p>","null","","1550348775439","4","","","","","",""
"null","","html-keyboard-response","239","1250990","0.0-6.0-5.12","19","<p><img class= 'stimulus' src='images/baseline/Road 1.jpg'></img></p>","null","","1550348775540","","","","","","",""
"null","","html-keyboard-response","240","1251089","0.0-6.0-6.12","19","<p><img class= 'stimulus' src='images/baseline/Skyscraper 2.jpg'></img></p>","null","","1550348775639","6","","","","","",""
"null","","html-keyboard-response","241","1251188","0.0-6.0-7.12","19","<p><img class= 'stimulus' src='images/baseline/farmhouse1.jpg'></img></p>","null","","1550348775740","","","","","","",""
"null","","html-keyboard-response","242","1251290","0.0-6.0-8.12","19","<p><img class= 'stimulus' src='images/baseline/landscape23.jpg'></img></p>","null","","1550348775839","8","","","","","",""
"null","","html-keyboard-response","243","1251389","0.0-6.0-9.12","19","<p><img class= 'stimulus' src='images/baseline/03148v.jpg'></img></p>","null","","1550348775939","","","","","","",""
"null","","html-keyboard-response","244","1251488","0.0-6.0-10.12","19","<p><img class= 'stimulus' src='images/baseline/04031v.jpg'></img></p>","null","","1550348776039","","","","","","",""
"null","","html-keyboard-response","245","1251589","0.0-6.0-11.12","19","<p><img class= 'stimulus' src='images/baseline/04060v.jpg'></img></p>","null","","1550348776138","","","","","","",""
"null","","html-keyboard-response","246","1251689","0.0-6.0-12.12","19","<p><img class= 'stimulus' src='images/baseline/farmhouse9.jpg'></img></p>","null","","1550348776238","12","","","","","",""
"null","","html-keyboard-response","247","1251788","0.0-6.0-13.12","19","<p><img class= 'stimulus' src='images/baseline/architecture-1314416_1920.jpg'></img></p>","null","","1550348776338","","","","","","",""
"null","","html-keyboard-response","248","1251888","0.0-6.0-14.12","19","<p><img class= 'stimulus' src='images/target/landscape_1.jpg'></img></p>","null","","1550348776439","14","","","","","",""
"null","","html-keyboard-response","249","1251989","0.0-6.0-15.12","19","<p><img class= 'stimulus' src='images/baseline/Street 5.jpg'></img></p>","null","","1550348776539","","","","","","",""
"null","","html-keyboard-response","250","1252090","0.0-6.0-16.12","19","<p><img class= 'stimulus' src='images/baseline/Linden,_paysage.jpg'></img></p>","null","","1550348776640","","","","","","",""
"null","","html-keyboard-response","251","1252205","0.0-6.0-17.12","19","<p><img class= 'stimulus' src='images/baseline/city-silhouette-at-sunset-871291580819Esw.jpg'></img></p>","null","","1550348776739","","","","","","",""
"1151.3999999733642","","html-button-response","252","1254365","0.0-6.0-18.12","19","<div class = ""response_question"">WAS THE IMAGE ROTATED...</div>","","3","","","6","8","bas","right","practice","true"
"1118.2999999728054","","html-button-response","253","1255484","0.0-6.0-0.13","19","","","0","","","","","","","",""
"null","","html-keyboard-response","254","1255572","0.0-6.0-1.13","19","<p><img class= 'stimulus' src='images/baseline/pexels-photo-1287089.jpeg'></img></p>","null","","1550348780123","","","","","","",""
"null","","html-keyboard-response","255","1255671","0.0-6.0-2.13","19","<p><img class= 'stimulus' src='images/baseline/architecture-956332_1280.jpg'></img></p>","null","","1550348780222","","","","","","",""
"null","","html-keyboard-response","256","1255772","0.0-6.0-3.13","19","<p><img class= 'stimulus' src='images/baseline/red-rocks-park.jpg'></img></p>","null","","1550348780322","","","","","","",""
"null","","html-keyboard-response","257","1255872","0.0-6.0-4.13","19","<p><img class= 'stimulus' src='images/baseline/05303v.jpg'></img></p>","null","","1550348780422","4","","","","","",""
"null","","html-keyboard-response","258","1255972","0.0-6.0-5.13","19","<p><img class= 'stimulus' src='images/baseline/04179v.jpg'></img></p>","null","","1550348780522","","","","","","",""
"null","","html-keyboard-response","259","1256072","0.0-6.0-6.13","19","<p><img class= 'stimulus' src='images/baseline/04098v.jpg'></img></p>","null","","1550348780623","6","","","","","",""
"null","","html-keyboard-response","260","1256173","0.0-6.0-7.13","19","<p><img class= 'stimulus' src='images/baseline/pexels-photo-534164.jpeg'></img></p>","null","","1550348780722","","","","","","",""
"null","","html-keyboard-response","261","1256273","0.0-6.0-8.13","19","<p><img class= 'stimulus' src='images/target/building1.jpg'></img></p>","null","","1550348780822","8","","","","","",""
"null","","html-keyboard-response","262","1256373","0.0-6.0-9.13","19","<p><img class= 'stimulus' src='images/baseline/03075v.jpg'></img></p>","null","","1550348780922","","","","","","",""
"null","","html-keyboard-response","263","1256472","0.0-6.0-10.13","19","<p><img class= 'stimulus' src='images/baseline/farmhouse4.jpg'></img></p>","null","","1550348781024","","","","","","",""
"null","","html-keyboard-response","264","1256572","0.0-6.0-11.13","19","<p><img class= 'stimulus' src='images/baseline/river 1.jpg'></img></p>","null","","1550348781123","","","","","","",""
"null","","html-keyboard-response","265","1256672","0.0-6.0-12.13","19","<p><img class= 'stimulus' src='images/baseline/lake 2.jpg'></img></p>","null","","1550348781222","12","","","","","",""
"null","","html-keyboard-response","266","1256771","0.0-6.0-13.13","19","<p><img class= 'stimulus' src='images/baseline/05255v.jpg'></img></p>","null","","1550348781323","","","","","","",""
"null","","html-keyboard-response","267","1256872","0.0-6.0-14.13","19","<p><img class= 'stimulus' src='images/baseline/05139v.jpg'></img></p>","null","","1550348781422","14","","","","","",""
"null","","html-keyboard-response","268","1256972","0.0-6.0-15.13","19","<p><img class= 'stimulus' src='images/baseline/04196v.jpg'></img></p>","null","","1550348781523","","","","","","",""
"null","","html-keyboard-response","269","1257073","0.0-6.0-16.13","19","<p><img class= 'stimulus' src='images/baseline/hills 3.jpg'></img></p>","null","","1550348781622","","","","","","",""
"null","","html-keyboard-response","270","1257188","0.0-6.0-17.13","19","<p><img class= 'stimulus' src='images/baseline/building_at_national_conservation.jpg'></img></p>","null","","1550348781723","","","","","","",""
"725.3999999957159","","html-button-response","271","1258917","0.0-6.0-18.13","19","<div class = ""response_question"">WAS THE IMAGE ROTATED...</div>","","3","","","6","2","bas","right","practice","true"
"1006.3000000081956","","html-button-response","272","1259925","0.0-6.0-0.14","19","","","0","","","","","","","",""
"null","","html-keyboard-response","273","1260005","0.0-6.0-1.14","19","<p><img class= 'stimulus' src='images/baseline/04229v.jpg'></img></p>","null","","1550348784556","","","","","","",""
"null","","html-keyboard-response","274","1260106","0.0-6.0-2.14","19","<p><img class= 'stimulus' src='images/baseline/geese-flying-over-lake-at-dusk.jpg'></img></p>","null","","1550348784656","","","","","","",""
"null","","html-keyboard-response","275","1260206","0.0-6.0-3.14","19","<p><img class= 'stimulus' src='images/baseline/building2.jpg'></img></p>","null","","1550348784756","","","","","","",""
"null","","html-keyboard-response","276","1260305","0.0-6.0-4.14","19","<p><img class= 'stimulus' src='images/baseline/empire-state-building.jpg'></img></p>","null","","1550348784857","4","","","","","",""
"null","","html-keyboard-response","277","1260406","0.0-6.0-5.14","19","<p><img class= 'stimulus' src='images/baseline/04040v.jpg'></img></p>","null","","1550348784957","","","","","","",""
"null","","html-keyboard-response","278","1260506","0.0-6.0-6.14","19","<p><img class= 'stimulus' src='images/baseline/grand-teton-mountains.jpg'></img></p>","null","","1550348785056","6","","","","","",""
"null","","html-keyboard-response","279","1260606","0.0-6.0-7.14","19","<p><img class= 'stimulus' src='images/baseline/pexels-photo-1837621.jpeg'></img></p>","null","","1550348785156","","","","","","",""
"null","","html-keyboard-response","280","1260705","0.0-6.0-8.14","19","<p><img class= 'stimulus left-rotate' src='images/target/coconut-3396945_640.jpg'></img></p>","null","","1550348785258","8","","","","","",""
"null","","html-keyboard-response","281","1260805","0.0-6.0-9.14","19","<p><img class= 'stimulus' src='images/baseline/farmhouse8.jpg'></img></p>","null","","1550348785356","","","","","","",""
"null","","html-keyboard-response","282","1260907","0.0-6.0-10.14","19","<p><img class= 'stimulus' src='images/baseline/pexels-photo-210617.jpeg'></img></p>","null","","1550348785456","","","","","","",""
"null","","html-keyboard-response","283","1261005","0.0-6.0-11.14","19","<p><img class= 'stimulus' src='images/baseline/church-silhouette-8712964986014Kb.jpg'></img></p>","null","","1550348785556","","","","","","",""
"null","","html-keyboard-response","284","1261106","0.0-6.0-12.14","19","<p><img class= 'stimulus' src='images/baseline/Lake 7.jpg'></img></p>","null","","1550348785656","12","","","","","",""
"null","","html-keyboard-response","285","1261206","0.0-6.0-13.14","19","<p><img class= 'stimulus' src='images/baseline/pexels-photo-280222.jpeg'></img></p>","null","","1550348785757","","","","","","",""
"null","","html-keyboard-response","286","1261306","0.0-6.0-14.14","19","<p><img class= 'stimulus' src='images/baseline/04086v.jpg'></img></p>","null","","1550348785856","14","","","","","",""
"null","","html-keyboard-response","287","1261405","0.0-6.0-15.14","19","<p><img class= 'stimulus' src='images/baseline/Freudenberg_sg_Switzerland.jpg'></img></p>","null","","1550348785957","","","","","","",""
"null","","html-keyboard-response","288","1261506","0.0-6.0-16.14","19","<p><img class= 'stimulus' src='images/baseline/field 1.jpg'></img></p>","null","","1550348786057","","","","","","",""
"null","","html-keyboard-response","289","1261622","0.0-6.0-17.14","19","<p><img class= 'stimulus' src='images/baseline/03201v.jpg'></img></p>","null","","1550348786157","","","","","","",""
"786.8000000016764","","html-button-response","290","1263413","0.0-6.0-18.14","19","<div class = ""response_question"">WAS THE IMAGE ROTATED...</div>","","0","","","6","2","bas","left","practice","true"
"838.4999999543652","","html-button-response","291","1264252","0.0-6.0-0.15","19","","","0","","","","","","","",""
"null","","html-keyboard-response","292","1264338","0.0-6.0-1.15","19","<p><img class= 'stimulus' src='images/baseline/building8.jpg'></img></p>","null","","1550348788891","","","","","","",""
"null","","html-keyboard-response","293","1264439","0.0-6.0-2.15","19","<p><img class= 'stimulus' src='images/baseline/sunset-over-the-lake.jpg'></img></p>","null","","1550348788990","","","","","","",""
"null","","html-keyboard-response","294","1264539","0.0-6.0-3.15","19","<p><img class= 'stimulus' src='images/baseline/pexels-photo-568236.jpeg'></img></p>","null","","1550348789090","","","","","","",""
"null","","html-keyboard-response","295","1264639","0.0-6.0-4.15","19","<p><img class= 'stimulus' src='images/baseline/field 3.jpg'></img></p>","null","","1550348789190","4","","","","","",""
"null","","html-keyboard-response","296","1264739","0.0-6.0-5.15","19","<p><img class= 'stimulus' src='images/baseline/farmhouse11.jpg'></img></p>","null","","1550348789289","","","","","","",""
"null","","html-keyboard-response","297","1264840","0.0-6.0-6.15","19","<p><img class= 'stimulus' src='images/baseline/building3.jpg'></img></p>","null","","1550348789389","6","","","","","",""
"null","","html-keyboard-response","298","1264939","0.0-6.0-7.15","19","<p><img class= 'stimulus' src='images/baseline/dirt-road-or-trail-through-park.jpg'></img></p>","null","","1550348789490","","","","","","",""
"null","","html-keyboard-response","299","1265040","0.0-6.0-8.15","19","<p><img class= 'stimulus' src='images/baseline/flooded-bridge.jpg'></img></p>","null","","1550348789589","8","","","","","",""
"null","","html-keyboard-response","300","1265140","0.0-6.0-9.15","19","<p><img class= 'stimulus' src='images/baseline/meadow-with-mountain-in-background.jpg'></img></p>","null","","1550348789689","","","","","","",""
"null","","html-keyboard-response","301","1265240","0.0-6.0-10.15","19","<p><img class= 'stimulus' src='images/baseline/04117v.jpg'></img></p>","null","","1550348789790","","","","","","",""
"null","","html-keyboard-response","302","1265339","0.0-6.0-11.15","19","<p><img class= 'stimulus' src='images/baseline/Street 3.jpg'></img></p>","null","","1550348789891","","","","","","",""
"null","","html-keyboard-response","303","1265438","0.0-6.0-12.15","19","<p><img class= 'stimulus' src='images/target/petronas-towers-433081_1920.jpg'></img></p>","null","","1550348789990","12","","","","","",""
"null","","html-keyboard-response","304","1265539","0.0-6.0-13.15","19","<p><img class= 'stimulus' src='images/baseline/04284v.jpg'></img></p>","null","","1550348790090","","","","","","",""
"null","","html-keyboard-response","305","1265639","0.0-6.0-14.15","19","<p><img class= 'stimulus' src='images/baseline/04021v.jpg'></img></p>","null","","1550348790188","14","","","","","",""
"null","","html-keyboard-response","306","1265739","0.0-6.0-15.15","19","<p><img class= 'stimulus' src='images/baseline/05203v.jpg'></img></p>","null","","1550348790289","","","","","","",""
"null","","html-keyboard-response","307","1265840","0.0-6.0-16.15","19","<p><img class= 'stimulus' src='images/baseline/landscape1.jpg'></img></p>","null","","1550348790389","","","","","","",""
"null","","html-keyboard-response","308","1265956","0.0-6.0-17.15","19","<p><img class= 'stimulus' src='images/baseline/foreclosed_home.jpg'></img></p>","null","","1550348790489","","","","","","",""
"1531.3000000314787","","html-button-response","309","1268493","0.0-6.0-18.15","19","<div class = ""response_question"">WAS THE IMAGE ROTATED...</div>","","4","","","4","8","bas","right","practice","true"
"29406.40000003623","","html-button-response","310","1297901","0.0-7.0","19","<p>You have now completed the practice phase. We will now begin the real trials.         This is a reminder that you will be searching for a rotated image among the series of upright images.</p>         <p>Remember, please do not blink or move your eyes while the images are on the screen.</p>         <p>At the end of the experiment, the experimenter will be able to show you how accurate you were.</p>","","0","","","","","","","",""
"3430.199999944307","","html-button-response","311","1301332","0.0-8.0-0.0-0.0","19","","","0","","","","","","","",""
"null","","html-keyboard-response","312","1301423","0.0-8.0-0.0-1.0","19","<p><img class= 'stimulus' src='images/baseline/Waterfall 1.jpg'></img></p>","null","","1550348825972","","","","","","",""
"null","","html-keyboard-response","313","1301522","0.0-8.0-0.0-2.0","19","<p><img class= 'stimulus' src='images/baseline/landscape38.jpg'></img></p>","null","","1550348826073","","","","","","",""
"null","","html-keyboard-response","314","1301624","0.0-8.0-0.0-3.0","19","<p><img class= 'stimulus' src='images/baseline/Bahia_Onelli_Parque_Nacional_Los_Glaciares_Patagonia_Argentina_Luca_Galuzzi_2005.jpg'></img></p>","null","","1550348826172","","","","","","",""
"null","","html-keyboard-response","315","1301722","0.0-8.0-0.0-4.0","19","<p><img class= 'stimulus' src='images/baseline/farmhouse3.jpg'></img></p>","null","","1550348826272","4","","","","","",""
"null","","html-keyboard-response","316","1301823","0.0-8.0-0.0-5.0","19","<p><img class= 'stimulus' src='images/baseline/03220v.jpg'></img></p>","null","","1550348826373","","","","","","",""
"null","","html-keyboard-response","317","1301923","0.0-8.0-0.0-6.0","19","<p><img class= 'stimulus left-rotate' src='images/target/tree-197536_640.jpg'></img></p>","null","","1550348826473","6","","","","","",""
"null","","html-keyboard-response","318","1302023","0.0-8.0-0.0-7.0","19","<p><img class= 'stimulus' src='images/baseline/horse_statue.jpg'></img></p>","null","","1550348826573","","","","","","",""
"null","","html-keyboard-response","319","1302124","0.0-8.0-0.0-8.0","19","<p><img class= 'stimulus' src='images/baseline/Lake 5.jpg'></img></p>","null","","1550348826673","8","","","","","",""
"null","","html-keyboard-response","320","1302222","0.0-8.0-0.0-9.0","19","<p><img class= 'stimulus' src='images/baseline/Niinsaare_jarv.jpg'></img></p>","null","","1550348826773","","","","","","",""
"null","","html-keyboard-response","321","1302323","0.0-8.0-0.0-10.0","19","<p><img class= 'stimulus' src='images/baseline/landscape4.jpg'></img></p>","null","","1550348826873","","","","","","",""
"null","","html-keyboard-response","322","1302423","0.0-8.0-0.0-11.0","19","<p><img class= 'stimulus' src='images/baseline/Peyto_Lake-Banff_NP-Canada.jpg'></img></p>","null","","1550348826973","","","","","","",""
"null","","html-keyboard-response","323","1302523","0.0-8.0-0.0-12.0","19","<p><img class= 'stimulus' src='images/baseline/02960v.jpg'></img></p>","null","","1550348827073","12","","","","","",""
"null","","html-keyboard-response","324","1302622","0.0-8.0-0.0-13.0","19","<p><img class= 'stimulus' src='images/baseline/lake 2.jpg'></img></p>","null","","1550348827172","","","","","","",""
"null","","html-keyboard-response","325","1302722","0.0-8.0-0.0-14.0","19","<p><img class= 'stimulus' src='images/baseline/03063v.jpg'></img></p>","null","","1550348827274","14","","","","","",""
"null","","html-keyboard-response","326","1302823","0.0-8.0-0.0-15.0","19","<p><img class= 'stimulus' src='images/baseline/Happy pose 3.jpg'></img></p>","null","","1550348827373","","","","","","",""
"null","","html-keyboard-response","327","1302923","0.0-8.0-0.0-16.0","19","<p><img class= 'stimulus' src='images/baseline/04130v.jpg'></img></p>","null","","1550348827473","","","","","","",""
"null","","html-keyboard-response","328","1303038","0.0-8.0-0.0-17.0","19","<p><img class= 'stimulus' src='images/baseline/pexels-photo-894312.jpeg'></img></p>","null","","1550348827573","","","","","","",""
"1736.0999999800697","","html-button-response","329","1305783","0.0-8.0-0.0-18.0","19","<div class = ""response_question"">WAS THE IMAGE ROTATED...</div>","","1","","","4","2","bas","left","test","true"
"1381.8999999784864","","html-button-response","330","1307167","0.0-8.0-0.0-0.1","19","","","0","","","","","","","",""
"null","","html-keyboard-response","331","1307242","0.0-8.0-0.0-1.1","19","<p><img class= 'stimulus' src='images/baseline/grand-teton-mountains.jpg'></img></p>","null","","1550348831792","","","","","","",""
"null","","html-keyboard-response","332","1307341","0.0-8.0-0.0-2.1","19","<p><img class= 'stimulus' src='images/baseline/Paysage_karabagh_02.jpg'></img></p>","null","","1550348831893","","","","","","",""
"null","","html-keyboard-response","333","1307443","0.0-8.0-0.0-3.1","19","<p><img class= 'stimulus' src='images/baseline/landscape2.jpg'></img></p>","null","","1550348831993","","","","","","",""
"null","","html-keyboard-response","334","1307542","0.0-8.0-0.0-4.1","19","<p><img class= 'stimulus' src='images/baseline/03045v.jpg'></img></p>","null","","1550348832092","4","","","","","",""
"null","","html-keyboard-response","335","1307642","0.0-8.0-0.0-5.1","19","<p><img class= 'stimulus' src='images/baseline/house1.jpg'></img></p>","null","","1550348832193","","","","","","",""
"null","","html-keyboard-response","336","1307741","0.0-8.0-0.0-6.1","19","<p><img class= 'stimulus' src='images/baseline/house8.jpg'></img></p>","null","","1550348832291","6","","","","","",""
"null","","html-keyboard-response","337","1307842","0.0-8.0-0.0-7.1","19","<p><img class= 'stimulus' src='images/baseline/05179v.jpg'></img></p>","null","","1550348832392","","","","","","",""
"null","","html-keyboard-response","338","1307941","0.0-8.0-0.0-8.1","19","<p><img class= 'stimulus' src='images/baseline/river 1.jpg'></img></p>","null","","1550348832492","8","","","","","",""
"null","","html-keyboard-response","339","1308042","0.0-8.0-0.0-9.1","19","<p><img class= 'stimulus' src='images/baseline/Lake 8.jpg'></img></p>","null","","1550348832593","","","","","","",""
"null","","html-keyboard-response","340","1308143","0.0-8.0-0.0-10.1","19","<p><img class= 'stimulus' src='images/baseline/05303v.jpg'></img></p>","null","","1550348832692","","","","","","",""
"null","","html-keyboard-response","341","1308242","0.0-8.0-0.0-11.1","19","<p><img class= 'stimulus' src='images/baseline/building2.jpg'></img></p>","null","","1550348832792","","","","","","",""
"null","","html-keyboard-response","342","1308342","0.0-8.0-0.0-12.1","19","<p><img class= 'stimulus' src='images/target/lookout_tower.jpg'></img></p>","null","","1550348832892","12","","","","","",""
"null","","html-keyboard-response","343","1308441","0.0-8.0-0.0-13.1","19","<p><img class= 'stimulus' src='images/baseline/04193v.jpg'></img></p>","null","","1550348832992","","","","","","",""
"null","","html-keyboard-response","344","1308542","0.0-8.0-0.0-14.1","19","<p><img class= 'stimulus' src='images/baseline/04060v.jpg'></img></p>","null","","1550348833092","14","","","","","",""
"null","","html-keyboard-response","345","1308642","0.0-8.0-0.0-15.1","19","<p><img class= 'stimulus' src='images/baseline/landscape33.jpg'></img></p>","null","","1550348833193","","","","","","",""
"null","","html-keyboard-response","346","1308741","0.0-8.0-0.0-16.1","19","<p><img class= 'stimulus' src='images/baseline/pexels-photo-568236.jpeg'></img></p>","null","","1550348833292","","","","","","",""
"null","","html-keyboard-response","347","1308858","0.0-8.0-0.0-17.1","19","<p><img class= 'stimulus' src='images/baseline/flooded-bridge.jpg'></img></p>","null","","1550348833393","","","","","","",""
"804.3999999645166","","html-button-response","348","1310679","0.0-8.0-0.0-18.1","19","<div class = ""response_question"">WAS THE IMAGE ROTATED...</div>","","4","","","4","8","bas","right","test","true"
"958.0999999889173","","html-button-response","349","1311639","0.0-8.0-0.0-0.2","19","","","0","","","","","","","",""
"null","","html-keyboard-response","350","1311725","0.0-8.0-0.0-1.2","19","<p><img class= 'stimulus' src='images/baseline/Street 5.jpg'></img></p>","null","","1550348836275","","","","","","",""
"null","","html-keyboard-response","351","1311825","0.0-8.0-0.0-2.2","19","<p><img class= 'stimulus' src='images/baseline/landscape12.jpg'></img></p>","null","","1550348836376","","","","","","",""
"null","","html-keyboard-response","352","1311925","0.0-8.0-0.0-3.2","19","<p><img class= 'stimulus' src='images/baseline/landscape31.jpg'></img></p>","null","","1550348836476","","","","","","",""
"null","","html-keyboard-response","353","1312025","0.0-8.0-0.0-4.2","19","<p><img class= 'stimulus' src='images/baseline/05145v.jpg'></img></p>","null","","1550348836575","4","","","","","",""
"null","","html-keyboard-response","354","1312125","0.0-8.0-0.0-5.2","19","<p><img class= 'stimulus' src='images/baseline/04064v.jpg'></img></p>","null","","1550348836675","","","","","","",""
"null","","html-keyboard-response","355","1312226","0.0-8.0-0.0-6.2","19","<p><img class= 'stimulus' src='images/negative/Snake 5.jpg'></img></p>","null","","1550348836775","6","","","","","",""
"null","","html-keyboard-response","356","1312324","0.0-8.0-0.0-7.2","19","<p><img class= 'stimulus' src='images/baseline/05139v.jpg'></img></p>","null","","1550348836876","","","","","","",""
"null","","html-keyboard-response","357","1312425","0.0-8.0-0.0-8.2","19","<p><img class= 'stimulus left-rotate' src='images/target/buildin2.png'></img></p>","null","","1550348836978","8","","","","","",""
"null","","html-keyboard-response","358","1312526","0.0-8.0-0.0-9.2","19","<p><img class= 'stimulus' src='images/baseline/agriculture-countryside-crop-259280.jpg'></img></p>","null","","1550348837076","","","","","","",""
"null","","html-keyboard-response","359","1312625","0.0-8.0-0.0-10.2","19","<p><img class= 'stimulus' src='images/baseline/city-silhouette-at-sunset-871291580819Esw.jpg'></img></p>","null","","1550348837175","","","","","","",""
"null","","html-keyboard-response","360","1312725","0.0-8.0-0.0-11.2","19","<p><img class= 'stimulus' src='images/baseline/landscape34.jpg'></img></p>","null","","1550348837275","","","","","","",""
"null","","html-keyboard-response","361","1312825","0.0-8.0-0.0-12.2","19","<p><img class= 'stimulus' src='images/baseline/Sailing 3.jpg'></img></p>","null","","1550348837376","12","","","","","",""
"null","","html-keyboard-response","362","1312926","0.0-8.0-0.0-13.2","19","<p><img class= 'stimulus' src='images/baseline/Dirt 2.jpg'></img></p>","null","","1550348837476","","","","","","",""
"null","","html-keyboard-response","363","1313025","0.0-8.0-0.0-14.2","19","<p><img class= 'stimulus' src='images/baseline/landscape29.jpg'></img></p>","null","","1550348837576","14","","","","","",""
"null","","html-keyboard-response","364","1313125","0.0-8.0-0.0-15.2","19","<p><img class= 'stimulus' src='images/baseline/Grass 6.jpg'></img></p>","null","","1550348837675","","","","","","",""
"null","","html-keyboard-response","365","1313226","0.0-8.0-0.0-16.2","19","<p><img class= 'stimulus' src='images/baseline/town-square-in-wroclaw-1539098440MZy.jpg'></img></p>","null","","1550348837776","","","","","","",""
"null","","html-keyboard-response","366","1313343","0.0-8.0-0.0-17.2","19","<p><img class= 'stimulus' src='images/baseline/seoul-410266_1920.jpg'></img></p>","null","","1550348837876","","","","","","",""
"644.0000000293367","","html-button-response","367","1314991","0.0-8.0-0.0-18.2","19","<div class = ""response_question"">WAS THE IMAGE ROTATED...</div>","","0","","","6","2","neg","left","test","true"
"1302.2999999811873","","html-button-response","368","1316295","0.0-8.0-0.0-0.3","19","","","0","","","","","","","",""
"null","","html-keyboard-response","369","1316375","0.0-8.0-0.0-1.3","19","<p><img class= 'stimulus' src='images/baseline/99_-_Machu_Picchu_-_Juin_2009.edit3.jpg'></img></p>","null","","1550348840925","","","","","","",""
"null","","html-keyboard-response","370","1316475","0.0-8.0-0.0-2.3","19","<p><img class= 'stimulus' src='images/baseline/Nature 1.jpg'></img></p>","null","","1550348841025","","","","","","",""
"null","","html-keyboard-response","371","1316575","0.0-8.0-0.0-3.3","19","<p><img class= 'stimulus' src='images/baseline/building12.jpg'></img></p>","null","","1550348841127","","","","","","",""
"null","","html-keyboard-response","372","1316675","0.0-8.0-0.0-4.3","19","<p><img class= 'stimulus' src='images/baseline/Sunset 3.jpg'></img></p>","null","","1550348841225","4","","","","","",""
"null","","html-keyboard-response","373","1316775","0.0-8.0-0.0-5.3","19","<p><img class= 'stimulus' src='images/baseline/dirt-road-or-trail-through-park.jpg'></img></p>","null","","1550348841326","","","","","","",""
"null","","html-keyboard-response","374","1316875","0.0-8.0-0.0-6.3","19","<p><img class= 'stimulus left-rotate' src='images/target/palm-trees-1209125_640.jpg'></img></p>","null","","1550348841425","6","","","","","",""
"null","","html-keyboard-response","375","1316976","0.0-8.0-0.0-7.3","19","<p><img class= 'stimulus' src='images/baseline/02962v.jpg'></img></p>","null","","1550348841526","","","","","","",""
"null","","html-keyboard-response","376","1317076","0.0-8.0-0.0-8.3","19","<p><img class= 'stimulus' src='images/baseline/hills 3.jpg'></img></p>","null","","1550348841625","8","","","","","",""
"null","","html-keyboard-response","377","1317177","0.0-8.0-0.0-9.3","19","<p><img class= 'stimulus' src='images/baseline/05161v.jpg'></img></p>","null","","1550348841726","","","","","","",""
"null","","html-keyboard-response","378","1317276","0.0-8.0-0.0-10.3","19","<p><img class= 'stimulus' src='images/baseline/landscape16.jpg'></img></p>","null","","1550348841826","","","","","","",""
"null","","html-keyboard-response","379","1317375","0.0-8.0-0.0-11.3","19","<p><img class= 'stimulus' src='images/baseline/Sunset 5.jpg'></img></p>","null","","1550348841925","","","","","","",""
"null","","html-keyboard-response","380","1317475","0.0-8.0-0.0-12.3","19","<p><img class= 'stimulus' src='images/baseline/building8.jpg'></img></p>","null","","1550348842025","12","","","","","",""
"null","","html-keyboard-response","381","1317575","0.0-8.0-0.0-13.3","19","<p><img class= 'stimulus' src='images/baseline/landscape11.jpg'></img></p>","null","","1550348842125","","","","","","",""
"null","","html-keyboard-response","382","1317675","0.0-8.0-0.0-14.3","19","<p><img class= 'stimulus' src='images/baseline/03114v.jpg'></img></p>","null","","1550348842226","14","","","","","",""
"null","","html-keyboard-response","383","1317776","0.0-8.0-0.0-15.3","19","<p><img class= 'stimulus' src='images/baseline/bird-flying-at-sunset.jpg'></img></p>","null","","1550348842325","","","","","","",""
"null","","html-keyboard-response","384","1317876","0.0-8.0-0.0-16.3","19","<p><img class= 'stimulus' src='images/baseline/house11.jpg'></img></p>","null","","1550348842426","","","","","","",""
"null","","html-keyboard-response","385","1317992","0.0-8.0-0.0-17.3","19","<p><img class= 'stimulus' src='images/baseline/04063v.jpg'></img></p>","null","","1550348842526","","","","","","",""
"1632.2999999974854","","html-button-response","386","1320631","0.0-8.0-0.0-18.3","19","<div class = ""response_question"">WAS THE IMAGE ROTATED...</div>","","1","","","4","2","bas","left","test","true"
"710.4000000399537","","html-button-response","387","1321343","0.0-8.0-0.0-0.4","19","","","0","","","","","","","",""
"null","","html-keyboard-response","388","1321426","0.0-8.0-0.0-1.4","19","<p><img class= 'stimulus' src='images/baseline/pexels-photo-1837621.jpeg'></img></p>","null","","1550348845975","","","","","","",""
"null","","html-keyboard-response","389","1321525","0.0-8.0-0.0-2.4","19","<p><img class= 'stimulus' src='images/baseline/Kocherbaumwald-01.jpg'></img></p>","null","","1550348846076","","","","","","",""
"null","","html-keyboard-response","390","1321625","0.0-8.0-0.0-3.4","19","<p><img class= 'stimulus' src='images/baseline/sunny-landscape-with-dry-brush-and-mountain-background.jpg'></img></p>","null","","1550348846175","","","","","","",""
"null","","html-keyboard-response","391","1321725","0.0-8.0-0.0-4.4","19","<p><img class= 'stimulus' src='images/negative/Shark 11.jpg'></img></p>","null","","1550348846276","4","","","","","",""
"null","","html-keyboard-response","392","1321825","0.0-8.0-0.0-5.4","19","<p><img class= 'stimulus' src='images/baseline/landscape7.jpg'></img></p>","null","","1550348846376","","","","","","",""
"null","","html-keyboard-response","393","1321927","0.0-8.0-0.0-6.4","19","<p><img class= 'stimulus' src='images/baseline/04062v.jpg'></img></p>","null","","1550348846476","6","","","","","",""
"null","","html-keyboard-response","394","1322024","0.0-8.0-0.0-7.4","19","<p><img class= 'stimulus' src='images/baseline/snowy tree.jpg'></img></p>","null","","1550348846575","","","","","","",""
"null","","html-keyboard-response","395","1322125","0.0-8.0-0.0-8.4","19","<p><img class= 'stimulus' src='images/baseline/landscape35.jpg'></img></p>","null","","1550348846675","8","","","","","",""
"null","","html-keyboard-response","396","1322226","0.0-8.0-0.0-9.4","19","<p><img class= 'stimulus' src='images/baseline/pexels-photo-59321.jpeg'></img></p>","null","","1550348846776","","","","","","",""
"null","","html-keyboard-response","397","1322325","0.0-8.0-0.0-10.4","19","<p><img class= 'stimulus' src='images/baseline/house3.jpg'></img></p>","null","","1550348846876","","","","","","",""
"null","","html-keyboard-response","398","1322425","0.0-8.0-0.0-11.4","19","<p><img class= 'stimulus' src='images/baseline/pexels-photo-414491.jpeg'></img></p>","null","","1550348846975","","","","","","",""
"null","","html-keyboard-response","399","1322525","0.0-8.0-0.0-12.4","19","<p><img class= 'stimulus' src='images/target/lone-tree.png'></img></p>","null","","1550348847075","12","","","","","",""
"null","","html-keyboard-response","400","1322626","0.0-8.0-0.0-13.4","19","<p><img class= 'stimulus' src='images/baseline/farmhouse1.jpg'></img></p>","null","","1550348847175","","","","","","",""
"null","","html-keyboard-response","401","1322726","0.0-8.0-0.0-14.4","19","<p><img class= 'stimulus' src='images/baseline/Street 1.jpg'></img></p>","null","","1550348847276","14","","","","","",""
"null","","html-keyboard-response","402","1322826","0.0-8.0-0.0-15.4","19","<p><img class= 'stimulus' src='images/baseline/lake 1.jpg'></img></p>","null","","1550348847376","","","","","","",""
"null","","html-keyboard-response","403","1322927","0.0-8.0-0.0-16.4","19","<p><img class= 'stimulus' src='images/baseline/house10.jpg'></img></p>","null","","1550348847476","","","","","","",""
"null","","html-keyboard-response","404","1323042","0.0-8.0-0.0-17.4","19","<p><img class= 'stimulus' src='images/baseline/__08_-_ITALY_-_Forli_under_snow_-_winter_landscape_of_city_(christmas).jpg'></img></p>","null","","1550348847575","","","","","","",""
"450.70000004488975","","html-button-response","405","1324495","0.0-8.0-0.0-18.4","19","<div class = ""response_question"">WAS THE IMAGE ROTATED...</div>","","0","","","4","8","neg","right","test","false"
"870.5000000190921","","html-button-response","406","1325366","0.0-8.0-0.0-0.5","19","","","0","","","","","","","",""
"null","","html-keyboard-response","407","1325442","0.0-8.0-0.0-1.5","19","<p><img class= 'stimulus' src='images/baseline/02988v.jpg'></img></p>","null","","1550348849992","","","","","","",""
"null","","html-keyboard-response","408","1325542","0.0-8.0-0.0-2.5","19","<p><img class= 'stimulus' src='images/baseline/landscape17.jpg'></img></p>","null","","1550348850093","","","","","","",""
"null","","html-keyboard-response","409","1325642","0.0-8.0-0.0-3.5","19","<p><img class= 'stimulus' src='images/baseline/Skyscraper 1.jpg'></img></p>","null","","1550348850193","","","","","","",""
"null","","html-keyboard-response","410","1325742","0.0-8.0-0.0-4.5","19","<p><img class= 'stimulus' src='images/baseline/farmhouse2.jpg'></img></p>","null","","1550348850292","4","","","","","",""
"null","","html-keyboard-response","411","1325841","0.0-8.0-0.0-5.5","19","<p><img class= 'stimulus' src='images/baseline/sunset-over-the-lake.jpg'></img></p>","null","","1550348850393","","","","","","",""
"null","","html-keyboard-response","412","1325942","0.0-8.0-0.0-6.5","19","<p><img class= 'stimulus' src='images/baseline/02945v.jpg'></img></p>","null","","1550348850492","6","","","","","",""
"null","","html-keyboard-response","413","1326041","0.0-8.0-0.0-7.5","19","<p><img class= 'stimulus' src='images/baseline/valley 2.jpg'></img></p>","null","","1550348850593","","","","","","",""
"null","","html-keyboard-response","414","1326142","0.0-8.0-0.0-8.5","19","<p><img class= 'stimulus' src='images/target/fishhouse.jpg'></img></p>","null","","1550348850693","8","","","","","",""
"null","","html-keyboard-response","415","1326242","0.0-8.0-0.0-9.5","19","<p><img class= 'stimulus' src='images/baseline/red rocks from afar.jpg'></img></p>","null","","1550348850792","","","","","","",""
"null","","html-keyboard-response","416","1326342","0.0-8.0-0.0-10.5","19","<p><img class= 'stimulus' src='images/baseline/farmhouse7.jpg'></img></p>","null","","1550348850893","","","","","","",""
"null","","html-keyboard-response","417","1326442","0.0-8.0-0.0-11.5","19","<p><img class= 'stimulus' src='images/baseline/03056v.jpg'></img></p>","null","","1550348850992","","","","","","",""
"null","","html-keyboard-response","418","1326543","0.0-8.0-0.0-12.5","19","<p><img class= 'stimulus' src='images/baseline/farmhouse11.jpg'></img></p>","null","","1550348851092","12","","","","","",""
"null","","html-keyboard-response","419","1326642","0.0-8.0-0.0-13.5","19","<p><img class= 'stimulus' src='images/baseline/pexels-photo-1287089.jpeg'></img></p>","null","","1550348851193","","","","","","",""
"null","","html-keyboard-response","420","1326742","0.0-8.0-0.0-14.5","19","<p><img class= 'stimulus' src='images/baseline/agriculture-bright-clouds-440731.jpg'></img></p>","null","","1550348851293","14","","","","","",""
"null","","html-keyboard-response","421","1326842","0.0-8.0-0.0-15.5","19","<p><img class= 'stimulus' src='images/baseline/farmhouse9.jpg'></img></p>","null","","1550348851392","","","","","","",""
"null","","html-keyboard-response","422","1326941","0.0-8.0-0.0-16.5","19","<p><img class= 'stimulus' src='images/baseline/04284v.jpg'></img></p>","null","","1550348851493","","","","","","",""
"null","","html-keyboard-response","423","1327059","0.0-8.0-0.0-17.5","19","<p><img class= 'stimulus' src='images/baseline/05189v.jpg'></img></p>","null","","1550348851594","","","","","","",""
"431.80000002030283","","html-button-response","424","1328495","0.0-8.0-0.0-18.5","19","<div class = ""response_question"">WAS THE IMAGE ROTATED...</div>","","4","","","6","2","bas","right","test","true"
"790.2999999932945","","html-button-response","425","1329287","0.0-8.0-0.0-0.6","19","","","0","","","","","","","",""
"null","","html-keyboard-response","426","1329359","0.0-8.0-0.0-1.6","19","<p><img class= 'stimulus' src='images/baseline/landscape14.jpg'></img></p>","null","","1550348853910","","","","","","",""
"null","","html-keyboard-response","427","1329459","0.0-8.0-0.0-2.6","19","<p><img class= 'stimulus' src='images/baseline/field 3.jpg'></img></p>","null","","1550348854010","","","","","","",""
"null","","html-keyboard-response","428","1329559","0.0-8.0-0.0-3.6","19","<p><img class= 'stimulus' src='images/baseline/pexels-photo-541101.jpeg'></img></p>","null","","1550348854109","","","","","","",""
"null","","html-keyboard-response","429","1329658","0.0-8.0-0.0-4.6","19","<p><img class= 'stimulus' src='images/negative/Shark 10.jpg'></img></p>","null","","1550348854210","4","","","","","",""
"null","","html-keyboard-response","430","1329759","0.0-8.0-0.0-5.6","19","<p><img class= 'stimulus' src='images/baseline/Nature 2.jpg'></img></p>","null","","1550348854308","","","","","","",""
"null","","html-keyboard-response","431","1329858","0.0-8.0-0.0-6.6","19","<p><img class= 'stimulus' src='images/baseline/Linden,_paysage.jpg'></img></p>","null","","1550348854408","6","","","","","",""
"null","","html-keyboard-response","432","1329959","0.0-8.0-0.0-7.6","19","<p><img class= 'stimulus' src='images/baseline/pexels-photo-1054289.jpeg'></img></p>","null","","1550348854508","","","","","","",""
"null","","html-keyboard-response","433","1330059","0.0-8.0-0.0-8.6","19","<p><img class= 'stimulus' src='images/baseline/landscape13.jpg'></img></p>","null","","1550348854608","8","","","","","",""
"null","","html-keyboard-response","434","1330158","0.0-8.0-0.0-9.6","19","<p><img class= 'stimulus' src='images/baseline/pexels-photo-459203.jpeg'></img></p>","null","","1550348854710","","","","","","",""
"null","","html-keyboard-response","435","1330259","0.0-8.0-0.0-10.6","19","<p><img class= 'stimulus' src='images/baseline/pexels-photo-808465.jpeg'></img></p>","null","","1550348854810","","","","","","",""
"null","","html-keyboard-response","436","1330359","0.0-8.0-0.0-11.6","19","<p><img class= 'stimulus' src='images/baseline/Street 4.jpg'></img></p>","null","","1550348854909","","","","","","",""
"null","","html-keyboard-response","437","1330459","0.0-8.0-0.0-12.6","19","<p><img class= 'stimulus left-rotate' src='images/target/Wild-West-South-West-Usa-Landscape-America-1663497.jpg'></img></p>","null","","1550348855010","12","","","","","",""
"null","","html-keyboard-response","438","1330559","0.0-8.0-0.0-13.6","19","<p><img class= 'stimulus' src='images/baseline/Skijump 1.jpg'></img></p>","null","","1550348855109","","","","","","",""
"null","","html-keyboard-response","439","1330660","0.0-8.0-0.0-14.6","19","<p><img class= 'stimulus' src='images/baseline/Lake 7.jpg'></img></p>","null","","1550348855210","14","","","","","",""
"null","","html-keyboard-response","440","1330758","0.0-8.0-0.0-15.6","19","<p><img class= 'stimulus' src='images/baseline/05264v.jpg'></img></p>","null","","1550348855311","","","","","","",""
"null","","html-keyboard-response","441","1330858","0.0-8.0-0.0-16.6","19","<p><img class= 'stimulus' src='images/baseline/building_at_national_conservation.jpg'></img></p>","null","","1550348855409","","","","","","",""
"null","","html-keyboard-response","442","1330976","0.0-8.0-0.0-17.6","19","<p><img class= 'stimulus' src='images/baseline/03075v.jpg'></img></p>","null","","1550348855509","","","","","","",""
"444.00000001769513","","html-button-response","443","1332423","0.0-8.0-0.0-18.6","19","<div class = ""response_question"">WAS THE IMAGE ROTATED...</div>","","0","","","4","8","neg","left","test","true"
"686.7000000202097","","html-button-response","444","1333110","0.0-8.0-0.0-0.7","19","","","0","","","","","","","",""
"null","","html-keyboard-response","445","1333192","0.0-8.0-0.0-1.7","19","<p><img class= 'stimulus' src='images/baseline/pexels-photo-1261728.jpeg'></img></p>","null","","1550348857742","","","","","","",""
"null","","html-keyboard-response","446","1333292","0.0-8.0-0.0-2.7","19","<p><img class= 'stimulus' src='images/baseline/05167v.jpg'></img></p>","null","","1550348857843","","","","","","",""
"null","","html-keyboard-response","447","1333392","0.0-8.0-0.0-3.7","19","<p><img class= 'stimulus' src='images/baseline/lake3.jpg'></img></p>","null","","1550348857942","","","","","","",""
"null","","html-keyboard-response","448","1333493","0.0-8.0-0.0-4.7","19","<p><img class= 'stimulus' src='images/baseline/03066v.jpg'></img></p>","null","","1550348858043","4","","","","","",""
"null","","html-keyboard-response","449","1333592","0.0-8.0-0.0-5.7","19","<p><img class= 'stimulus' src='images/baseline/farmhouse6.jpg'></img></p>","null","","1550348858142","","","","","","",""
"null","","html-keyboard-response","450","1333692","0.0-8.0-0.0-6.7","19","<p><img class= 'stimulus' src='images/neutral/person on beach.jpg'></img></p>","null","","1550348858244","6","","","","","",""
"null","","html-keyboard-response","451","1333793","0.0-8.0-0.0-7.7","19","<p><img class= 'stimulus' src='images/baseline/04158v.jpg'></img></p>","null","","1550348858344","","","","","","",""
"null","","html-keyboard-response","452","1333891","0.0-8.0-0.0-8.7","19","<p><img class= 'stimulus' src='images/baseline/pexels-photo-427676.jpeg'></img></p>","null","","1550348858444","8","","","","","",""
"null","","html-keyboard-response","453","1333993","0.0-8.0-0.0-9.7","19","<p><img class= 'stimulus' src='images/baseline/Lake 13.jpg'></img></p>","null","","1550348858543","","","","","","",""
"null","","html-keyboard-response","454","1334092","0.0-8.0-0.0-10.7","19","<p><img class= 'stimulus' src='images/baseline/04162v.jpg'></img></p>","null","","1550348858642","","","","","","",""
"null","","html-keyboard-response","455","1334192","0.0-8.0-0.0-11.7","19","<p><img class= 'stimulus' src='images/baseline/cyrillic.jpg'></img></p>","null","","1550348858742","","","","","","",""
"null","","html-keyboard-response","456","1334292","0.0-8.0-0.0-12.7","19","<p><img class= 'stimulus' src='images/baseline/landscape39.jpg'></img></p>","null","","1550348858842","12","","","","","",""
"null","","html-keyboard-response","457","1334392","0.0-8.0-0.0-13.7","19","<p><img class= 'stimulus' src='images/baseline/church-silhouette-8712964986014Kb.jpg'></img></p>","null","","1550348858942","","","","","","",""
"null","","html-keyboard-response","458","1334492","0.0-8.0-0.0-14.7","19","<p><img class= 'stimulus left-rotate' src='images/target/tree-in-desert-landscape.jpg'></img></p>","null","","1550348859042","14","","","","","",""
"null","","html-keyboard-response","459","1334592","0.0-8.0-0.0-15.7","19","<p><img class= 'stimulus' src='images/baseline/Sky 1.jpg'></img></p>","null","","1550348859143","","","","","","",""
"null","","html-keyboard-response","460","1334692","0.0-8.0-0.0-16.7","19","<p><img class= 'stimulus' src='images/baseline/02947v.jpg'></img></p>","null","","1550348859242","","","","","","",""
"null","","html-keyboard-response","461","1334809","0.0-8.0-0.0-17.7","19","<p><img class= 'stimulus' src='images/baseline/lookout_tower.jpg'></img></p>","null","","1550348859343","","","","","","",""
"434.5999999786727","","html-button-response","462","1336247","0.0-8.0-0.0-18.7","19","<div class = ""response_question"">WAS THE IMAGE ROTATED...</div>","","0","","","6","8","neu","left","test","true"
"878.4999999916181","","html-button-response","463","1337127","0.0-8.0-0.0-0.8","19","","","0","","","","","","","",""
"null","","html-keyboard-response","464","1337209","0.0-8.0-0.0-1.8","19","<p><img class= 'stimulus' src='images/baseline/04222v.jpg'></img></p>","null","","1550348861759","","","","","","",""
"null","","html-keyboard-response","465","1337308","0.0-8.0-0.0-2.8","19","<p><img class= 'stimulus' src='images/baseline/05292v.jpg'></img></p>","null","","1550348861859","","","","","","",""
"null","","html-keyboard-response","466","1337410","0.0-8.0-0.0-3.8","19","<p><img class= 'stimulus' src='images/baseline/lone-old-cottonwood-tree.jpg'></img></p>","null","","1550348861960","","","","","","",""
"null","","html-keyboard-response","467","1337509","0.0-8.0-0.0-4.8","19","<p><img class= 'stimulus' src='images/neutral/Cat 2.jpg'></img></p>","null","","1550348862059","4","","","","","",""
"null","","html-keyboard-response","468","1337609","0.0-8.0-0.0-5.8","19","<p><img class= 'stimulus' src='images/baseline/farmhouse4.jpg'></img></p>","null","","1550348862159","","","","","","",""
"null","","html-keyboard-response","469","1337709","0.0-8.0-0.0-6.8","19","<p><img class= 'stimulus' src='images/baseline/pexels-photo-534164.jpeg'></img></p>","null","","1550348862259","6","","","","","",""
"null","","html-keyboard-response","470","1337809","0.0-8.0-0.0-7.8","19","<p><img class= 'stimulus' src='images/baseline/03162v.jpg'></img></p>","null","","1550348862359","","","","","","",""
"null","","html-keyboard-response","471","1337909","0.0-8.0-0.0-8.8","19","<p><img class= 'stimulus' src='images/baseline/02977v.jpg'></img></p>","null","","1550348862459","8","","","","","",""
"null","","html-keyboard-response","472","1338009","0.0-8.0-0.0-9.8","19","<p><img class= 'stimulus' src='images/baseline/sun-through-winter-tree-branches1.jpg'></img></p>","null","","1550348862560","","","","","","",""
"null","","html-keyboard-response","473","1338110","0.0-8.0-0.0-10.8","19","<p><img class= 'stimulus' src='images/baseline/Skyscraper 2.jpg'></img></p>","null","","1550348862659","","","","","","",""
"null","","html-keyboard-response","474","1338209","0.0-8.0-0.0-11.8","19","<p><img class= 'stimulus' src='images/baseline/Road 1.jpg'></img></p>","null","","1550348862760","","","","","","",""
"null","","html-keyboard-response","475","1338309","0.0-8.0-0.0-12.8","19","<p><img class= 'stimulus' src='images/target/Tree-Landscape-Winter-Nature-Winter-Trees-Snow-2117951.jpg'></img></p>","null","","1550348862859","12","","","","","",""
"null","","html-keyboard-response","476","1338408","0.0-8.0-0.0-13.8","19","<p><img class= 'stimulus' src='images/baseline/03112v.jpg'></img></p>","null","","1550348862959","","","","","","",""
"null","","html-keyboard-response","477","1338509","0.0-8.0-0.0-14.8","19","<p><img class= 'stimulus' src='images/baseline/hills 4.jpg'></img></p>","null","","1550348863059","14","","","","","",""
"null","","html-keyboard-response","478","1338609","0.0-8.0-0.0-15.8","19","<p><img class= 'stimulus' src='images/baseline/05252v.jpg'></img></p>","null","","1550348863161","","","","","","",""
"null","","html-keyboard-response","479","1338708","0.0-8.0-0.0-16.8","19","<p><img class= 'stimulus' src='images/baseline/building3.jpg'></img></p>","null","","1550348863260","","","","","","",""
"null","","html-keyboard-response","480","1338826","0.0-8.0-0.0-17.8","19","<p><img class= 'stimulus' src='images/baseline/04098v.jpg'></img></p>","null","","1550348863360","","","","","","",""
"409.70000001834705","","html-button-response","481","1340239","0.0-8.0-0.0-18.8","19","<div class = ""response_question"">WAS THE IMAGE ROTATED...</div>","","3","","","4","8","neu","right","test","true"
"854.0999999968335","","html-button-response","482","1341095","0.0-8.0-0.0-0.9","19","","","0","","","","","","","",""
"null","","html-keyboard-response","483","1341176","0.0-8.0-0.0-1.9","19","<p><img class= 'stimulus' src='images/baseline/Camping 10.jpg'></img></p>","null","","1550348865726","","","","","","",""
"null","","html-keyboard-response","484","1341276","0.0-8.0-0.0-2.9","19","<p><img class= 'stimulus' src='images/baseline/Bridge 1.jpg'></img></p>","null","","1550348865826","","","","","","",""
"null","","html-keyboard-response","485","1341375","0.0-8.0-0.0-3.9","19","<p><img class= 'stimulus' src='images/baseline/Paysage_enneige_02.jpg'></img></p>","null","","1550348865926","","","","","","",""
"null","","html-keyboard-response","486","1341476","0.0-8.0-0.0-4.9","19","<p><img class= 'stimulus' src='images/negative/Fire 7.jpg'></img></p>","null","","1550348866025","4","","","","","",""
"null","","html-keyboard-response","487","1341575","0.0-8.0-0.0-5.9","19","<p><img class= 'stimulus' src='images/baseline/valley 1.jpg'></img></p>","null","","1550348866125","","","","","","",""
"null","","html-keyboard-response","488","1341675","0.0-8.0-0.0-6.9","19","<p><img class= 'stimulus' src='images/target/building17.jpg'></img></p>","null","","1550348866227","6","","","","","",""
"null","","html-keyboard-response","489","1341776","0.0-8.0-0.0-7.9","19","<p><img class= 'stimulus' src='images/baseline/farmhouse8.jpg'></img></p>","null","","1550348866325","","","","","","",""
"null","","html-keyboard-response","490","1341876","0.0-8.0-0.0-8.9","19","<p><img class= 'stimulus' src='images/baseline/Sunset 4.jpg'></img></p>","null","","1550348866426","8","","","","","",""
"null","","html-keyboard-response","491","1341976","0.0-8.0-0.0-9.9","19","<p><img class= 'stimulus' src='images/baseline/04085v.jpg'></img></p>","null","","1550348866526","","","","","","",""
"null","","html-keyboard-response","492","1342076","0.0-8.0-0.0-10.9","19","<p><img class= 'stimulus' src='images/baseline/house2.jpg'></img></p>","null","","1550348866626","","","","","","",""
"null","","html-keyboard-response","493","1342175","0.0-8.0-0.0-11.9","19","<p><img class= 'stimulus' src='images/baseline/04040v.jpg'></img></p>","null","","1550348866726","","","","","","",""
"null","","html-keyboard-response","494","1342276","0.0-8.0-0.0-12.9","19","<p><img class= 'stimulus' src='images/baseline/05198v.jpg'></img></p>","null","","1550348866826","12","","","","","",""
"null","","html-keyboard-response","495","1342376","0.0-8.0-0.0-13.9","19","<p><img class= 'stimulus' src='images/baseline/pexels-photo-750108.jpeg'></img></p>","null","","1550348866927","","","","","","",""
"null","","html-keyboard-response","496","1342475","0.0-8.0-0.0-14.9","19","<p><img class= 'stimulus' src='images/baseline/Dock 1.jpg'></img></p>","null","","1550348867027","14","","","","","",""
"null","","html-keyboard-response","497","1342575","0.0-8.0-0.0-15.9","19","<p><img class= 'stimulus' src='images/baseline/building16.jpg'></img></p>","null","","1550348867126","","","","","","",""
"null","","html-keyboard-response","498","1342675","0.0-8.0-0.0-16.9","19","<p><img class= 'stimulus' src='images/baseline/red-rocks-park.jpg'></img></p>","null","","1550348867226","","","","","","",""
"null","","html-keyboard-response","499","1342793","0.0-8.0-0.0-17.9","19","<p><img class= 'stimulus' src='images/baseline/road.jpg'></img></p>","null","","1550348867326","","","","","","",""
"721.7999999993481","","html-button-response","500","1344520","0.0-8.0-0.0-18.9","19","<div class = ""response_question"">WAS THE IMAGE ROTATED...</div>","","1","","","4","2","neg","right","test","false"
"766.1000000080094","","html-button-response","501","1345287","0.0-8.0-0.0-0.10","19","","","0","","","","","","","",""
"null","","html-keyboard-response","502","1345359","0.0-8.0-0.0-1.10","19","<p><img class= 'stimulus' src='images/baseline/house7.jpg'></img></p>","null","","1550348869910","","","","","","",""
"null","","html-keyboard-response","503","1345459","0.0-8.0-0.0-2.10","19","<p><img class= 'stimulus' src='images/baseline/Lake 4.jpg'></img></p>","null","","1550348870009","","","","","","",""
"null","","html-keyboard-response","504","1345559","0.0-8.0-0.0-3.10","19","<p><img class= 'stimulus' src='images/baseline/pexels-photo-210617.jpeg'></img></p>","null","","1550348870109","","","","","","",""
"null","","html-keyboard-response","505","1345660","0.0-8.0-0.0-4.10","19","<p><img class= 'stimulus' src='images/negative/Snake 3.jpg'></img></p>","null","","1550348870209","4","","","","","",""
"null","","html-keyboard-response","506","1345759","0.0-8.0-0.0-5.10","19","<p><img class= 'stimulus' src='images/baseline/Beach 8.jpg'></img></p>","null","","1550348870310","","","","","","",""
"null","","html-keyboard-response","507","1345859","0.0-8.0-0.0-6.10","19","<p><img class= 'stimulus' src='images/target/landscape3.jpg'></img></p>","null","","1550348870409","6","","","","","",""
