"rt","responses","trial_type","trial_index","time_elapsed","internal_node_id","participant_id","stimulus","key_press","button_pressed","stim_onset","sequence_position","distractor_position","target_lag","distractor_type","target_orientation","phase","correct"
"7966.599999999744","{""Q0"":""39""}","survey-text","0","7971","0.0-0.0","39","","","","","","","","","","",""
"1933209.3000000021","","html-keyboard-response","1","1941190","0.0-1.0","39","Welcome to the experiment.","67","","","","","","","","",""
"17803.400000004563","","html-button-response","2","1958998","0.0-2.0","39","<p>Several images will be presented sequentially.        Each image will only be on the screen for about 100 milliseconds.</p>        <p> One of the images may be rotated 90 degrees right or left.        Watch for this image and remember if it is rotated right or left.</p>               <p>Images of people and animals will appear, and sometimes they will be unpleasant.        These will never be the rotated target image.</p>","","0","","","","","","","",""
"3293.699999994831","","html-button-response","3","1962293","0.0-3.0","39","<p><img class=""stimulus left-rotate"" src=""images/target/pexels-photo-602607.jpeg""></img></p><p>This is an example of an image rotated to the left.</p>","","0","","","","","","","",""
"4903.099999995902","","html-button-response","4","1967197","0.0-4.0","39","<p><img class=""stimulus"" src=""images/target/building19.jpg""></img></p><p>This is an example of an image rotated to the right.</p>","","0","","","","","","","",""
"11207.000000009313","","html-button-response","5","1978405","0.0-5.0","39","<p>We will now begin a short practice session.</p>         <p>A + symbol will appear in the middle of the screen. Please fix your gaze on the center of the +, and then click the mouse button to begin the image sequence.</p>         <p>Please avoid blinking or eye movements while the images are on the screen.</p>        <p>The image sequence will start relatively slow. After a few sequences, it will speed up.</p>","","0","","","","","","","",""
"15894.800000009127","","html-button-response","6","1994288","0.0-6.0-0.0","39","","","0","","","","","","","",""
"null","","html-keyboard-response","7","1994470","0.0-6.0-1.0","39","<p><img class= 'stimulus' src='images/baseline/landscape19.jpg'></img></p>","null","","1551145305532","","","","","","",""
"null","","html-keyboard-response","8","1994671","0.0-6.0-2.0","39","<p><img class= 'stimulus' src='images/baseline/red rocks from afar.jpg'></img></p>","null","","1551145305732","","","","","","",""
"null","","html-keyboard-response","9","1994871","0.0-6.0-3.0","39","<p><img class= 'stimulus' src='images/baseline/Sidewalk 4.jpg'></img></p>","null","","1551145305932","","","","","","",""
"null","","html-keyboard-response","10","1995071","0.0-6.0-4.0","39","<p><img class= 'stimulus' src='images/baseline/pexels-photo-1840893.jpeg'></img></p>","null","","1551145306133","4","","","","","",""
"null","","html-keyboard-response","11","1995271","0.0-6.0-5.0","39","<p><img class= 'stimulus' src='images/baseline/04085v.jpg'></img></p>","null","","1551145306333","","","","","","",""
"null","","html-keyboard-response","12","1995471","0.0-6.0-6.0","39","<p><img class= 'stimulus' src='images/target/lighthouse-843522_640.jpg'></img></p>","null","","1551145306533","6","","","","","",""
"null","","html-keyboard-response","13","1995672","0.0-6.0-7.0","39","<p><img class= 'stimulus' src='images/baseline/building16.jpg'></img></p>","null","","1551145306733","","","","","","",""
"null","","html-keyboard-response","14","1995873","0.0-6.0-8.0","39","<p><img class= 'stimulus' src='images/baseline/05198v.jpg'></img></p>","null","","1551145306933","8","","","","","",""
"null","","html-keyboard-response","15","1996073","0.0-6.0-9.0","39","<p><img class= 'stimulus' src='images/baseline/landscape11.jpg'></img></p>","null","","1551145307134","","","","","","",""
"null","","html-keyboard-response","16","1996273","0.0-6.0-10.0","39","<p><img class= 'stimulus' src='images/baseline/sunny-landscape-with-dry-brush-and-mountain-background.jpg'></img></p>","null","","1551145307334","","","","","","",""
"null","","html-keyboard-response","17","1996474","0.0-6.0-11.0","39","<p><img class= 'stimulus' src='images/baseline/house6.jpg'></img></p>","null","","1551145307534","","","","","","",""
"null","","html-keyboard-response","18","1996673","0.0-6.0-12.0","39","<p><img class= 'stimulus' src='images/baseline/farmhouse3.jpg'></img></p>","null","","1551145307734","12","","","","","",""
"null","","html-keyboard-response","19","1996873","0.0-6.0-13.0","39","<p><img class= 'stimulus' src='images/baseline/03148v.jpg'></img></p>","null","","1551145307933","","","","","","",""
"null","","html-keyboard-response","20","1997072","0.0-6.0-14.0","39","<p><img class= 'stimulus' src='images/baseline/Camping 10.jpg'></img></p>","null","","1551145308134","14","","","","","",""
"null","","html-keyboard-response","21","1997273","0.0-6.0-15.0","39","<p><img class= 'stimulus' src='images/baseline/05242v.jpg'></img></p>","null","","1551145308334","","","","","","",""
"null","","html-keyboard-response","22","1997472","0.0-6.0-16.0","39","<p><img class= 'stimulus' src='images/baseline/Skijump 1.jpg'></img></p>","null","","1551145308535","","","","","","",""
"null","","html-keyboard-response","23","1997690","0.0-6.0-17.0","39","<p><img class= 'stimulus' src='images/baseline/pexels-photo-808465.jpeg'></img></p>","null","","1551145308735","","","","","","",""
"5945.200000002049","","html-button-response","24","2004640","0.0-6.0-18.0","39","<div class = ""response_question"">WAS THE IMAGE ROTATED...</div>","","5","","","4","2","bas","right","practice","false"
"13741.699999998556","","html-button-response","25","2018383","0.0-6.0-0.1","39","","","0","","","","","","","",""
"null","","html-keyboard-response","26","2018556","0.0-6.0-1.1","39","<p><img class= 'stimulus' src='images/baseline/02982v.jpg'></img></p>","null","","1551145329617","","","","","","",""
"null","","html-keyboard-response","27","2018756","0.0-6.0-2.1","39","<p><img class= 'stimulus' src='images/baseline/Lake 3.jpg'></img></p>","null","","1551145329817","","","","","","",""
"null","","html-keyboard-response","28","2018955","0.0-6.0-3.1","39","<p><img class= 'stimulus' src='images/baseline/farmhouse8.jpg'></img></p>","null","","1551145330017","","","","","","",""
"null","","html-keyboard-response","29","2019156","0.0-6.0-4.1","39","<p><img class= 'stimulus' src='images/baseline/04062v.jpg'></img></p>","null","","1551145330217","4","","","","","",""
"null","","html-keyboard-response","30","2019356","0.0-6.0-5.1","39","<p><img class= 'stimulus' src='images/baseline/04158v.jpg'></img></p>","null","","1551145330418","","","","","","",""
"null","","html-keyboard-response","31","2019556","0.0-6.0-6.1","39","<p><img class= 'stimulus' src='images/baseline/05292v.jpg'></img></p>","null","","1551145330620","6","","","","","",""
"null","","html-keyboard-response","32","2019756","0.0-6.0-7.1","39","<p><img class= 'stimulus' src='images/baseline/Road 1.jpg'></img></p>","null","","1551145330817","","","","","","",""
"null","","html-keyboard-response","33","2019956","0.0-6.0-8.1","39","<p><img class= 'stimulus' src='images/baseline/05303v.jpg'></img></p>","null","","1551145331018","8","","","","","",""
"null","","html-keyboard-response","34","2020156","0.0-6.0-9.1","39","<p><img class= 'stimulus' src='images/baseline/Nature 1.jpg'></img></p>","null","","1551145331218","","","","","","",""
"null","","html-keyboard-response","35","2020358","0.0-6.0-10.1","39","<p><img class= 'stimulus' src='images/baseline/pexels-photo-351264.jpeg'></img></p>","null","","1551145331417","","","","","","",""
"null","","html-keyboard-response","36","2020556","0.0-6.0-11.1","39","<p><img class= 'stimulus' src='images/baseline/03162v.jpg'></img></p>","null","","1551145331618","","","","","","",""
"null","","html-keyboard-response","37","2020757","0.0-6.0-12.1","39","<p><img class= 'stimulus' src='images/baseline/02945v.jpg'></img></p>","null","","1551145331819","12","","","","","",""
"null","","html-keyboard-response","38","2020957","0.0-6.0-13.1","39","<p><img class= 'stimulus' src='images/baseline/Lake 8.jpg'></img></p>","null","","1551145332018","","","","","","",""
"null","","html-keyboard-response","39","2021156","0.0-6.0-14.1","39","<p><img class= 'stimulus' src='images/target/dubai-1113262_640.jpg'></img></p>","null","","1551145332218","14","","","","","",""
"null","","html-keyboard-response","40","2021356","0.0-6.0-15.1","39","<p><img class= 'stimulus' src='images/baseline/lone-old-cottonwood-tree.jpg'></img></p>","null","","1551145332418","","","","","","",""
"null","","html-keyboard-response","41","2021556","0.0-6.0-16.1","39","<p><img class= 'stimulus' src='images/baseline/road 1(1).jpg'></img></p>","null","","1551145332617","","","","","","",""
"null","","html-keyboard-response","42","2021773","0.0-6.0-17.1","39","<p><img class= 'stimulus' src='images/baseline/4k-wallpaper-agriculture-clouds-842711.jpg'></img></p>","null","","1551145332817","","","","","","",""
"4542.499999996042","","html-button-response","43","2027320","0.0-6.0-18.1","39","<div class = ""response_question"">WAS THE IMAGE ROTATED...</div>","","3","","","6","8","bas","right","practice","true"
"6814.100000003353","","html-button-response","44","2034135","0.0-6.0-0.2","39","","","0","","","","","","","",""
"null","","html-keyboard-response","45","2034322","0.0-6.0-1.2","39","<p><img class= 'stimulus' src='images/baseline/cyrillic.jpg'></img></p>","null","","1551145345384","","","","","","",""
"null","","html-keyboard-response","46","2034523","0.0-6.0-2.2","39","<p><img class= 'stimulus' src='images/baseline/landscape38.jpg'></img></p>","null","","1551145345583","","","","","","",""
"null","","html-keyboard-response","47","2034722","0.0-6.0-3.2","39","<p><img class= 'stimulus' src='images/baseline/Waterfall 1.jpg'></img></p>","null","","1551145345784","","","","","","",""
"null","","html-keyboard-response","48","2034923","0.0-6.0-4.2","39","<p><img class= 'stimulus' src='images/baseline/landscape2.jpg'></img></p>","null","","1551145345983","4","","","","","",""
"null","","html-keyboard-response","49","2035122","0.0-6.0-5.2","39","<p><img class= 'stimulus' src='images/baseline/vintage-art-deco-storefront.jpg'></img></p>","null","","1551145346185","","","","","","",""
"null","","html-keyboard-response","50","2035323","0.0-6.0-6.2","39","<p><img class= 'stimulus' src='images/baseline/04229v.jpg'></img></p>","null","","1551145346384","6","","","","","",""
"null","","html-keyboard-response","51","2035523","0.0-6.0-7.2","39","<p><img class= 'stimulus' src='images/baseline/lake 1.jpg'></img></p>","null","","1551145346584","","","","","","",""
"null","","html-keyboard-response","52","2035723","0.0-6.0-8.2","39","<p><img class= 'stimulus left-rotate' src='images/target/tree-3563269_640.jpg'></img></p>","null","","1551145346784","8","","","","","",""
"null","","html-keyboard-response","53","2035924","0.0-6.0-9.2","39","<p><img class= 'stimulus' src='images/baseline/house2.jpg'></img></p>","null","","1551145346984","","","","","","",""
"null","","html-keyboard-response","54","2036122","0.0-6.0-10.2","39","<p><img class= 'stimulus' src='images/baseline/Street 2.jpg'></img></p>","null","","1551145347184","","","","","","",""
"null","","html-keyboard-response","55","2036323","0.0-6.0-11.2","39","<p><img class= 'stimulus' src='images/baseline/Lake 9.jpg'></img></p>","null","","1551145347384","","","","","","",""
"null","","html-keyboard-response","56","2036524","0.0-6.0-12.2","39","<p><img class= 'stimulus' src='images/baseline/pexels-photo-259280.jpeg'></img></p>","null","","1551145347584","12","","","","","",""
"null","","html-keyboard-response","57","2036722","0.0-6.0-13.2","39","<p><img class= 'stimulus' src='images/baseline/building_at_national_conservation.jpg'></img></p>","null","","1551145347783","","","","","","",""
"null","","html-keyboard-response","58","2036923","0.0-6.0-14.2","39","<p><img class= 'stimulus' src='images/baseline/Lake 5.jpg'></img></p>","null","","1551145347984","14","","","","","",""
"null","","html-keyboard-response","59","2037123","0.0-6.0-15.2","39","<p><img class= 'stimulus' src='images/baseline/house10.jpg'></img></p>","null","","1551145348184","","","","","","",""
"null","","html-keyboard-response","60","2037323","0.0-6.0-16.2","39","<p><img class= 'stimulus' src='images/baseline/05252v.jpg'></img></p>","null","","1551145348384","","","","","","",""
"null","","html-keyboard-response","61","2037539","0.0-6.0-17.2","39","<p><img class= 'stimulus' src='images/baseline/valley 2.jpg'></img></p>","null","","1551145348584","","","","","","",""
"681.5000000060536","","html-button-response","62","2039224","0.0-6.0-18.2","39","<div class = ""response_question"">WAS THE IMAGE ROTATED...</div>","","0","","","6","2","bas","left","practice","true"
"3462.2999999991152","","html-button-response","63","2042687","0.0-6.0-0.3","39","","","0","","","","","","","",""
"null","","html-keyboard-response","64","2042872","0.0-6.0-1.3","39","<p><img class= 'stimulus' src='images/baseline/pexels-photo-1261728.jpeg'></img></p>","null","","1551145353933","","","","","","",""
"null","","html-keyboard-response","65","2043072","0.0-6.0-2.3","39","<p><img class= 'stimulus' src='images/baseline/landscape23.jpg'></img></p>","null","","1551145354133","","","","","","",""
"null","","html-keyboard-response","66","2043272","0.0-6.0-3.3","39","<p><img class= 'stimulus' src='images/baseline/pexels-photo-1048039.jpeg'></img></p>","null","","1551145354333","","","","","","",""
"null","","html-keyboard-response","67","2043472","0.0-6.0-4.3","39","<p><img class= 'stimulus' src='images/baseline/05161v.jpg'></img></p>","null","","1551145354533","4","","","","","",""
"null","","html-keyboard-response","68","2043671","0.0-6.0-5.3","39","<p><img class= 'stimulus' src='images/baseline/04179v.jpg'></img></p>","null","","1551145354733","","","","","","",""
"null","","html-keyboard-response","69","2043871","0.0-6.0-6.3","39","<p><img class= 'stimulus' src='images/baseline/05279v.jpg'></img></p>","null","","1551145354933","6","","","","","",""
"null","","html-keyboard-response","70","2044072","0.0-6.0-7.3","39","<p><img class= 'stimulus' src='images/baseline/landscape13.jpg'></img></p>","null","","1551145355133","","","","","","",""
"null","","html-keyboard-response","71","2044272","0.0-6.0-8.3","39","<p><img class= 'stimulus' src='images/target/1937-single-tree-at-the-top-of-stone-mountain-pv.jpg'></img></p>","null","","1551145355332","8","","","","","",""
"null","","html-keyboard-response","72","2044472","0.0-6.0-9.3","39","<p><img class= 'stimulus' src='images/baseline/Skyscraper 1.jpg'></img></p>","null","","1551145355533","","","","","","",""
"null","","html-keyboard-response","73","2044672","0.0-6.0-10.3","39","<p><img class= 'stimulus' src='images/baseline/scenic-mountain-landscape.jpg'></img></p>","null","","1551145355733","","","","","","",""
"null","","html-keyboard-response","74","2044872","0.0-6.0-11.3","39","<p><img class= 'stimulus' src='images/baseline/building2.jpg'></img></p>","null","","1551145355935","","","","","","",""
"null","","html-keyboard-response","75","2045073","0.0-6.0-12.3","39","<p><img class= 'stimulus' src='images/baseline/04117v.jpg'></img></p>","null","","1551145356134","12","","","","","",""
"null","","html-keyboard-response","76","2045273","0.0-6.0-13.3","39","<p><img class= 'stimulus' src='images/baseline/03114v.jpg'></img></p>","null","","1551145356334","","","","","","",""
"null","","html-keyboard-response","77","2045473","0.0-6.0-14.3","39","<p><img class= 'stimulus' src='images/baseline/02988v.jpg'></img></p>","null","","1551145356533","14","","","","","",""
"null","","html-keyboard-response","78","2045672","0.0-6.0-15.3","39","<p><img class= 'stimulus' src='images/baseline/building4.jpg'></img></p>","null","","1551145356735","","","","","","",""
"null","","html-keyboard-response","79","2045874","0.0-6.0-16.3","39","<p><img class= 'stimulus' src='images/baseline/pexels-photo-414491.jpeg'></img></p>","null","","1551145356935","","","","","","",""
"null","","html-keyboard-response","80","2046089","0.0-6.0-17.3","39","<p><img class= 'stimulus' src='images/baseline/lake3.jpg'></img></p>","null","","1551145357134","","","","","","",""
"958.7999999930616","","html-button-response","81","2048064","0.0-6.0-18.3","39","<div class = ""response_question"">WAS THE IMAGE ROTATED...</div>","","3","","","6","2","bas","right","practice","true"
"4390.299999999348","","html-button-response","82","2052455","0.0-6.0-0.4","39","","","0","","","","","","","",""
"null","","html-keyboard-response","83","2052590","0.0-6.0-1.4","39","<p><img class= 'stimulus' src='images/baseline/grand-teton-mountains.jpg'></img></p>","null","","1551145363701","","","","","","",""
"null","","html-keyboard-response","84","2052738","0.0-6.0-2.4","39","<p><img class= 'stimulus' src='images/baseline/03056v.jpg'></img></p>","null","","1551145363851","","","","","","",""
"null","","html-keyboard-response","85","2052889","0.0-6.0-3.4","39","<p><img class= 'stimulus' src='images/baseline/04300v.jpg'></img></p>","null","","1551145364002","","","","","","",""
"null","","html-keyboard-response","86","2053039","0.0-6.0-4.4","39","<p><img class= 'stimulus' src='images/baseline/red-rocks-park.jpg'></img></p>","null","","1551145364150","4","","","","","",""
"null","","html-keyboard-response","87","2053189","0.0-6.0-5.4","39","<p><img class= 'stimulus' src='images/baseline/03066v.jpg'></img></p>","null","","1551145364300","","","","","","",""
"null","","html-keyboard-response","88","2053339","0.0-6.0-6.4","39","<p><img class= 'stimulus' src='images/baseline/farmhouse1.jpg'></img></p>","null","","1551145364450","6","","","","","",""
"null","","html-keyboard-response","89","2053489","0.0-6.0-7.4","39","<p><img class= 'stimulus' src='images/baseline/landscape3.jpg'></img></p>","null","","1551145364600","","","","","","",""
"null","","html-keyboard-response","90","2053639","0.0-6.0-8.4","39","<p><img class= 'stimulus' src='images/baseline/02960v.jpg'></img></p>","null","","1551145364751","8","","","","","",""
"null","","html-keyboard-response","91","2053789","0.0-6.0-9.4","39","<p><img class= 'stimulus' src='images/baseline/05264v.jpg'></img></p>","null","","1551145364900","","","","","","",""
"null","","html-keyboard-response","92","2053939","0.0-6.0-10.4","39","<p><img class= 'stimulus' src='images/baseline/landscape29.jpg'></img></p>","null","","1551145365050","","","","","","",""
"null","","html-keyboard-response","93","2054089","0.0-6.0-11.4","39","<p><img class= 'stimulus' src='images/baseline/landscape17.jpg'></img></p>","null","","1551145365200","","","","","","",""
"null","","html-keyboard-response","94","2054252","0.0-6.0-12.4","39","<p><img class= 'stimulus' src='images/baseline/Beach 3.jpg'></img></p>","null","","1551145365350","12","","","","","",""
"null","","html-keyboard-response","95","2054401","0.0-6.0-13.4","39","<p><img class= 'stimulus' src='images/baseline/Street 1.jpg'></img></p>","null","","1551145365514","","","","","","",""
"null","","html-keyboard-response","96","2054552","0.0-6.0-14.4","39","<p><img class= 'stimulus left-rotate' src='images/target/oak-456524_640.jpg'></img></p>","null","","1551145365664","14","","","","","",""
"null","","html-keyboard-response","97","2054702","0.0-6.0-15.4","39","<p><img class= 'stimulus' src='images/baseline/Paysage_karabagh_02.jpg'></img></p>","null","","1551145365813","","","","","","",""
"null","","html-keyboard-response","98","2054852","0.0-6.0-16.4","39","<p><img class= 'stimulus' src='images/baseline/04193v.jpg'></img></p>","null","","1551145365964","","","","","","",""
"null","","html-keyboard-response","99","2055018","0.0-6.0-17.4","39","<p><img class= 'stimulus' src='images/baseline/04014v.jpg'></img></p>","null","","1551145366113","","","","","","",""
"702.8999999894295","","html-button-response","100","2056726","0.0-6.0-18.4","39","<div class = ""response_question"">WAS THE IMAGE ROTATED...</div>","","0","","","6","8","bas","left","practice","true"
"2197.000000000233","","html-button-response","101","2058925","0.0-6.0-0.5","39","","","0","","","","","","","",""
"null","","html-keyboard-response","102","2059053","0.0-6.0-1.5","39","<p><img class= 'stimulus' src='images/baseline/02977v.jpg'></img></p>","null","","1551145370163","","","","","","",""
"null","","html-keyboard-response","103","2059202","0.0-6.0-2.5","39","<p><img class= 'stimulus' src='images/baseline/Lake 4.jpg'></img></p>","null","","1551145370314","","","","","","",""
"null","","html-keyboard-response","104","2059352","0.0-6.0-3.5","39","<p><img class= 'stimulus' src='images/baseline/hiking-trail.jpg'></img></p>","null","","1551145370464","","","","","","",""
"null","","html-keyboard-response","105","2059502","0.0-6.0-4.5","39","<p><img class= 'stimulus' src='images/baseline/field 2.jpg'></img></p>","null","","1551145370613","4","","","","","",""
"null","","html-keyboard-response","106","2059652","0.0-6.0-5.5","39","<p><img class= 'stimulus' src='images/baseline/empire-state-building.jpg'></img></p>","null","","1551145370764","","","","","","",""
"null","","html-keyboard-response","107","2059802","0.0-6.0-6.5","39","<p><img class= 'stimulus' src='images/baseline/landscape1.jpg'></img></p>","null","","1551145370913","6","","","","","",""
"null","","html-keyboard-response","108","2059952","0.0-6.0-7.5","39","<p><img class= 'stimulus' src='images/baseline/03112v.jpg'></img></p>","null","","1551145371064","","","","","","",""
"null","","html-keyboard-response","109","2060102","0.0-6.0-8.5","39","<p><img class= 'stimulus' src='images/baseline/hills 4.jpg'></img></p>","null","","1551145371213","8","","","","","",""
"null","","html-keyboard-response","110","2060253","0.0-6.0-9.5","39","<p><img class= 'stimulus' src='images/baseline/agriculture-bright-clouds-440731.jpg'></img></p>","null","","1551145371364","","","","","","",""
"null","","html-keyboard-response","111","2060402","0.0-6.0-10.5","39","<p><img class= 'stimulus' src='images/baseline/04284v.jpg'></img></p>","null","","1551145371514","","","","","","",""
"null","","html-keyboard-response","112","2060552","0.0-6.0-11.5","39","<p><img class= 'stimulus' src='images/baseline/landscape4.jpg'></img></p>","null","","1551145371664","","","","","","",""
"null","","html-keyboard-response","113","2060702","0.0-6.0-12.5","39","<p><img class= 'stimulus' src='images/target/landscape1.jpg'></img></p>","null","","1551145371814","12","","","","","",""
"null","","html-keyboard-response","114","2060852","0.0-6.0-13.5","39","<p><img class= 'stimulus' src='images/baseline/snowy tree.jpg'></img></p>","null","","1551145371964","","","","","","",""
"null","","html-keyboard-response","115","2061003","0.0-6.0-14.5","39","<p><img class= 'stimulus' src='images/baseline/04040v.jpg'></img></p>","null","","1551145372112","14","","","","","",""
"null","","html-keyboard-response","116","2061153","0.0-6.0-15.5","39","<p><img class= 'stimulus' src='images/baseline/landscape31.jpg'></img></p>","null","","1551145372263","","","","","","",""
"null","","html-keyboard-response","117","2061301","0.0-6.0-16.5","39","<p><img class= 'stimulus' src='images/baseline/landscape6.jpg'></img></p>","null","","1551145372413","","","","","","",""
"null","","html-keyboard-response","118","2061468","0.0-6.0-17.5","39","<p><img class= 'stimulus' src='images/baseline/pexels-photo-427676.jpeg'></img></p>","null","","1551145372564","","","","","","",""
"685.7000000015832","","html-button-response","119","2063157","0.0-6.0-18.5","39","<div class = ""response_question"">WAS THE IMAGE ROTATED...</div>","","3","","","4","8","bas","right","practice","true"
"894.2999999998137","","html-button-response","120","2064053","0.0-6.0-0.6","39","","","0","","","","","","","",""
"null","","html-keyboard-response","121","2064185","0.0-6.0-1.6","39","<p><img class= 'stimulus' src='images/baseline/farmhouse6.jpg'></img></p>","null","","1551145375296","","","","","","",""
"null","","html-keyboard-response","122","2064335","0.0-6.0-2.6","39","<p><img class= 'stimulus' src='images/baseline/farmhouse11.jpg'></img></p>","null","","1551145375447","","","","","","",""
"null","","html-keyboard-response","123","2064486","0.0-6.0-3.6","39","<p><img class= 'stimulus' src='images/baseline/Cold 7.jpg'></img></p>","null","","1551145375597","","","","","","",""
"null","","html-keyboard-response","124","2064635","0.0-6.0-4.6","39","<p><img class= 'stimulus' src='images/baseline/03220v.jpg'></img></p>","null","","1551145375747","4","","","","","",""
"null","","html-keyboard-response","125","2064786","0.0-6.0-5.6","39","<p><img class= 'stimulus' src='images/baseline/pexels-photo-541101.jpeg'></img></p>","null","","1551145375897","","","","","","",""
"null","","html-keyboard-response","126","2064936","0.0-6.0-6.6","39","<p><img class= 'stimulus' src='images/baseline/Beach 8.jpg'></img></p>","null","","1551145376046","6","","","","","",""
"null","","html-keyboard-response","127","2065085","0.0-6.0-7.6","39","<p><img class= 'stimulus' src='images/baseline/04010v.jpg'></img></p>","null","","1551145376196","","","","","","",""
"null","","html-keyboard-response","128","2065235","0.0-6.0-8.6","39","<p><img class= 'stimulus' src='images/baseline/building8.jpg'></img></p>","null","","1551145376347","8","","","","","",""
"null","","html-keyboard-response","129","2065386","0.0-6.0-9.6","39","<p><img class= 'stimulus' src='images/baseline/pexels-photo-459203.jpeg'></img></p>","null","","1551145376497","","","","","","",""
"null","","html-keyboard-response","130","2065535","0.0-6.0-10.6","39","<p><img class= 'stimulus' src='images/baseline/building5.jpg'></img></p>","null","","1551145376646","","","","","","",""
"null","","html-keyboard-response","131","2065685","0.0-6.0-11.6","39","<p><img class= 'stimulus' src='images/baseline/05145v.jpg'></img></p>","null","","1551145376798","","","","","","",""
"null","","html-keyboard-response","132","2065835","0.0-6.0-12.6","39","<p><img class= 'stimulus left-rotate' src='images/target/chicago-673558_640.jpg'></img></p>","null","","1551145376948","12","","","","","",""
"null","","html-keyboard-response","133","2065986","0.0-6.0-13.6","39","<p><img class= 'stimulus' src='images/baseline/05280v.jpg'></img></p>","null","","1551145377096","","","","","","",""
"null","","html-keyboard-response","134","2066135","0.0-6.0-14.6","39","<p><img class= 'stimulus' src='images/baseline/field 4.jpg'></img></p>","null","","1551145377247","14","","","","","",""
"null","","html-keyboard-response","135","2066285","0.0-6.0-15.6","39","<p><img class= 'stimulus' src='images/baseline/town-square-in-wroclaw-1539098440MZy.jpg'></img></p>","null","","1551145377397","","","","","","",""
"null","","html-keyboard-response","136","2066435","0.0-6.0-16.6","39","<p><img class= 'stimulus' src='images/baseline/03075v.jpg'></img></p>","null","","1551145377547","","","","","","",""
"null","","html-keyboard-response","137","2066602","0.0-6.0-17.6","39","<p><img class= 'stimulus' src='images/baseline/church-silhouette-8712964986014Kb.jpg'></img></p>","null","","1551145377698","","","","","","",""
"976.5999999945052","","html-button-response","138","2068581","0.0-6.0-18.6","39","<div class = ""response_question"">WAS THE IMAGE ROTATED...</div>","","0","","","4","8","bas","left","practice","true"
"606.3999999896623","","html-button-response","139","2069189","0.0-6.0-0.7","39","","","0","","","","","","","",""
"null","","html-keyboard-response","140","2069336","0.0-6.0-1.7","39","<p><img class= 'stimulus' src='images/baseline/city-silhouette-at-sunset-871291580819Esw.jpg'></img></p>","null","","1551145380447","","","","","","",""
"null","","html-keyboard-response","141","2069485","0.0-6.0-2.7","39","<p><img class= 'stimulus' src='images/baseline/Street 5.jpg'></img></p>","null","","1551145380596","","","","","","",""
"null","","html-keyboard-response","142","2069635","0.0-6.0-3.7","39","<p><img class= 'stimulus' src='images/baseline/house11.jpg'></img></p>","null","","1551145380747","","","","","","",""
"null","","html-keyboard-response","143","2069785","0.0-6.0-4.7","39","<p><img class= 'stimulus' src='images/baseline/04064v.jpg'></img></p>","null","","1551145380897","4","","","","","",""
"null","","html-keyboard-response","144","2069936","0.0-6.0-5.7","39","<p><img class= 'stimulus' src='images/baseline/landscape35.jpg'></img></p>","null","","1551145381048","","","","","","",""
"null","","html-keyboard-response","145","2070084","0.0-6.0-6.7","39","<p><img class= 'stimulus left-rotate' src='images/target/tree_2.jpg'></img></p>","null","","1551145381197","6","","","","","",""
"null","","html-keyboard-response","146","2070235","0.0-6.0-7.7","39","<p><img class= 'stimulus' src='images/baseline/autumn-in-red-rocks-park.jpg'></img></p>","null","","1551145381347","","","","","","",""
"null","","html-keyboard-response","147","2070385","0.0-6.0-8.7","39","<p><img class= 'stimulus' src='images/baseline/autumn-landscape-with-lake-fall-trees-mountains.jpg'></img></p>","null","","1551145381497","8","","","","","",""
"null","","html-keyboard-response","148","2070536","0.0-6.0-9.7","39","<p><img class= 'stimulus' src='images/baseline/05158v.jpg'></img></p>","null","","1551145381647","","","","","","",""
"null","","html-keyboard-response","149","2070685","0.0-6.0-10.7","39","<p><img class= 'stimulus' src='images/baseline/building12.jpg'></img></p>","null","","1551145381796","","","","","","",""
"null","","html-keyboard-response","150","2070836","0.0-6.0-11.7","39","<p><img class= 'stimulus' src='images/baseline/bird-flying-at-sunset.jpg'></img></p>","null","","1551145381946","","","","","","",""
"null","","html-keyboard-response","151","2070985","0.0-6.0-12.7","39","<p><img class= 'stimulus' src='images/baseline/Paysage_enneige_02.jpg'></img></p>","null","","1551145382098","12","","","","","",""
"null","","html-keyboard-response","152","2071134","0.0-6.0-13.7","39","<p><img class= 'stimulus' src='images/baseline/03098v.jpg'></img></p>","null","","1551145382247","","","","","","",""
"null","","html-keyboard-response","153","2071286","0.0-6.0-14.7","39","<p><img class= 'stimulus' src='images/baseline/agriculture-cereal-clouds-175389.jpg'></img></p>","null","","1551145382396","14","","","","","",""
"null","","html-keyboard-response","154","2071436","0.0-6.0-15.7","39","<p><img class= 'stimulus' src='images/baseline/04222v.jpg'></img></p>","null","","1551145382547","","","","","","",""
"null","","html-keyboard-response","155","2071585","0.0-6.0-16.7","39","<p><img class= 'stimulus' src='images/baseline/Desert_View_Indian_Wells.jpg'></img></p>","null","","1551145382697","","","","","","",""
"null","","html-keyboard-response","156","2071753","0.0-6.0-17.7","39","<p><img class= 'stimulus' src='images/baseline/pexels-photo-1054289.jpeg'></img></p>","null","","1551145382846","","","","","","",""
"537.2999999960884","","html-button-response","157","2073294","0.0-6.0-18.7","39","<div class = ""response_question"">WAS THE IMAGE ROTATED...</div>","","0","","","4","2","bas","left","practice","true"
"853.7999999972526","","html-button-response","158","2074149","0.0-6.0-0.8","39","","","0","","","","","","","",""
"null","","html-keyboard-response","159","2074237","0.0-6.0-1.8","39","<p><img class= 'stimulus' src='images/baseline/lookout_tower.jpg'></img></p>","null","","1551145385398","","","","","","",""
"null","","html-keyboard-response","160","2074336","0.0-6.0-2.8","39","<p><img class= 'stimulus' src='images/baseline/Grass 6.jpg'></img></p>","null","","1551145385497","","","","","","",""
"null","","html-keyboard-response","161","2074436","0.0-6.0-3.8","39","<p><img class= 'stimulus' src='images/baseline/05255v.jpg'></img></p>","null","","1551145385598","","","","","","",""
"null","","html-keyboard-response","162","2074536","0.0-6.0-4.8","39","<p><img class= 'stimulus' src='images/baseline/pexels-photo-1287089.jpeg'></img></p>","null","","1551145385698","4","","","","","",""
"null","","html-keyboard-response","163","2074635","0.0-6.0-5.8","39","<p><img class= 'stimulus' src='images/baseline/meadow-with-mountain-in-background.jpg'></img></p>","null","","1551145385797","","","","","","",""
"null","","html-keyboard-response","164","2074736","0.0-6.0-6.8","39","<p><img class= 'stimulus' src='images/target/tree-740901_1280.jpg'></img></p>","null","","1551145385897","6","","","","","",""
"null","","html-keyboard-response","165","2074836","0.0-6.0-7.8","39","<p><img class= 'stimulus' src='images/baseline/horse_statue.jpg'></img></p>","null","","1551145385998","","","","","","",""
"null","","html-keyboard-response","166","2074936","0.0-6.0-8.8","39","<p><img class= 'stimulus' src='images/baseline/farmhouse4.jpg'></img></p>","null","","1551145386099","8","","","","","",""
"null","","html-keyboard-response","167","2075035","0.0-6.0-9.8","39","<p><img class= 'stimulus' src='images/baseline/Dirt 2.jpg'></img></p>","null","","1551145386197","","","","","","",""
"null","","html-keyboard-response","168","2075135","0.0-6.0-10.8","39","<p><img class= 'stimulus' src='images/baseline/03201v.jpg'></img></p>","null","","1551145386297","","","","","","",""
"null","","html-keyboard-response","169","2075235","0.0-6.0-11.8","39","<p><img class= 'stimulus' src='images/baseline/Sailing 3.jpg'></img></p>","null","","1551145386396","","","","","","",""
"null","","html-keyboard-response","170","2075336","0.0-6.0-12.8","39","<p><img class= 'stimulus' src='images/baseline/landscape37.jpg'></img></p>","null","","1551145386497","12","","","","","",""
"null","","html-keyboard-response","171","2075435","0.0-6.0-13.8","39","<p><img class= 'stimulus' src='images/baseline/04060v.jpg'></img></p>","null","","1551145386598","","","","","","",""
"null","","html-keyboard-response","172","2075536","0.0-6.0-14.8","39","<p><img class= 'stimulus' src='images/baseline/architecture-956332_1280.jpg'></img></p>","null","","1551145386697","14","","","","","",""
"null","","html-keyboard-response","173","2075635","0.0-6.0-15.8","39","<p><img class= 'stimulus' src='images/baseline/03180v.jpg'></img></p>","null","","1551145386796","","","","","","",""
"null","","html-keyboard-response","174","2075735","0.0-6.0-16.8","39","<p><img class= 'stimulus' src='images/baseline/05131v.jpg'></img></p>","null","","1551145386897","","","","","","",""
"null","","html-keyboard-response","175","2075852","0.0-6.0-17.8","39","<p><img class= 'stimulus' src='images/baseline/Sunset 3.jpg'></img></p>","null","","1551145386997","","","","","","",""
"942.3999999999069","","html-button-response","176","2077797","0.0-6.0-18.8","39","<div class = ""response_question"">WAS THE IMAGE ROTATED...</div>","","3","","","4","2","bas","right","practice","true"
"838.200000012992","","html-button-response","177","2078637","0.0-6.0-0.9","39","","","0","","","","","","","",""
"null","","html-keyboard-response","178","2078718","0.0-6.0-1.9","39","<p><img class= 'stimulus' src='images/baseline/Beach 2.jpg'></img></p>","null","","1551145389882","","","","","","",""
"null","","html-keyboard-response","179","2078820","0.0-6.0-2.9","39","<p><img class= 'stimulus' src='images/baseline/Lake 7.jpg'></img></p>","null","","1551145389980","","","","","","",""
"null","","html-keyboard-response","180","2078918","0.0-6.0-3.9","39","<p><img class= 'stimulus' src='images/baseline/Street 3.jpg'></img></p>","null","","1551145390081","","","","","","",""
"null","","html-keyboard-response","181","2079018","0.0-6.0-4.9","39","<p><img class= 'stimulus' src='images/baseline/Skyscraper 2.jpg'></img></p>","null","","1551145390181","4","","","","","",""
"null","","html-keyboard-response","182","2079119","0.0-6.0-5.9","39","<p><img class= 'stimulus' src='images/baseline/Lake 15.jpg'></img></p>","null","","1551145390280","","","","","","",""
"null","","html-keyboard-response","183","2079219","0.0-6.0-6.9","39","<p><img class= 'stimulus' src='images/baseline/field 3.jpg'></img></p>","null","","1551145390380","6","","","","","",""
"null","","html-keyboard-response","184","2079319","0.0-6.0-7.9","39","<p><img class= 'stimulus' src='images/baseline/chicago-skyline-at-night-1476869511p8U.jpg'></img></p>","null","","1551145390480","","","","","","",""
"null","","html-keyboard-response","185","2079419","0.0-6.0-8.9","39","<p><img class= 'stimulus' src='images/baseline/trees 23.jpg'></img></p>","null","","1551145390580","8","","","","","",""
"null","","html-keyboard-response","186","2079520","0.0-6.0-9.9","39","<p><img class= 'stimulus' src='images/baseline/pexels-photo-221125.jpeg'></img></p>","null","","1551145390680","","","","","","",""
"null","","html-keyboard-response","187","2079619","0.0-6.0-10.9","39","<p><img class= 'stimulus' src='images/baseline/building6.jpg'></img></p>","null","","1551145390781","","","","","","",""
"null","","html-keyboard-response","188","2079718","0.0-6.0-11.9","39","<p><img class= 'stimulus' src='images/baseline/kokkari-1523011968Xfr.jpg'></img></p>","null","","1551145390881","","","","","","",""
"null","","html-keyboard-response","189","2079818","0.0-6.0-12.9","39","<p><img class= 'stimulus left-rotate' src='images/target/building5.jpg'></img></p>","null","","1551145390981","12","","","","","",""
"null","","html-keyboard-response","190","2079919","0.0-6.0-13.9","39","<p><img class= 'stimulus' src='images/baseline/road.jpg'></img></p>","null","","1551145391081","","","","","","",""
"null","","html-keyboard-response","191","2080018","0.0-6.0-14.9","39","<p><img class= 'stimulus' src='images/baseline/Path 1.jpg'></img></p>","null","","1551145391180","14","","","","","",""
"null","","html-keyboard-response","192","2080119","0.0-6.0-15.9","39","<p><img class= 'stimulus' src='images/baseline/farmhouse9.jpg'></img></p>","null","","1551145391281","","","","","","",""
"null","","html-keyboard-response","193","2080218","0.0-6.0-16.9","39","<p><img class= 'stimulus' src='images/baseline/99_-_Machu_Picchu_-_Juin_2009.edit3.jpg'></img></p>","null","","1551145391380","","","","","","",""
"null","","html-keyboard-response","194","2080335","0.0-6.0-17.9","39","<p><img class= 'stimulus' src='images/baseline/pexels-photo-59321.jpeg'></img></p>","null","","1551145391481","","","","","","",""
"554.6000000033528","","html-button-response","195","2081893","0.0-6.0-18.9","39","<div class = ""response_question"">WAS THE IMAGE ROTATED...</div>","","0","","","4","8","bas","left","practice","true"
"1262.600000001723","","html-button-response","196","2083157","0.0-6.0-0.10","39","","","0","","","","","","","",""
"null","","html-keyboard-response","197","2083236","0.0-6.0-1.10","39","<p><img class= 'stimulus' src='images/baseline/house8.jpg'></img></p>","null","","1551145394397","","","","","","",""
"null","","html-keyboard-response","198","2083335","0.0-6.0-2.10","39","<p><img class= 'stimulus' src='images/baseline/__08_-_ITALY_-_Forli_under_snow_-_winter_landscape_of_city_(christmas).jpg'></img></p>","null","","1551145394498","","","","","","",""
"null","","html-keyboard-response","199","2083435","0.0-6.0-3.10","39","<p><img class= 'stimulus' src='images/baseline/seoul-410266_1920.jpg'></img></p>","null","","1551145394597","","","","","","",""
"null","","html-keyboard-response","200","2083536","0.0-6.0-4.10","39","<p><img class= 'stimulus' src='images/baseline/Dock 1.jpg'></img></p>","null","","1551145394697","4","","","","","",""
"null","","html-keyboard-response","201","2083635","0.0-6.0-5.10","39","<p><img class= 'stimulus' src='images/baseline/house1.jpg'></img></p>","null","","1551145394798","","","","","","",""
"null","","html-keyboard-response","202","2083737","0.0-6.0-6.10","39","<p><img class= 'stimulus left-rotate' src='images/target/italy-building-1206128_1280.jpg'></img></p>","null","","1551145394898","6","","","","","",""
"null","","html-keyboard-response","203","2083835","0.0-6.0-7.10","39","<p><img class= 'stimulus' src='images/baseline/hills 3.jpg'></img></p>","null","","1551145394998","","","","","","",""
"null","","html-keyboard-response","204","2083936","0.0-6.0-8.10","39","<p><img class= 'stimulus' src='images/baseline/Linden,_paysage.jpg'></img></p>","null","","1551145395099","8","","","","","",""
"null","","html-keyboard-response","205","2084035","0.0-6.0-9.10","39","<p><img class= 'stimulus' src='images/baseline/05167v.jpg'></img></p>","null","","1551145395198","","","","","","",""
"null","","html-keyboard-response","206","2084135","0.0-6.0-10.10","39","<p><img class= 'stimulus' src='images/baseline/Bridge 1.jpg'></img></p>","null","","1551145395297","","","","","","",""
"null","","html-keyboard-response","207","2084235","0.0-6.0-11.10","39","<p><img class= 'stimulus' src='images/baseline/geese-flying-over-lake-at-dusk.jpg'></img></p>","null","","1551145395396","","","","","","",""
"null","","html-keyboard-response","208","2084336","0.0-6.0-12.10","39","<p><img class= 'stimulus' src='images/baseline/agriculture-countryside-crop-259280.jpg'></img></p>","null","","1551145395496","12","","","","","",""
"null","","html-keyboard-response","209","2084435","0.0-6.0-13.10","39","<p><img class= 'stimulus' src='images/baseline/pexels-photo-750108.jpeg'></img></p>","null","","1551145395596","","","","","","",""
"null","","html-keyboard-response","210","2084535","0.0-6.0-14.10","39","<p><img class= 'stimulus' src='images/baseline/05139v.jpg'></img></p>","null","","1551145395696","14","","","","","",""
"null","","html-keyboard-response","211","2084635","0.0-6.0-15.10","39","<p><img class= 'stimulus' src='images/baseline/farmhouse7.jpg'></img></p>","null","","1551145395796","","","","","","",""
"null","","html-keyboard-response","212","2084736","0.0-6.0-16.10","39","<p><img class= 'stimulus' src='images/baseline/landscape16.jpg'></img></p>","null","","1551145395897","","","","","","",""
"null","","html-keyboard-response","213","2084852","0.0-6.0-17.10","39","<p><img class= 'stimulus' src='images/baseline/building9.jpg'></img></p>","null","","1551145395996","","","","","","",""
"566.8999999908265","","html-button-response","214","2086422","0.0-6.0-18.10","39","<div class = ""response_question"">WAS THE IMAGE ROTATED...</div>","","0","","","4","2","bas","left","practice","true"
"846.6000000045169","","html-button-response","215","2087269","0.0-6.0-0.11","39","","","0","","","","","","","",""
"null","","html-keyboard-response","216","2087352","0.0-6.0-1.11","39","<p><img class= 'stimulus' src='images/baseline/Sunset 5.jpg'></img></p>","null","","1551145398515","","","","","","",""
"null","","html-keyboard-response","217","2087452","0.0-6.0-2.11","39","<p><img class= 'stimulus' src='images/baseline/03045v.jpg'></img></p>","null","","1551145398614","","","","","","",""
"null","","html-keyboard-response","218","2087553","0.0-6.0-3.11","39","<p><img class= 'stimulus' src='images/baseline/landscape12.jpg'></img></p>","null","","1551145398714","","","","","","",""
"null","","html-keyboard-response","219","2087652","0.0-6.0-4.11","39","<p><img class= 'stimulus' src='images/baseline/05240v.jpg'></img></p>","null","","1551145398814","4","","","","","",""
"null","","html-keyboard-response","220","2087753","0.0-6.0-5.11","39","<p><img class= 'stimulus' src='images/baseline/landscape36.jpg'></img></p>","null","","1551145398913","","","","","","",""
"null","","html-keyboard-response","221","2087853","0.0-6.0-6.11","39","<p><img class= 'stimulus' src='images/baseline/pexels-photo-534164.jpeg'></img></p>","null","","1551145399014","6","","","","","",""
"null","","html-keyboard-response","222","2087953","0.0-6.0-7.11","39","<p><img class= 'stimulus' src='images/baseline/Aletschgletscher-Eggishorn.jpg'></img></p>","null","","1551145399113","","","","","","",""
"null","","html-keyboard-response","223","2088052","0.0-6.0-8.11","39","<p><img class= 'stimulus' src='images/baseline/tennis-court-net-buried-in-snow.jpg'></img></p>","null","","1551145399213","8","","","","","",""
"null","","html-keyboard-response","224","2088154","0.0-6.0-9.11","39","<p><img class= 'stimulus' src='images/baseline/pexels-photo-568236.jpeg'></img></p>","null","","1551145399313","","","","","","",""
"null","","html-keyboard-response","225","2088253","0.0-6.0-10.11","39","<p><img class= 'stimulus' src='images/baseline/pexels-photo-440731.jpeg'></img></p>","null","","1551145399414","","","","","","",""
"null","","html-keyboard-response","226","2088352","0.0-6.0-11.11","39","<p><img class= 'stimulus' src='images/baseline/04021v.jpg'></img></p>","null","","1551145399514","","","","","","",""
"null","","html-keyboard-response","227","2088452","0.0-6.0-12.11","39","<p><img class= 'stimulus' src='images/baseline/river 1.jpg'></img></p>","null","","1551145399613","12","","","","","",""
"null","","html-keyboard-response","228","2088552","0.0-6.0-13.11","39","<p><img class= 'stimulus' src='images/baseline/03041v.jpg'></img></p>","null","","1551145399715","","","","","","",""
"null","","html-keyboard-response","229","2088652","0.0-6.0-14.11","39","<p><img class= 'stimulus' src='images/target/tree_1.jpg'></img></p>","null","","1551145399813","14","","","","","",""
"null","","html-keyboard-response","230","2088752","0.0-6.0-15.11","39","<p><img class= 'stimulus' src='images/baseline/foreclosed_home.jpg'></img></p>","null","","1551145399915","","","","","","",""
"null","","html-keyboard-response","231","2088852","0.0-6.0-16.11","39","<p><img class= 'stimulus' src='images/baseline/Kocherbaumwald-01.jpg'></img></p>","null","","1551145400014","","","","","","",""
"null","","html-keyboard-response","232","2088969","0.0-6.0-17.11","39","<p><img class= 'stimulus' src='images/baseline/architecture-1314416_1920.jpg'></img></p>","null","","1551145400114","","","","","","",""
"529.5999999942724","","html-button-response","233","2090502","0.0-6.0-18.11","39","<div class = ""response_question"">WAS THE IMAGE ROTATED...</div>","","3","","","6","8","bas","right","practice","true"
"822.0000000002328","","html-button-response","234","2091324","0.0-6.0-0.12","39","","","0","","","","","","","",""
"null","","html-keyboard-response","235","2091419","0.0-6.0-1.12","39","<p><img class= 'stimulus' src='images/baseline/sunset-over-the-lake.jpg'></img></p>","null","","1551145402580","","","","","","",""
"null","","html-keyboard-response","236","2091519","0.0-6.0-2.12","39","<p><img class= 'stimulus' src='images/baseline/Street 4.jpg'></img></p>","null","","1551145402681","","","","","","",""
"null","","html-keyboard-response","237","2091620","0.0-6.0-3.12","39","<p><img class= 'stimulus' src='images/baseline/house7.jpg'></img></p>","null","","1551145402780","","","","","","",""
"null","","html-keyboard-response","238","2091719","0.0-6.0-4.12","39","<p><img class= 'stimulus' src='images/baseline/house3.jpg'></img></p>","null","","1551145402881","4","","","","","",""
"null","","html-keyboard-response","239","2091818","0.0-6.0-5.12","39","<p><img class= 'stimulus' src='images/baseline/Freudenberg_sg_Switzerland.jpg'></img></p>","null","","1551145402980","","","","","","",""
"null","","html-keyboard-response","240","2091920","0.0-6.0-6.12","39","<p><img class= 'stimulus' src='images/baseline/Peyto_Lake-Banff_NP-Canada.jpg'></img></p>","null","","1551145403080","6","","","","","",""
"null","","html-keyboard-response","241","2092019","0.0-6.0-7.12","39","<p><img class= 'stimulus' src='images/baseline/05186v.jpg'></img></p>","null","","1551145403180","","","","","","",""
"null","","html-keyboard-response","242","2092118","0.0-6.0-8.12","39","<p><img class= 'stimulus' src='images/baseline/03212v.jpg'></img></p>","null","","1551145403282","8","","","","","",""
"null","","html-keyboard-response","243","2092219","0.0-6.0-9.12","39","<p><img class= 'stimulus' src='images/baseline/sun-through-winter-tree-branches1.jpg'></img></p>","null","","1551145403380","","","","","","",""
"null","","html-keyboard-response","244","2092319","0.0-6.0-10.12","39","<p><img class= 'stimulus' src='images/baseline/cranes 1.jpg'></img></p>","null","","1551145403480","","","","","","",""
"null","","html-keyboard-response","245","2092419","0.0-6.0-11.12","39","<p><img class= 'stimulus' src='images/baseline/landscape8.jpg'></img></p>","null","","1551145403579","","","","","","",""
"null","","html-keyboard-response","246","2092520","0.0-6.0-12.12","39","<p><img class= 'stimulus' src='images/baseline/flooded-bridge.jpg'></img></p>","null","","1551145403680","12","","","","","",""
"null","","html-keyboard-response","247","2092619","0.0-6.0-13.12","39","<p><img class= 'stimulus' src='images/baseline/pexels-photo-210617.jpeg'></img></p>","null","","1551145403781","","","","","","",""
"null","","html-keyboard-response","248","2092719","0.0-6.0-14.12","39","<p><img class= 'stimulus left-rotate' src='images/target/torrotito-375925_640.jpg'></img></p>","null","","1551145403880","14","","","","","",""
"null","","html-keyboard-response","249","2092819","0.0-6.0-15.12","39","<p><img class= 'stimulus' src='images/baseline/Bahia_Onelli_Parque_Nacional_Los_Glaciares_Patagonia_Argentina_Luca_Galuzzi_2005.jpg'></img></p>","null","","1551145403981","","","","","","",""
"null","","html-keyboard-response","250","2092919","0.0-6.0-16.12","39","<p><img class= 'stimulus' src='images/baseline/architecture_modern_architecture_852928.jpg'></img></p>","null","","1551145404081","","","","","","",""
"null","","html-keyboard-response","251","2093036","0.0-6.0-17.12","39","<p><img class= 'stimulus' src='images/baseline/landscape7.jpg'></img></p>","null","","1551145404182","","","","","","",""
"991.0000000093132","","html-button-response","252","2095029","0.0-6.0-18.12","39","<div class = ""response_question"">WAS THE IMAGE ROTATED...</div>","","1","","","6","8","bas","left","practice","true"
"718.4000000124797","","html-button-response","253","2095749","0.0-6.0-0.13","39","","","0","","","","","","","",""
"null","","html-keyboard-response","254","2095835","0.0-6.0-1.13","39","<p><img class= 'stimulus' src='images/baseline/Sunset 6.jpg'></img></p>","null","","1551145406997","","","","","","",""
"null","","html-keyboard-response","255","2095935","0.0-6.0-2.13","39","<p><img class= 'stimulus' src='images/baseline/04201v.jpg'></img></p>","null","","1551145407098","","","","","","",""
"null","","html-keyboard-response","256","2096035","0.0-6.0-3.13","39","<p><img class= 'stimulus' src='images/baseline/Nature 2.jpg'></img></p>","null","","1551145407197","","","","","","",""
"null","","html-keyboard-response","257","2096135","0.0-6.0-4.13","39","<p><img class= 'stimulus' src='images/baseline/Lake 14.jpg'></img></p>","null","","1551145407298","4","","","","","",""
"null","","html-keyboard-response","258","2096236","0.0-6.0-5.13","39","<p><img class= 'stimulus' src='images/baseline/02971v.jpg'></img></p>","null","","1551145407397","","","","","","",""
"null","","html-keyboard-response","259","2096336","0.0-6.0-6.13","39","<p><img class= 'stimulus' src='images/baseline/Lake 16.jpg'></img></p>","null","","1551145407497","6","","","","","",""
"null","","html-keyboard-response","260","2096437","0.0-6.0-7.13","39","<p><img class= 'stimulus' src='images/baseline/dirt-road-or-trail-through-park.jpg'></img></p>","null","","1551145407597","","","","","","",""
"null","","html-keyboard-response","261","2096536","0.0-6.0-8.13","39","<p><img class= 'stimulus left-rotate' src='images/target/petronas-towers-433081_1920.jpg'></img></p>","null","","1551145407697","8","","","","","",""
"null","","html-keyboard-response","262","2096636","0.0-6.0-9.13","39","<p><img class= 'stimulus' src='images/baseline/valley 1.jpg'></img></p>","null","","1551145407797","","","","","","",""
"null","","html-keyboard-response","263","2096736","0.0-6.0-10.13","39","<p><img class= 'stimulus' src='images/baseline/04086v.jpg'></img></p>","null","","1551145407898","","","","","","",""
"null","","html-keyboard-response","264","2096835","0.0-6.0-11.13","39","<p><img class= 'stimulus' src='images/baseline/05247v.jpg'></img></p>","null","","1551145407998","","","","","","",""
"null","","html-keyboard-response","265","2096935","0.0-6.0-12.13","39","<p><img class= 'stimulus' src='images/baseline/lake 2.jpg'></img></p>","null","","1551145408097","12","","","","","",""
"null","","html-keyboard-response","266","2097036","0.0-6.0-13.13","39","<p><img class= 'stimulus' src='images/baseline/field 1.jpg'></img></p>","null","","1551145408197","","","","","","",""
"null","","html-keyboard-response","267","2097136","0.0-6.0-14.13","39","<p><img class= 'stimulus' src='images/baseline/pexels-photo-280222.jpeg'></img></p>","null","","1551145408297","14","","","","","",""
"null","","html-keyboard-response","268","2097235","0.0-6.0-15.13","39","<p><img class= 'stimulus' src='images/baseline/03204v.jpg'></img></p>","null","","1551145408397","","","","","","",""
"null","","html-keyboard-response","269","2097335","0.0-6.0-16.13","39","<p><img class= 'stimulus' src='images/baseline/landscape33.jpg'></img></p>","null","","1551145408496","","","","","","",""
"null","","html-keyboard-response","270","2097453","0.0-6.0-17.13","39","<p><img class= 'stimulus' src='images/baseline/landscape40.jpg'></img></p>","null","","1551145408596","","","","","","",""
"541.5999999968335","","html-button-response","271","2098998","0.0-6.0-18.13","39","<div class = ""response_question"">WAS THE IMAGE ROTATED...</div>","","0","","","6","2","bas","left","practice","true"
"646.1999999885447","","html-button-response","272","2099645","0.0-6.0-0.14","39","","","0","","","","","","","",""
"null","","html-keyboard-response","273","2099720","0.0-6.0-1.14","39","<p><img class= 'stimulus' src='images/baseline/05189v.jpg'></img></p>","null","","1551145410880","","","","","","",""
"null","","html-keyboard-response","274","2099820","0.0-6.0-2.14","39","<p><img class= 'stimulus' src='images/baseline/pexels-photo-1837621.jpeg'></img></p>","null","","1551145410980","","","","","","",""
"null","","html-keyboard-response","275","2099918","0.0-6.0-3.14","39","<p><img class= 'stimulus' src='images/baseline/03063v.jpg'></img></p>","null","","1551145411080","","","","","","",""
"null","","html-keyboard-response","276","2100020","0.0-6.0-4.14","39","<p><img class= 'stimulus' src='images/baseline/04063v.jpg'></img></p>","null","","1551145411181","4","","","","","",""
"null","","html-keyboard-response","277","2100118","0.0-6.0-5.14","39","<p><img class= 'stimulus' src='images/baseline/landscape22.jpg'></img></p>","null","","1551145411281","","","","","","",""
"null","","html-keyboard-response","278","2100219","0.0-6.0-6.14","39","<p><img class= 'stimulus' src='images/baseline/landscape34.jpg'></img></p>","null","","1551145411381","6","","","","","",""
"null","","html-keyboard-response","279","2100319","0.0-6.0-7.14","39","<p><img class= 'stimulus' src='images/baseline/04196v.jpg'></img></p>","null","","1551145411480","","","","","","",""
"null","","html-keyboard-response","280","2100419","0.0-6.0-8.14","39","<p><img class= 'stimulus' src='images/target/tree spring.jpeg'></img></p>","null","","1551145411580","8","","","","","",""
"null","","html-keyboard-response","281","2100519","0.0-6.0-9.14","39","<p><img class= 'stimulus' src='images/baseline/02947v.jpg'></img></p>","null","","1551145411681","","","","","","",""
"null","","html-keyboard-response","282","2100619","0.0-6.0-10.14","39","<p><img class= 'stimulus' src='images/baseline/building3.jpg'></img></p>","null","","1551145411780","","","","","","",""
"null","","html-keyboard-response","283","2100719","0.0-6.0-11.14","39","<p><img class= 'stimulus' src='images/baseline/landscape39.jpg'></img></p>","null","","1551145411881","","","","","","",""
"null","","html-keyboard-response","284","2100820","0.0-6.0-12.14","39","<p><img class= 'stimulus' src='images/baseline/04031v.jpg'></img></p>","null","","1551145411981","12","","","","","",""
"null","","html-keyboard-response","285","2100920","0.0-6.0-13.14","39","<p><img class= 'stimulus' src='images/baseline/05203v.jpg'></img></p>","null","","1551145412080","","","","","","",""
"null","","html-keyboard-response","286","2101019","0.0-6.0-14.14","39","<p><img class= 'stimulus' src='images/baseline/02962v.jpg'></img></p>","null","","1551145412180","14","","","","","",""
"null","","html-keyboard-response","287","2101119","0.0-6.0-15.14","39","<p><img class= 'stimulus' src='images/baseline/Lake 13.jpg'></img></p>","null","","1551145412280","","","","","","",""
"null","","html-keyboard-response","288","2101219","0.0-6.0-16.14","39","<p><img class= 'stimulus' src='images/baseline/farmhouse2.jpg'></img></p>","null","","1551145412381","","","","","","",""
"null","","html-keyboard-response","289","2101337","0.0-6.0-17.14","39","<p><img class= 'stimulus' src='images/baseline/03217v.jpg'></img></p>","null","","1551145412481","","","","","","",""
"473.5999999977648","","html-button-response","290","2102814","0.0-6.0-18.14","39","<div class = ""response_question"">WAS THE IMAGE ROTATED...</div>","","3","","","6","2","bas","right","practice","true"
"878.0999999875203","","html-button-response","291","2103693","0.0-6.0-0.15","39","","","0","","","","","","","",""
"null","","html-keyboard-response","292","2103770","0.0-6.0-1.15","39","<p><img class= 'stimulus' src='images/baseline/landscape14.jpg'></img></p>","null","","1551145414929","","","","","","",""
"null","","html-keyboard-response","293","2103870","0.0-6.0-2.15","39","<p><img class= 'stimulus' src='images/baseline/landscape15.jpg'></img></p>","null","","1551145415030","","","","","","",""
"null","","html-keyboard-response","294","2103969","0.0-6.0-3.15","39","<p><img class= 'stimulus' src='images/baseline/Niinsaare_jarv.jpg'></img></p>","null","","1551145415131","","","","","","",""
"null","","html-keyboard-response","295","2104070","0.0-6.0-4.15","39","<p><img class= 'stimulus' src='images/baseline/pexels-photo-894312.jpeg'></img></p>","null","","1551145415231","4","","","","","",""
"null","","html-keyboard-response","296","2104169","0.0-6.0-5.15","39","<p><img class= 'stimulus' src='images/baseline/hills 1.jpg'></img></p>","null","","1551145415332","","","","","","",""
"null","","html-keyboard-response","297","2104269","0.0-6.0-6.15","39","<p><img class= 'stimulus' src='images/baseline/04130v.jpg'></img></p>","null","","1551145415432","6","","","","","",""
"null","","html-keyboard-response","298","2104369","0.0-6.0-7.15","39","<p><img class= 'stimulus' src='images/baseline/04098v.jpg'></img></p>","null","","1551145415531","","","","","","",""
"null","","html-keyboard-response","299","2104469","0.0-6.0-8.15","39","<p><img class= 'stimulus' src='images/baseline/Sunset 4.jpg'></img></p>","null","","1551145415630","8","","","","","",""
"null","","html-keyboard-response","300","2104569","0.0-6.0-9.15","39","<p><img class= 'stimulus' src='images/baseline/Happy pose 3.jpg'></img></p>","null","","1551145415731","","","","","","",""
"null","","html-keyboard-response","301","2104669","0.0-6.0-10.15","39","<p><img class= 'stimulus' src='images/baseline/04162v.jpg'></img></p>","null","","1551145415830","","","","","","",""
"null","","html-keyboard-response","302","2104769","0.0-6.0-11.15","39","<p><img class= 'stimulus' src='images/baseline/05179v.jpg'></img></p>","null","","1551145415930","","","","","","",""
"null","","html-keyboard-response","303","2104870","0.0-6.0-12.15","39","<p><img class= 'stimulus' src='images/target/buildin2.png'></img></p>","null","","1551145416030","12","","","","","",""
"null","","html-keyboard-response","304","2104969","0.0-6.0-13.15","39","<p><img class= 'stimulus' src='images/baseline/Sky 1.jpg'></img></p>","null","","1551145416130","","","","","","",""
"null","","html-keyboard-response","305","2105069","0.0-6.0-14.15","39","<p><img class= 'stimulus' src='images/baseline/city-silhouette-at-sunset-871291580819Esw.jpg'></img></p>","null","","1551145416230","14","","","","","",""
"null","","html-keyboard-response","306","2105170","0.0-6.0-15.15","39","<p><img class= 'stimulus' src='images/baseline/05131v.jpg'></img></p>","null","","1551145416332","","","","","","",""
"null","","html-keyboard-response","307","2105270","0.0-6.0-16.15","39","<p><img class= 'stimulus' src='images/baseline/Nature 1.jpg'></img></p>","null","","1551145416431","","","","","","",""
"null","","html-keyboard-response","308","2105385","0.0-6.0-17.15","39","<p><img class= 'stimulus' src='images/baseline/architecture-956332_1280.jpg'></img></p>","null","","1551145416531","","","","","","",""
"552.5000000051223","","html-button-response","309","2106941","0.0-6.0-18.15","39","<div class = ""response_question"">WAS THE IMAGE ROTATED...</div>","","3","","","4","8","bas","right","practice","true"
"26054.399999993853","","html-button-response","310","2132989","0.0-7.0","39","<p>You have now completed the practice phase. We will now begin the real trials.         This is a reminder that you will be searching for a rotated image among the series of upright images.</p>         <p>Remember, please do not blink or move your eyes while the images are on the screen.</p>         <p>At the end of the experiment, the experimenter will be able to show you how accurate you were.</p>","","0","","","","","","","",""
"7198.699999993201","","html-button-response","311","2140189","0.0-8.0-0.0-0.0","39","","","0","","","","","","","",""
"null","","html-keyboard-response","312","2140261","0.0-8.0-0.0-1.0","39","<p><img class= 'stimulus' src='images/baseline/Dirt 2.jpg'></img></p>","null","","1551145451423","","","","","","",""
"null","","html-keyboard-response","313","2140361","0.0-8.0-0.0-2.0","39","<p><img class= 'stimulus' src='images/baseline/03220v.jpg'></img></p>","null","","1551145451523","","","","","","",""
"null","","html-keyboard-response","314","2140462","0.0-8.0-0.0-3.0","39","<p><img class= 'stimulus' src='images/baseline/farmhouse7.jpg'></img></p>","null","","1551145451624","","","","","","",""
"null","","html-keyboard-response","315","2140562","0.0-8.0-0.0-4.0","39","<p><img class= 'stimulus' src='images/baseline/farmhouse3.jpg'></img></p>","null","","1551145451723","4","","","","","",""
"null","","html-keyboard-response","316","2140662","0.0-8.0-0.0-5.0","39","<p><img class= 'stimulus' src='images/baseline/Grass 6.jpg'></img></p>","null","","1551145451823","","","","","","",""
"null","","html-keyboard-response","317","2140761","0.0-8.0-0.0-6.0","39","<p><img class= 'stimulus' src='images/negative/Cockroach 2.jpg'></img></p>","null","","1551145451922","6","","","","","",""
"null","","html-keyboard-response","318","2140862","0.0-8.0-0.0-7.0","39","<p><img class= 'stimulus' src='images/baseline/landscape11.jpg'></img></p>","null","","1551145452023","","","","","","",""
"null","","html-keyboard-response","319","2140961","0.0-8.0-0.0-8.0","39","<p><img class= 'stimulus' src='images/baseline/landscape37.jpg'></img></p>","null","","1551145452123","8","","","","","",""
"null","","html-keyboard-response","320","2141061","0.0-8.0-0.0-9.0","39","<p><img class= 'stimulus' src='images/baseline/Road 1.jpg'></img></p>","null","","1551145452223","","","","","","",""
"null","","html-keyboard-response","321","2141161","0.0-8.0-0.0-10.0","39","<p><img class= 'stimulus' src='images/baseline/Skijump 1.jpg'></img></p>","null","","1551145452323","","","","","","",""
"null","","html-keyboard-response","322","2141261","0.0-8.0-0.0-11.0","39","<p><img class= 'stimulus' src='images/baseline/farmhouse6.jpg'></img></p>","null","","1551145452423","","","","","","",""
"null","","html-keyboard-response","323","2141361","0.0-8.0-0.0-12.0","39","<p><img class= 'stimulus' src='images/baseline/landscape16.jpg'></img></p>","null","","1551145452522","12","","","","","",""
"null","","html-keyboard-response","324","2141462","0.0-8.0-0.0-13.0","39","<p><img class= 'stimulus' src='images/baseline/red rocks from afar.jpg'></img></p>","null","","1551145452623","","","","","","",""
"null","","html-keyboard-response","325","2141561","0.0-8.0-0.0-14.0","39","<p><img class= 'stimulus' src='images/target/Wild-West-South-West-Usa-Landscape-America-1663497.jpg'></img></p>","null","","1551145452722","14","","","","","",""
"null","","html-keyboard-response","326","2141661","0.0-8.0-0.0-15.0","39","<p><img class= 'stimulus' src='images/baseline/03075v.jpg'></img></p>","null","","1551145452822","","","","","","",""
"null","","html-keyboard-response","327","2141761","0.0-8.0-0.0-16.0","39","<p><img class= 'stimulus' src='images/baseline/pexels-photo-440731.jpeg'></img></p>","null","","1551145452923","","","","","","",""
"null","","html-keyboard-response","328","2141878","0.0-8.0-0.0-17.0","39","<p><img class= 'stimulus' src='images/baseline/05198v.jpg'></img></p>","null","","1551145453023","","","","","","",""
"1744.0000000060536","","html-button-response","329","2144637","0.0-8.0-0.0-18.0","39","<div class = ""response_question"">WAS THE IMAGE ROTATED...</div>","","3","","","6","8","neg","right","test","true"
"1750.3999999896623","","html-button-response","330","2146389","0.0-8.0-0.0-0.1","39","","","0","","","","","","","",""
"null","","html-keyboard-response","331","2146461","0.0-8.0-0.0-1.1","39","<p><img class= 'stimulus' src='images/baseline/landscape35.jpg'></img></p>","null","","1551145457622","","","","","","",""
"null","","html-keyboard-response","332","2146561","0.0-8.0-0.0-2.1","39","<p><img class= 'stimulus' src='images/baseline/Lake 15.jpg'></img></p>","null","","1551145457722","","","","","","",""
"null","","html-keyboard-response","333","2146662","0.0-8.0-0.0-3.1","39","<p><img class= 'stimulus' src='images/baseline/02962v.jpg'></img></p>","null","","1551145457823","","","","","","",""
"null","","html-keyboard-response","334","2146762","0.0-8.0-0.0-4.1","39","<p><img class= 'stimulus' src='images/baseline/horse_statue.jpg'></img></p>","null","","1551145457923","4","","","","","",""
"null","","html-keyboard-response","335","2146862","0.0-8.0-0.0-5.1","39","<p><img class= 'stimulus' src='images/baseline/Lake 5.jpg'></img></p>","null","","1551145458024","","","","","","",""
"null","","html-keyboard-response","336","2146962","0.0-8.0-0.0-6.1","39","<p><img class= 'stimulus' src='images/baseline/valley 1.jpg'></img></p>","null","","1551145458124","6","","","","","",""
"null","","html-keyboard-response","337","2147061","0.0-8.0-0.0-7.1","39","<p><img class= 'stimulus' src='images/baseline/pexels-photo-221125.jpeg'></img></p>","null","","1551145458222","","","","","","",""
"null","","html-keyboard-response","338","2147162","0.0-8.0-0.0-8.1","39","<p><img class= 'stimulus left-rotate' src='images/target/specphotops-563427-unsplash.jpg'></img></p>","null","","1551145458323","8","","","","","",""
"null","","html-keyboard-response","339","2147261","0.0-8.0-0.0-9.1","39","<p><img class= 'stimulus' src='images/baseline/02971v.jpg'></img></p>","null","","1551145458424","","","","","","",""
"null","","html-keyboard-response","340","2147361","0.0-8.0-0.0-10.1","39","<p><img class= 'stimulus' src='images/baseline/05158v.jpg'></img></p>","null","","1551145458523","","","","","","",""
"null","","html-keyboard-response","341","2147461","0.0-8.0-0.0-11.1","39","<p><img class= 'stimulus' src='images/baseline/landscape3.jpg'></img></p>","null","","1551145458622","","","","","","",""
"null","","html-keyboard-response","342","2147561","0.0-8.0-0.0-12.1","39","<p><img class= 'stimulus' src='images/baseline/pexels-photo-1048039.jpeg'></img></p>","null","","1551145458722","12","","","","","",""
"null","","html-keyboard-response","343","2147662","0.0-8.0-0.0-13.1","39","<p><img class= 'stimulus' src='images/baseline/__08_-_ITALY_-_Forli_under_snow_-_winter_landscape_of_city_(christmas).jpg'></img></p>","null","","1551145458823","","","","","","",""
"null","","html-keyboard-response","344","2147761","0.0-8.0-0.0-14.1","39","<p><img class= 'stimulus' src='images/baseline/03045v.jpg'></img></p>","null","","1551145458923","14","","","","","",""
"null","","html-keyboard-response","345","2147861","0.0-8.0-0.0-15.1","39","<p><img class= 'stimulus' src='images/baseline/05242v.jpg'></img></p>","null","","1551145459022","","","","","","",""
"null","","html-keyboard-response","346","2147961","0.0-8.0-0.0-16.1","39","<p><img class= 'stimulus' src='images/baseline/04162v.jpg'></img></p>","null","","1551145459122","","","","","","",""
"null","","html-keyboard-response","347","2148078","0.0-8.0-0.0-17.1","39","<p><img class= 'stimulus' src='images/baseline/lake3.jpg'></img></p>","null","","1551145459222","","","","","","",""
"1075.899999995716","","html-button-response","348","2150157","0.0-8.0-0.0-18.1","39","<div class = ""response_question"">WAS THE IMAGE ROTATED...</div>","","0","","","6","2","bas","left","test","true"
"3902.3999999919906","","html-button-response","349","2154061","0.0-8.0-0.0-0.2","39","","","0","","","","","","","",""
"null","","html-keyboard-response","350","2154144","0.0-8.0-0.0-1.2","39","<p><img class= 'stimulus' src='images/baseline/02947v.jpg'></img></p>","null","","1551145465307","","","","","","",""
"null","","html-keyboard-response","351","2154245","0.0-8.0-0.0-2.2","39","<p><img class= 'stimulus' src='images/baseline/building_at_national_conservation.jpg'></img></p>","null","","1551145465406","","","","","","",""
"null","","html-keyboard-response","352","2154344","0.0-8.0-0.0-3.2","39","<p><img class= 'stimulus' src='images/baseline/Path 1.jpg'></img></p>","null","","1551145465506","","","","","","",""
"null","","html-keyboard-response","353","2154444","0.0-8.0-0.0-4.2","39","<p><img class= 'stimulus' src='images/negative/Bloody knife 1.jpg'></img></p>","null","","1551145465606","4","","","","","",""
"null","","html-keyboard-response","354","2154545","0.0-8.0-0.0-5.2","39","<p><img class= 'stimulus' src='images/baseline/town-square-in-wroclaw-1539098440MZy.jpg'></img></p>","null","","1551145465706","","","","","","",""
"null","","html-keyboard-response","355","2154644","0.0-8.0-0.0-6.2","39","<p><img class= 'stimulus' src='images/target/pexels-photo-932328.jpeg'></img></p>","null","","1551145465805","6","","","","","",""
"null","","html-keyboard-response","356","2154745","0.0-8.0-0.0-7.2","39","<p><img class= 'stimulus' src='images/baseline/landscape15.jpg'></img></p>","null","","1551145465906","","","","","","",""
"null","","html-keyboard-response","357","2154845","0.0-8.0-0.0-8.2","39","<p><img class= 'stimulus' src='images/baseline/house1.jpg'></img></p>","null","","1551145466006","8","","","","","",""
"null","","html-keyboard-response","358","2154945","0.0-8.0-0.0-9.2","39","<p><img class= 'stimulus' src='images/baseline/Beach 8.jpg'></img></p>","null","","1551145466107","","","","","","",""
"null","","html-keyboard-response","359","2155045","0.0-8.0-0.0-10.2","39","<p><img class= 'stimulus' src='images/baseline/landscape31.jpg'></img></p>","null","","1551145466206","","","","","","",""
"null","","html-keyboard-response","360","2155145","0.0-8.0-0.0-11.2","39","<p><img class= 'stimulus' src='images/baseline/Lake 4.jpg'></img></p>","null","","1551145466306","","","","","","",""
"null","","html-keyboard-response","361","2155244","0.0-8.0-0.0-12.2","39","<p><img class= 'stimulus' src='images/baseline/Beach 3.jpg'></img></p>","null","","1551145466406","12","","","","","",""
"null","","html-keyboard-response","362","2155345","0.0-8.0-0.0-13.2","39","<p><img class= 'stimulus' src='images/baseline/lake 1.jpg'></img></p>","null","","1551145466507","","","","","","",""
"null","","html-keyboard-response","363","2155445","0.0-8.0-0.0-14.2","39","<p><img class= 'stimulus' src='images/baseline/pexels-photo-259280.jpeg'></img></p>","null","","1551145466607","14","","","","","",""
"null","","html-keyboard-response","364","2155544","0.0-8.0-0.0-15.2","39","<p><img class= 'stimulus' src='images/baseline/03114v.jpg'></img></p>","null","","1551145466707","","","","","","",""
"null","","html-keyboard-response","365","2155644","0.0-8.0-0.0-16.2","39","<p><img class= 'stimulus' src='images/baseline/04284v.jpg'></img></p>","null","","1551145466805","","","","","","",""
"null","","html-keyboard-response","366","2155762","0.0-8.0-0.0-17.2","39","<p><img class= 'stimulus' src='images/baseline/99_-_Machu_Picchu_-_Juin_2009.edit3.jpg'></img></p>","null","","1551145466906","","","","","","",""
"1086.3000000100583","","html-button-response","367","2157853","0.0-8.0-0.0-18.2","39","<div class = ""response_question"">WAS THE IMAGE ROTATED...</div>","","4","","","4","2","neg","right","test","true"
"1638.2999999914318","","html-button-response","368","2159493","0.0-8.0-0.0-0.3","39","","","0","","","","","","","",""
"null","","html-keyboard-response","369","2159579","0.0-8.0-0.0-1.3","39","<p><img class= 'stimulus' src='images/baseline/landscape33.jpg'></img></p>","null","","1551145470739","","","","","","",""
"null","","html-keyboard-response","370","2159678","0.0-8.0-0.0-2.3","39","<p><img class= 'stimulus' src='images/baseline/04063v.jpg'></img></p>","null","","1551145470839","","","","","","",""
"null","","html-keyboard-response","371","2159778","0.0-8.0-0.0-3.3","39","<p><img class= 'stimulus' src='images/baseline/Cold 7.jpg'></img></p>","null","","1551145470939","","","","","","",""
"null","","html-keyboard-response","372","2159878","0.0-8.0-0.0-4.3","39","<p><img class= 'stimulus' src='images/baseline/building4.jpg'></img></p>","null","","1551145471040","4","","","","","",""
"null","","html-keyboard-response","373","2159980","0.0-8.0-0.0-5.3","39","<p><img class= 'stimulus' src='images/baseline/05179v.jpg'></img></p>","null","","1551145471140","","","","","","",""
"null","","html-keyboard-response","374","2160078","0.0-8.0-0.0-6.3","39","<p><img class= 'stimulus' src='images/negative/Injury 1.jpg'></img></p>","null","","1551145471240","6","","","","","",""
"null","","html-keyboard-response","375","2160179","0.0-8.0-0.0-7.3","39","<p><img class= 'stimulus' src='images/baseline/cyrillic.jpg'></img></p>","null","","1551145471340","","","","","","",""
"null","","html-keyboard-response","376","2160278","0.0-8.0-0.0-8.3","39","<p><img class= 'stimulus' src='images/baseline/landscape36.jpg'></img></p>","null","","1551145471441","8","","","","","",""
"null","","html-keyboard-response","377","2160380","0.0-8.0-0.0-9.3","39","<p><img class= 'stimulus' src='images/baseline/field 3.jpg'></img></p>","null","","1551145471539","","","","","","",""
"null","","html-keyboard-response","378","2160478","0.0-8.0-0.0-10.3","39","<p><img class= 'stimulus' src='images/baseline/building16.jpg'></img></p>","null","","1551145471639","","","","","","",""
"null","","html-keyboard-response","379","2160578","0.0-8.0-0.0-11.3","39","<p><img class= 'stimulus' src='images/baseline/landscape34.jpg'></img></p>","null","","1551145471740","","","","","","",""
"null","","html-keyboard-response","380","2160678","0.0-8.0-0.0-12.3","39","<p><img class= 'stimulus' src='images/baseline/meadow-with-mountain-in-background.jpg'></img></p>","null","","1551145471839","12","","","","","",""
"null","","html-keyboard-response","381","2160779","0.0-8.0-0.0-13.3","39","<p><img class= 'stimulus' src='images/baseline/house2.jpg'></img></p>","null","","1551145471940","","","","","","",""
"null","","html-keyboard-response","382","2160879","0.0-8.0-0.0-14.3","39","<p><img class= 'stimulus' src='images/target/pexels-photo-602607.jpeg'></img></p>","null","","1551145472039","14","","","","","",""
"null","","html-keyboard-response","383","2160980","0.0-8.0-0.0-15.3","39","<p><img class= 'stimulus' src='images/baseline/Niinsaare_jarv.jpg'></img></p>","null","","1551145472140","","","","","","",""
"null","","html-keyboard-response","384","2161078","0.0-8.0-0.0-16.3","39","<p><img class= 'stimulus' src='images/baseline/Nature 2.jpg'></img></p>","null","","1551145472240","","","","","","",""
"null","","html-keyboard-response","385","2161195","0.0-8.0-0.0-17.3","39","<p><img class= 'stimulus' src='images/baseline/04201v.jpg'></img></p>","null","","1551145472341","","","","","","",""
"2493.3000000016764","","html-button-response","386","2164693","0.0-8.0-0.0-18.3","39","<div class = ""response_question"">WAS THE IMAGE ROTATED...</div>","","1","","","6","8","neg","right","test","false"
"2246.1999999941327","","html-button-response","387","2166941","0.0-8.0-0.0-0.4","39","","","0","","","","","","","",""
"null","","html-keyboard-response","388","2167028","0.0-8.0-0.0-1.4","39","<p><img class= 'stimulus' src='images/baseline/farmhouse2.jpg'></img></p>","null","","1551145478190","","","","","","",""
"null","","html-keyboard-response","389","2167129","0.0-8.0-0.0-2.4","39","<p><img class= 'stimulus' src='images/baseline/04031v.jpg'></img></p>","null","","1551145478290","","","","","","",""
"null","","html-keyboard-response","390","2167229","0.0-8.0-0.0-3.4","39","<p><img class= 'stimulus' src='images/baseline/05280v.jpg'></img></p>","null","","1551145478389","","","","","","",""
"null","","html-keyboard-response","391","2167328","0.0-8.0-0.0-4.4","39","<p><img class= 'stimulus' src='images/baseline/landscape1.jpg'></img></p>","null","","1551145478489","4","","","","","",""
"null","","html-keyboard-response","392","2167428","0.0-8.0-0.0-5.4","39","<p><img class= 'stimulus' src='images/baseline/Waterfall 1.jpg'></img></p>","null","","1551145478591","","","","","","",""
"null","","html-keyboard-response","393","2167529","0.0-8.0-0.0-6.4","39","<p><img class= 'stimulus' src='images/negative/Gun 7.jpg'></img></p>","null","","1551145478689","6","","","","","",""
"null","","html-keyboard-response","394","2167629","0.0-8.0-0.0-7.4","39","<p><img class= 'stimulus' src='images/baseline/04222v.jpg'></img></p>","null","","1551145478790","","","","","","",""
"null","","html-keyboard-response","395","2167728","0.0-8.0-0.0-8.4","39","<p><img class= 'stimulus' src='images/baseline/Street 1.jpg'></img></p>","null","","1551145478891","8","","","","","",""
"null","","html-keyboard-response","396","2167828","0.0-8.0-0.0-9.4","39","<p><img class= 'stimulus' src='images/baseline/Sunset 3.jpg'></img></p>","null","","1551145478990","","","","","","",""
"null","","html-keyboard-response","397","2167929","0.0-8.0-0.0-10.4","39","<p><img class= 'stimulus' src='images/baseline/03056v.jpg'></img></p>","null","","1551145479089","","","","","","",""
"null","","html-keyboard-response","398","2168028","0.0-8.0-0.0-11.4","39","<p><img class= 'stimulus' src='images/baseline/autumn-landscape-with-lake-fall-trees-mountains.jpg'></img></p>","null","","1551145479189","","","","","","",""
"null","","html-keyboard-response","399","2168128","0.0-8.0-0.0-12.4","39","<p><img class= 'stimulus' src='images/baseline/03180v.jpg'></img></p>","null","","1551145479289","12","","","","","",""
"null","","html-keyboard-response","400","2168229","0.0-8.0-0.0-13.4","39","<p><img class= 'stimulus' src='images/baseline/landscape12.jpg'></img></p>","null","","1551145479390","","","","","","",""
"null","","html-keyboard-response","401","2168328","0.0-8.0-0.0-14.4","39","<p><img class= 'stimulus left-rotate' src='images/target/pexels-photo-1534411.jpeg'></img></p>","null","","1551145479489","14","","","","","",""
"null","","html-keyboard-response","402","2168429","0.0-8.0-0.0-15.4","39","<p><img class= 'stimulus' src='images/baseline/03066v.jpg'></img></p>","null","","1551145479590","","","","","","",""
"null","","html-keyboard-response","403","2168528","0.0-8.0-0.0-16.4","39","<p><img class= 'stimulus' src='images/baseline/03204v.jpg'></img></p>","null","","1551145479690","","","","","","",""
"null","","html-keyboard-response","404","2168644","0.0-8.0-0.0-17.4","39","<p><img class= 'stimulus' src='images/baseline/pexels-photo-1054289.jpeg'></img></p>","null","","1551145479789","","","","","","",""
"574.7999999877065","","html-button-response","405","2170238","0.0-8.0-0.0-18.4","39","<div class = ""response_question"">WAS THE IMAGE ROTATED...</div>","","0","","","6","8","neg","left","test","true"
"750.600000014063","","html-button-response","406","2170990","0.0-8.0-0.0-0.5","39","","","0","","","","","","","",""
"null","","html-keyboard-response","407","2171061","0.0-8.0-0.0-1.5","39","<p><img class= 'stimulus' src='images/baseline/valley 2.jpg'></img></p>","null","","1551145482223","","","","","","",""
"null","","html-keyboard-response","408","2171161","0.0-8.0-0.0-2.5","39","<p><img class= 'stimulus' src='images/baseline/Paysage_karabagh_02.jpg'></img></p>","null","","1551145482322","","","","","","",""
"null","","html-keyboard-response","409","2171262","0.0-8.0-0.0-3.5","39","<p><img class= 'stimulus' src='images/baseline/agriculture-bright-clouds-440731.jpg'></img></p>","null","","1551145482422","","","","","","",""
"null","","html-keyboard-response","410","2171361","0.0-8.0-0.0-4.5","39","<p><img class= 'stimulus' src='images/baseline/landscape40.jpg'></img></p>","null","","1551145482523","4","","","","","",""
"null","","html-keyboard-response","411","2171462","0.0-8.0-0.0-5.5","39","<p><img class= 'stimulus' src='images/baseline/pexels-photo-1261728.jpeg'></img></p>","null","","1551145482624","","","","","","",""
"null","","html-keyboard-response","412","2171562","0.0-8.0-0.0-6.5","39","<p><img class= 'stimulus' src='images/negative/Animal carcass 6.jpg'></img></p>","null","","1551145482723","6","","","","","",""
"null","","html-keyboard-response","413","2171663","0.0-8.0-0.0-7.5","39","<p><img class= 'stimulus' src='images/baseline/04060v.jpg'></img></p>","null","","1551145482824","","","","","","",""
"null","","html-keyboard-response","414","2171763","0.0-8.0-0.0-8.5","39","<p><img class= 'stimulus' src='images/baseline/farmhouse1.jpg'></img></p>","null","","1551145482923","8","","","","","",""
"null","","html-keyboard-response","415","2171861","0.0-8.0-0.0-9.5","39","<p><img class= 'stimulus' src='images/baseline/pexels-photo-414491.jpeg'></img></p>","null","","1551145483024","","","","","","",""
"null","","html-keyboard-response","416","2171962","0.0-8.0-0.0-10.5","39","<p><img class= 'stimulus' src='images/baseline/03148v.jpg'></img></p>","null","","1551145483124","","","","","","",""
"null","","html-keyboard-response","417","2172061","0.0-8.0-0.0-11.5","39","<p><img class= 'stimulus' src='images/baseline/Bridge 1.jpg'></img></p>","null","","1551145483223","","","","","","",""
"null","","html-keyboard-response","418","2172162","0.0-8.0-0.0-12.5","39","<p><img class= 'stimulus' src='images/baseline/Camping 10.jpg'></img></p>","null","","1551145483323","12","","","","","",""
"null","","html-keyboard-response","419","2172261","0.0-8.0-0.0-13.5","39","<p><img class= 'stimulus' src='images/baseline/pexels-photo-459203.jpeg'></img></p>","null","","1551145483423","","","","","","",""
"null","","html-keyboard-response","420","2172362","0.0-8.0-0.0-14.5","39","<p><img class= 'stimulus' src='images/target/cactus1.jpg'></img></p>","null","","1551145483522","14","","","","","",""
"null","","html-keyboard-response","421","2172462","0.0-8.0-0.0-15.5","39","<p><img class= 'stimulus' src='images/baseline/05240v.jpg'></img></p>","null","","1551145483623","","","","","","",""
"null","","html-keyboard-response","422","2172562","0.0-8.0-0.0-16.5","39","<p><img class= 'stimulus' src='images/baseline/house11.jpg'></img></p>","null","","1551145483723","","","","","","",""
"null","","html-keyboard-response","423","2172678","0.0-8.0-0.0-17.5","39","<p><img class= 'stimulus' src='images/baseline/04085v.jpg'></img></p>","null","","1551145483824","","","","","","",""
"522.7000000011176","","html-button-response","424","2174206","0.0-8.0-0.0-18.5","39","<div class = ""response_question"">WAS THE IMAGE ROTATED...</div>","","3","","","6","8","neg","right","test","true"
"749.7000000006519","","html-button-response","425","2174957","0.0-8.0-0.0-0.6","39","","","0","","","","","","","",""
"null","","html-keyboard-response","426","2175030","0.0-8.0-0.0-1.6","39","<p><img class= 'stimulus' src='images/baseline/vintage-art-deco-storefront.jpg'></img></p>","null","","1551145486189","","","","","","",""
"null","","html-keyboard-response","427","2175128","0.0-8.0-0.0-2.6","39","<p><img class= 'stimulus' src='images/baseline/sunny-landscape-with-dry-brush-and-mountain-background.jpg'></img></p>","null","","1551145486291","","","","","","",""
"null","","html-keyboard-response","428","2175229","0.0-8.0-0.0-3.6","39","<p><img class= 'stimulus' src='images/baseline/02945v.jpg'></img></p>","null","","1551145486390","","","","","","",""
"null","","html-keyboard-response","429","2175328","0.0-8.0-0.0-4.6","39","<p><img class= 'stimulus' src='images/baseline/Aletschgletscher-Eggishorn.jpg'></img></p>","null","","1551145486491","4","","","","","",""
"null","","html-keyboard-response","430","2175429","0.0-8.0-0.0-5.6","39","<p><img class= 'stimulus' src='images/baseline/pexels-photo-210617.jpeg'></img></p>","null","","1551145486590","","","","","","",""
"null","","html-keyboard-response","431","2175529","0.0-8.0-0.0-6.6","39","<p><img class= 'stimulus' src='images/baseline/04040v.jpg'></img></p>","null","","1551145486689","6","","","","","",""
"null","","html-keyboard-response","432","2175629","0.0-8.0-0.0-7.6","39","<p><img class= 'stimulus' src='images/baseline/04062v.jpg'></img></p>","null","","1551145486790","","","","","","",""
"null","","html-keyboard-response","433","2175729","0.0-8.0-0.0-8.6","39","<p><img class= 'stimulus left-rotate' src='images/target/transamerica-pyramid-530061_640.jpg'></img></p>","null","","1551145486890","8","","","","","",""
"null","","html-keyboard-response","434","2175828","0.0-8.0-0.0-9.6","39","<p><img class= 'stimulus' src='images/baseline/landscape2.jpg'></img></p>","null","","1551145486990","","","","","","",""
"null","","html-keyboard-response","435","2175928","0.0-8.0-0.0-10.6","39","<p><img class= 'stimulus' src='images/baseline/Freudenberg_sg_Switzerland.jpg'></img></p>","null","","1551145487091","","","","","","",""
"null","","html-keyboard-response","436","2176028","0.0-8.0-0.0-11.6","39","<p><img class= 'stimulus' src='images/baseline/agriculture-cereal-clouds-175389.jpg'></img></p>","null","","1551145487189","","","","","","",""
"null","","html-keyboard-response","437","2176128","0.0-8.0-0.0-12.6","39","<p><img class= 'stimulus' src='images/baseline/field 1.jpg'></img></p>","null","","1551145487290","12","","","","","",""
"null","","html-keyboard-response","438","2176229","0.0-8.0-0.0-13.6","39","<p><img class= 'stimulus' src='images/baseline/Street 5.jpg'></img></p>","null","","1551145487389","","","","","","",""
"null","","html-keyboard-response","439","2176328","0.0-8.0-0.0-14.6","39","<p><img class= 'stimulus' src='images/baseline/05247v.jpg'></img></p>","null","","1551145487489","14","","","","","",""
"null","","html-keyboard-response","440","2176429","0.0-8.0-0.0-15.6","39","<p><img class= 'stimulus' src='images/baseline/03212v.jpg'></img></p>","null","","1551145487590","","","","","","",""
"null","","html-keyboard-response","441","2176528","0.0-8.0-0.0-16.6","39","<p><img class= 'stimulus' src='images/baseline/Street 4.jpg'></img></p>","null","","1551145487689","","","","","","",""
"null","","html-keyboard-response","442","2176645","0.0-8.0-0.0-17.6","39","<p><img class= 'stimulus' src='images/baseline/landscape8.jpg'></img></p>","null","","1551145487791","","","","","","",""
"564.5999999977648","","html-button-response","443","2178213","0.0-8.0-0.0-18.6","39","<div class = ""response_question"">WAS THE IMAGE ROTATED...</div>","","0","","","6","2","bas","left","test","true"
"805.8999999919906","","html-button-response","444","2179022","0.0-8.0-0.0-0.7","39","","","0","","","","","","","",""
"null","","html-keyboard-response","445","2179095","0.0-8.0-0.0-1.7","39","<p><img class= 'stimulus' src='images/baseline/Lake 7.jpg'></img></p>","null","","1551145490257","","","","","","",""
"null","","html-keyboard-response","446","2179195","0.0-8.0-0.0-2.7","39","<p><img class= 'stimulus' src='images/baseline/landscape22.jpg'></img></p>","null","","1551145490356","","","","","","",""
"null","","html-keyboard-response","447","2179295","0.0-8.0-0.0-3.7","39","<p><img class= 'stimulus' src='images/baseline/Sunset 4.jpg'></img></p>","null","","1551145490457","","","","","","",""
"null","","html-keyboard-response","448","2179395","0.0-8.0-0.0-4.7","39","<p><img class= 'stimulus' src='images/negative/Fire 7.jpg'></img></p>","null","","1551145490557","4","","","","","",""
"null","","html-keyboard-response","449","2179495","0.0-8.0-0.0-5.7","39","<p><img class= 'stimulus' src='images/baseline/landscape4.jpg'></img></p>","null","","1551145490657","","","","","","",""
"null","","html-keyboard-response","450","2179595","0.0-8.0-0.0-6.7","39","<p><img class= 'stimulus' src='images/baseline/empire-state-building.jpg'></img></p>","null","","1551145490757","6","","","","","",""
"null","","html-keyboard-response","451","2179695","0.0-8.0-0.0-7.7","39","<p><img class= 'stimulus' src='images/baseline/Street 3.jpg'></img></p>","null","","1551145490857","","","","","","",""
"null","","html-keyboard-response","452","2179796","0.0-8.0-0.0-8.7","39","<p><img class= 'stimulus' src='images/baseline/pexels-photo-59321.jpeg'></img></p>","null","","1551145490956","8","","","","","",""
"null","","html-keyboard-response","453","2179895","0.0-8.0-0.0-9.7","39","<p><img class= 'stimulus' src='images/baseline/landscape29.jpg'></img></p>","null","","1551145491056","","","","","","",""
"null","","html-keyboard-response","454","2179996","0.0-8.0-0.0-10.7","39","<p><img class= 'stimulus' src='images/baseline/grand-teton-mountains.jpg'></img></p>","null","","1551145491158","","","","","","",""
"null","","html-keyboard-response","455","2180095","0.0-8.0-0.0-11.7","39","<p><img class= 'stimulus' src='images/baseline/house8.jpg'></img></p>","null","","1551145491257","","","","","","",""
"null","","html-keyboard-response","456","2180197","0.0-8.0-0.0-12.7","39","<p><img class= 'stimulus' src='images/target/cactus2.jpg'></img></p>","null","","1551145491357","12","","","","","",""
"null","","html-keyboard-response","457","2180294","0.0-8.0-0.0-13.7","39","<p><img class= 'stimulus' src='images/baseline/hills 3.jpg'></img></p>","null","","1551145491457","","","","","","",""
"null","","html-keyboard-response","458","2180395","0.0-8.0-0.0-14.7","39","<p><img class= 'stimulus' src='images/baseline/05145v.jpg'></img></p>","null","","1551145491556","14","","","","","",""
"null","","html-keyboard-response","459","2180496","0.0-8.0-0.0-15.7","39","<p><img class= 'stimulus' src='images/baseline/seoul-410266_1920.jpg'></img></p>","null","","1551145491657","","","","","","",""
"null","","html-keyboard-response","460","2180595","0.0-8.0-0.0-16.7","39","<p><img class= 'stimulus' src='images/baseline/landscape23.jpg'></img></p>","null","","1551145491757","","","","","","",""
"null","","html-keyboard-response","461","2180713","0.0-8.0-0.0-17.7","39","<p><img class= 'stimulus' src='images/baseline/bird-flying-at-sunset.jpg'></img></p>","null","","1551145491856","","","","","","",""
"1256.900000007823","","html-button-response","462","2182974","0.0-8.0-0.0-18.7","39","<div class = ""response_question"">WAS THE IMAGE ROTATED...</div>","","3","","","4","8","neg","right","test","true"
"678.1000000047497","","html-button-response","463","2183653","0.0-8.0-0.0-0.8","39","","","0","","","","","","","",""
"null","","html-keyboard-response","464","2183729","0.0-8.0-0.0-1.8","39","<p><img class= 'stimulus' src='images/baseline/04229v.jpg'></img></p>","null","","1551145494890","","","","","","",""
"null","","html-keyboard-response","465","2183829","0.0-8.0-0.0-2.8","39","<p><img class= 'stimulus' src='images/baseline/pexels-photo-534164.jpeg'></img></p>","null","","1551145494989","","","","","","",""
"null","","html-keyboard-response","466","2183929","0.0-8.0-0.0-3.8","39","<p><img class= 'stimulus' src='images/baseline/landscape19.jpg'></img></p>","null","","1551145495089","","","","","","",""
"null","","html-keyboard-response","467","2184028","0.0-8.0-0.0-4.8","39","<p><img class= 'stimulus' src='images/baseline/Linden,_paysage.jpg'></img></p>","null","","1551145495191","4","","","","","",""
"null","","html-keyboard-response","468","2184128","0.0-8.0-0.0-5.8","39","<p><img class= 'stimulus' src='images/baseline/pexels-photo-894312.jpeg'></img></p>","null","","1551145495289","","","","","","",""
"null","","html-keyboard-response","469","2184229","0.0-8.0-0.0-6.8","39","<p><img class= 'stimulus' src='images/baseline/building5.jpg'></img></p>","null","","1551145495390","6","","","","","",""
"null","","html-keyboard-response","470","2184328","0.0-8.0-0.0-7.8","39","<p><img class= 'stimulus' src='images/baseline/Bahia_Onelli_Parque_Nacional_Los_Glaciares_Patagonia_Argentina_Luca_Galuzzi_2005.jpg'></img></p>","null","","1551145495490","","","","","","",""
"null","","html-keyboard-response","471","2184428","0.0-8.0-0.0-8.8","39","<p><img class= 'stimulus' src='images/baseline/05139v.jpg'></img></p>","null","","1551145495590","8","","","","","",""
"null","","html-keyboard-response","472","2184528","0.0-8.0-0.0-9.8","39","<p><img class= 'stimulus' src='images/baseline/cranes 1.jpg'></img></p>","null","","1551145495690","","","","","","",""
"null","","html-keyboard-response","473","2184629","0.0-8.0-0.0-10.8","39","<p><img class= 'stimulus' src='images/baseline/05255v.jpg'></img></p>","null","","1551145495790","","","","","","",""
"null","","html-keyboard-response","474","2184729","0.0-8.0-0.0-11.8","39","<p><img class= 'stimulus' src='images/baseline/field 4.jpg'></img></p>","null","","1551145495890","","","","","","",""
"null","","html-keyboard-response","475","2184828","0.0-8.0-0.0-12.8","39","<p><img class= 'stimulus' src='images/target/pexels-photo-210683.jpeg'></img></p>","null","","1551145495991","12","","","","","",""
"null","","html-keyboard-response","476","2184928","0.0-8.0-0.0-13.8","39","<p><img class= 'stimulus' src='images/baseline/03162v.jpg'></img></p>","null","","1551145496091","","","","","","",""
"null","","html-keyboard-response","477","2185028","0.0-8.0-0.0-14.8","39","<p><img class= 'stimulus' src='images/baseline/pexels-photo-568236.jpeg'></img></p>","null","","1551145496191","14","","","","","",""
"null","","html-keyboard-response","478","2185129","0.0-8.0-0.0-15.8","39","<p><img class= 'stimulus' src='images/baseline/foreclosed_home.jpg'></img></p>","null","","1551145496291","","","","","","",""
"null","","html-keyboard-response","479","2185228","0.0-8.0-0.0-16.8","39","<p><img class= 'stimulus' src='images/baseline/Street 2.jpg'></img></p>","null","","1551145496389","","","","","","",""
"null","","html-keyboard-response","480","2185345","0.0-8.0-0.0-17.8","39","<p><img class= 'stimulus' src='images/baseline/04014v.jpg'></img></p>","null","","1551145496491","","","","","","",""
"598.4000000022352","","html-button-response","481","2186949","0.0-8.0-0.0-18.8","39","<div class = ""response_question"">WAS THE IMAGE ROTATED...</div>","","1","","","4","8","bas","right","test","false"
"814.1999999932013","","html-button-response","482","2187766","0.0-8.0-0.0-0.9","39","","","0","","","","","","","",""
"null","","html-keyboard-response","483","2187845","0.0-8.0-0.0-1.9","39","<p><img class= 'stimulus' src='images/baseline/05279v.jpg'></img></p>","null","","1551145499006","","","","","","",""
"null","","html-keyboard-response","484","2187946","0.0-8.0-0.0-2.9","39","<p><img class= 'stimulus' src='images/baseline/pexels-photo-280222.jpeg'></img></p>","null","","1551145499107","","","","","","",""
"null","","html-keyboard-response","485","2188046","0.0-8.0-0.0-3.9","39","<p><img class= 'stimulus' src='images/baseline/05167v.jpg'></img></p>","null","","1551145499207","","","","","","",""
"null","","html-keyboard-response","486","2188146","0.0-8.0-0.0-4.9","39","<p><img class= 'stimulus' src='images/negative/Shark 4.jpg'></img></p>","null","","1551145499307","4","","","","","",""
"null","","html-keyboard-response","487","2188244","0.0-8.0-0.0-5.9","39","<p><img class= 'stimulus' src='images/baseline/04021v.jpg'></img></p>","null","","1551145499406","","","","","","",""
"null","","html-keyboard-response","488","2188346","0.0-8.0-0.0-6.9","39","<p><img class= 'stimulus left-rotate' src='images/target/adventure-desert-landscape-6778.jpg'></img></p>","null","","1551145499507","6","","","","","",""
"null","","html-keyboard-response","489","2188446","0.0-8.0-0.0-7.9","39","<p><img class= 'stimulus' src='images/baseline/03201v.jpg'></img></p>","null","","1551145499607","","","","","","",""
"null","","html-keyboard-response","490","2188545","0.0-8.0-0.0-8.9","39","<p><img class= 'stimulus' src='images/baseline/scenic-mountain-landscape.jpg'></img></p>","null","","1551145499707","8","","","","","",""
"null","","html-keyboard-response","491","2188644","0.0-8.0-0.0-9.9","39","<p><img class= 'stimulus' src='images/baseline/4k-wallpaper-agriculture-clouds-842711.jpg'></img></p>","null","","1551145499806","","","","","","",""
"null","","html-keyboard-response","492","2188745","0.0-8.0-0.0-10.9","39","<p><img class= 'stimulus' src='images/baseline/landscape14.jpg'></img></p>","null","","1551145499906","","","","","","",""
"null","","html-keyboard-response","493","2188845","0.0-8.0-0.0-11.9","39","<p><img class= 'stimulus' src='images/baseline/farmhouse11.jpg'></img></p>","null","","1551145500008","","","","","","",""
"null","","html-keyboard-response","494","2188945","0.0-8.0-0.0-12.9","39","<p><img class= 'stimulus' src='images/baseline/03112v.jpg'></img></p>","null","","1551145500108","12","","","","","",""
"null","","html-keyboard-response","495","2189045","0.0-8.0-0.0-13.9","39","<p><img class= 'stimulus' src='images/baseline/pexels-photo-541101.jpeg'></img></p>","null","","1551145500208","","","","","","",""
"null","","html-keyboard-response","496","2189145","0.0-8.0-0.0-14.9","39","<p><img class= 'stimulus' src='images/baseline/hills 4.jpg'></img></p>","null","","1551145500307","14","","","","","",""
"null","","html-keyboard-response","497","2189245","0.0-8.0-0.0-15.9","39","<p><img class= 'stimulus' src='images/baseline/05264v.jpg'></img></p>","null","","1551145500407","","","","","","",""
"null","","html-keyboard-response","498","2189344","0.0-8.0-0.0-16.9","39","<p><img class= 'stimulus' src='images/baseline/pexels-photo-1840893.jpeg'></img></p>","null","","1551145500507","","","","","","",""
"null","","html-keyboard-response","499","2189462","0.0-8.0-0.0-17.9","39","<p><img class= 'stimulus' src='images/baseline/Sunset 6.jpg'></img></p>","null","","1551145500608","","","","","","",""
"1714.2999999923632","","html-button-response","500","2192181","0.0-8.0-0.0-18.9","39","<div class = ""response_question"">WAS THE IMAGE ROTATED...</div>","","5","","","4","2","neg","left","test","false"
"565.4999999967404","","html-button-response","501","2192749","0.0-8.0-0.0-0.10","39","","","0","","","","","","","",""
"null","","html-keyboard-response","502","2192829","0.0-8.0-0.0-1.10","39","<p><img class= 'stimulus' src='images/baseline/04098v.jpg'></img></p>","null","","1551145503991","","","","","","",""
"null","","html-keyboard-response","503","2192936","0.0-8.0-0.0-2.10","39","<p><img class= 'stimulus' src='images/baseline/hiking-trail.jpg'></img></p>","null","","1551145504090","","","","","","",""
"null","","html-keyboard-response","504","2193037","0.0-8.0-0.0-3.10","39","<p><img class= 'stimulus' src='images/baseline/Lake 8.jpg'></img></p>","null","","1551145504197","","","","","","",""
