"rt","responses","trial_type","trial_index","time_elapsed","internal_node_id","participant_id","stimulus","key_press","button_pressed","stim_onset","sequence_position","distractor_position","target_lag","distractor_type","target_orientation","phase","correct"
"16791.09999999946","{""Q0"":""05""}","survey-text","0","16794","0.0-0.0","05","","","","","","","","","","",""
"1499505.8000000007","","html-keyboard-response","1","1516309","0.0-1.0","05","Welcome to the experiment.","67","","","","","","","","",""
"16861.0000000007","","html-button-response","2","1533176","0.0-2.0","05","<p>Several images will be presented sequentially.        Each image will only be on the screen for about 100 milliseconds.</p>        <p> One of the images may be rotated 90 degrees right or left.        Watch for this image and remember if it is rotated right or left.</p>               <p>Images of people and animals will appear, and sometimes they will be unpleasant.        These will never be the rotated target image.</p>","","0","","","","","","","",""
"2198.1000000012573","","html-button-response","3","1535376","0.0-3.0","05","<p><img class=""stimulus left-rotate"" src=""images/target/landscape32.jpg""></img></p><p>This is an example of an image rotated to the left.</p>","","0","","","","","","","",""
"1254.600000000326","","html-button-response","4","1536631","0.0-4.0","05","<p><img class=""stimulus"" src=""images/target/pexels-photo-1123982.jpeg""></img></p><p>This is an example of an image rotated to the right.</p>","","0","","","","","","","",""
"6335.199999999488","","html-button-response","5","1542968","0.0-5.0","05","<p>We will now begin a short practice session.</p>         <p>A + symbol will appear in the middle of the screen. Please fix your gaze on the center of the +, and then click the mouse button to begin the image sequence.</p>         <p>Please avoid blinking or eye movements while the images are on the screen.</p>        <p>The image sequence will start relatively slow. After a few sequences, it will speed up.</p>","","0","","","","","","","",""
"7198.699999999022","","html-button-response","6","1550168","0.0-6.0-0.0","05","","","0","","","","","","","",""
"null","","html-keyboard-response","7","1550345","0.0-6.0-1.0","05","<p><img class= 'stimulus' src='images/baseline/building3.jpg'></img></p>","null","","1549589116671","","","","","","",""
"null","","html-keyboard-response","8","1550546","0.0-6.0-2.0","05","<p><img class= 'stimulus' src='images/baseline/03066v.jpg'></img></p>","null","","1549589116870","","","","","","",""
"null","","html-keyboard-response","9","1550745","0.0-6.0-3.0","05","<p><img class= 'stimulus' src='images/baseline/02945v.jpg'></img></p>","null","","1549589117070","","","","","","",""
"null","","html-keyboard-response","10","1550945","0.0-6.0-4.0","05","<p><img class= 'stimulus' src='images/baseline/house7.jpg'></img></p>","null","","1549589117271","4","","","","","",""
"null","","html-keyboard-response","11","1551146","0.0-6.0-5.0","05","<p><img class= 'stimulus' src='images/baseline/landscape7.jpg'></img></p>","null","","1549589117470","","","","","","",""
"null","","html-keyboard-response","12","1551346","0.0-6.0-6.0","05","<p><img class= 'stimulus left-rotate' src='images/target/tree1.jpg'></img></p>","null","","1549589117671","6","","","","","",""
"null","","html-keyboard-response","13","1551546","0.0-6.0-7.0","05","<p><img class= 'stimulus' src='images/baseline/04063v.jpg'></img></p>","null","","1549589117871","","","","","","",""
"null","","html-keyboard-response","14","1551748","0.0-6.0-8.0","05","<p><img class= 'stimulus' src='images/baseline/Waterfall 1.jpg'></img></p>","null","","1549589118071","8","","","","","",""
"null","","html-keyboard-response","15","1551946","0.0-6.0-9.0","05","<p><img class= 'stimulus' src='images/baseline/05186v.jpg'></img></p>","null","","1549589118273","","","","","","",""
"null","","html-keyboard-response","16","1552147","0.0-6.0-10.0","05","<p><img class= 'stimulus' src='images/baseline/03148v.jpg'></img></p>","null","","1549589118473","","","","","","",""
"null","","html-keyboard-response","17","1552348","0.0-6.0-11.0","05","<p><img class= 'stimulus' src='images/baseline/Lake 4.jpg'></img></p>","null","","1549589118673","","","","","","",""
"null","","html-keyboard-response","18","1552549","0.0-6.0-12.0","05","<p><img class= 'stimulus' src='images/baseline/05247v.jpg'></img></p>","null","","1549589118874","12","","","","","",""
"null","","html-keyboard-response","19","1552748","0.0-6.0-13.0","05","<p><img class= 'stimulus' src='images/baseline/03045v.jpg'></img></p>","null","","1549589119075","","","","","","",""
"null","","html-keyboard-response","20","1552949","0.0-6.0-14.0","05","<p><img class= 'stimulus' src='images/baseline/02960v.jpg'></img></p>","null","","1549589119273","14","","","","","",""
"null","","html-keyboard-response","21","1553148","0.0-6.0-15.0","05","<p><img class= 'stimulus' src='images/baseline/05139v.jpg'></img></p>","null","","1549589119474","","","","","","",""
"null","","html-keyboard-response","22","1553349","0.0-6.0-16.0","05","<p><img class= 'stimulus' src='images/baseline/04222v.jpg'></img></p>","null","","1549589119674","","","","","","",""
"null","","html-keyboard-response","23","1553566","0.0-6.0-17.0","05","<p><img class= 'stimulus' src='images/baseline/pexels-photo-894312.jpeg'></img></p>","null","","1549589119875","","","","","","",""
"6142.100000000792","","html-button-response","24","1560713","0.0-6.0-18.0","05","<div class = ""response_question"">WAS THE IMAGE ROTATED...</div>","","2","","","4","2","bas","left","practice","false"
"5350.0999999996275","","html-button-response","25","1566065","0.0-6.0-0.1","05","","","0","","","","","","","",""
"null","","html-keyboard-response","26","1566248","0.0-6.0-1.1","05","<p><img class= 'stimulus' src='images/baseline/04162v.jpg'></img></p>","null","","1549589132574","","","","","","",""
"null","","html-keyboard-response","27","1566449","0.0-6.0-2.1","05","<p><img class= 'stimulus' src='images/baseline/lone-old-cottonwood-tree.jpg'></img></p>","null","","1549589132773","","","","","","",""
"null","","html-keyboard-response","28","1566648","0.0-6.0-3.1","05","<p><img class= 'stimulus' src='images/baseline/agriculture-bright-clouds-440731.jpg'></img></p>","null","","1549589132975","","","","","","",""
"null","","html-keyboard-response","29","1566849","0.0-6.0-4.1","05","<p><img class= 'stimulus' src='images/baseline/bird-flying-at-sunset.jpg'></img></p>","null","","1549589133174","4","","","","","",""
"null","","html-keyboard-response","30","1567048","0.0-6.0-5.1","05","<p><img class= 'stimulus' src='images/baseline/04196v.jpg'></img></p>","null","","1549589133375","","","","","","",""
"null","","html-keyboard-response","31","1567248","0.0-6.0-6.1","05","<p><img class= 'stimulus' src='images/baseline/house1.jpg'></img></p>","null","","1549589133574","6","","","","","",""
"null","","html-keyboard-response","32","1567450","0.0-6.0-7.1","05","<p><img class= 'stimulus' src='images/baseline/05292v.jpg'></img></p>","null","","1549589133773","","","","","","",""
"null","","html-keyboard-response","33","1567648","0.0-6.0-8.1","05","<p><img class= 'stimulus' src='images/baseline/landscape15.jpg'></img></p>","null","","1549589133974","8","","","","","",""
"null","","html-keyboard-response","34","1567848","0.0-6.0-9.1","05","<p><img class= 'stimulus' src='images/baseline/tennis-court-net-buried-in-snow.jpg'></img></p>","null","","1549589134175","","","","","","",""
"null","","html-keyboard-response","35","1568049","0.0-6.0-10.1","05","<p><img class= 'stimulus' src='images/baseline/cranes 1.jpg'></img></p>","null","","1549589134374","","","","","","",""
"null","","html-keyboard-response","36","1568250","0.0-6.0-11.1","05","<p><img class= 'stimulus' src='images/baseline/landscape38.jpg'></img></p>","null","","1549589134575","","","","","","",""
"null","","html-keyboard-response","37","1568449","0.0-6.0-12.1","05","<p><img class= 'stimulus' src='images/target/tree-740901_1280.jpg'></img></p>","null","","1549589134775","12","","","","","",""
"null","","html-keyboard-response","38","1568650","0.0-6.0-13.1","05","<p><img class= 'stimulus' src='images/baseline/road.jpg'></img></p>","null","","1549589134975","","","","","","",""
"null","","html-keyboard-response","39","1568850","0.0-6.0-14.1","05","<p><img class= 'stimulus' src='images/baseline/kokkari-1523011968Xfr.jpg'></img></p>","null","","1549589135175","14","","","","","",""
"null","","html-keyboard-response","40","1569049","0.0-6.0-15.1","05","<p><img class= 'stimulus' src='images/baseline/building4.jpg'></img></p>","null","","1549589135375","","","","","","",""
"null","","html-keyboard-response","41","1569249","0.0-6.0-16.1","05","<p><img class= 'stimulus' src='images/baseline/trees 23.jpg'></img></p>","null","","1549589135575","","","","","","",""
"null","","html-keyboard-response","42","1569465","0.0-6.0-17.1","05","<p><img class= 'stimulus' src='images/baseline/building5.jpg'></img></p>","null","","1549589135774","","","","","","",""
"6395.500000000466","","html-button-response","43","1576865","0.0-6.0-18.1","05","<div class = ""response_question"">WAS THE IMAGE ROTATED...</div>","","3","","","4","8","bas","right","practice","true"
"9854.500000001164","","html-button-response","44","1586721","0.0-6.0-0.2","05","","","0","","","","","","","",""
"null","","html-keyboard-response","45","1586898","0.0-6.0-1.2","05","<p><img class= 'stimulus' src='images/baseline/landscape23.jpg'></img></p>","null","","1549589153223","","","","","","",""
"null","","html-keyboard-response","46","1587098","0.0-6.0-2.2","05","<p><img class= 'stimulus' src='images/baseline/cyrillic.jpg'></img></p>","null","","1549589153424","","","","","","",""
"null","","html-keyboard-response","47","1587297","0.0-6.0-3.2","05","<p><img class= 'stimulus' src='images/baseline/town-square-in-wroclaw-1539098440MZy.jpg'></img></p>","null","","1549589153623","","","","","","",""
"null","","html-keyboard-response","48","1587497","0.0-6.0-4.2","05","<p><img class= 'stimulus' src='images/baseline/03201v.jpg'></img></p>","null","","1549589153823","4","","","","","",""
"null","","html-keyboard-response","49","1587697","0.0-6.0-5.2","05","<p><img class= 'stimulus' src='images/baseline/04117v.jpg'></img></p>","null","","1549589154023","","","","","","",""
"null","","html-keyboard-response","50","1587897","0.0-6.0-6.2","05","<p><img class= 'stimulus' src='images/baseline/04010v.jpg'></img></p>","null","","1549589154224","6","","","","","",""
"null","","html-keyboard-response","51","1588097","0.0-6.0-7.2","05","<p><img class= 'stimulus' src='images/baseline/Freudenberg_sg_Switzerland.jpg'></img></p>","null","","1549589154423","","","","","","",""
"null","","html-keyboard-response","52","1588298","0.0-6.0-8.2","05","<p><img class= 'stimulus left-rotate' src='images/target/buildin.png'></img></p>","null","","1549589154623","8","","","","","",""
"null","","html-keyboard-response","53","1588499","0.0-6.0-9.2","05","<p><img class= 'stimulus' src='images/baseline/05280v.jpg'></img></p>","null","","1549589154823","","","","","","",""
"null","","html-keyboard-response","54","1588698","0.0-6.0-10.2","05","<p><img class= 'stimulus' src='images/baseline/04062v.jpg'></img></p>","null","","1549589155023","","","","","","",""
"null","","html-keyboard-response","55","1588897","0.0-6.0-11.2","05","<p><img class= 'stimulus' src='images/baseline/architecture-1314416_1920.jpg'></img></p>","null","","1549589155224","","","","","","",""
"null","","html-keyboard-response","56","1589097","0.0-6.0-12.2","05","<p><img class= 'stimulus' src='images/baseline/agriculture-cereal-clouds-175389.jpg'></img></p>","null","","1549589155423","12","","","","","",""
"null","","html-keyboard-response","57","1589298","0.0-6.0-13.2","05","<p><img class= 'stimulus' src='images/baseline/meadow-with-mountain-in-background.jpg'></img></p>","null","","1549589155623","","","","","","",""
"null","","html-keyboard-response","58","1589497","0.0-6.0-14.2","05","<p><img class= 'stimulus' src='images/baseline/Lake 9.jpg'></img></p>","null","","1549589155822","14","","","","","",""
"null","","html-keyboard-response","59","1589696","0.0-6.0-15.2","05","<p><img class= 'stimulus' src='images/baseline/04179v.jpg'></img></p>","null","","1549589156023","","","","","","",""
"null","","html-keyboard-response","60","1589897","0.0-6.0-16.2","05","<p><img class= 'stimulus' src='images/baseline/landscape35.jpg'></img></p>","null","","1549589156223","","","","","","",""
"null","","html-keyboard-response","61","1590113","0.0-6.0-17.2","05","<p><img class= 'stimulus' src='images/baseline/03075v.jpg'></img></p>","null","","1549589156422","","","","","","",""
"668.2999999993481","","html-button-response","62","1591793","0.0-6.0-18.2","05","<div class = ""response_question"">WAS THE IMAGE ROTATED...</div>","","0","","","6","2","bas","left","practice","true"
"20502.299999998184","","html-button-response","63","1612296","0.0-6.0-0.3","05","","","0","","","","","","","",""
"null","","html-keyboard-response","64","1612480","0.0-6.0-1.3","05","<p><img class= 'stimulus' src='images/baseline/landscape3.jpg'></img></p>","null","","1549589178806","","","","","","",""
"null","","html-keyboard-response","65","1612681","0.0-6.0-2.3","05","<p><img class= 'stimulus' src='images/baseline/landscape40.jpg'></img></p>","null","","1549589179007","","","","","","",""
"null","","html-keyboard-response","66","1612880","0.0-6.0-3.3","05","<p><img class= 'stimulus' src='images/baseline/landscape2.jpg'></img></p>","null","","1549589179207","","","","","","",""
"null","","html-keyboard-response","67","1613080","0.0-6.0-4.3","05","<p><img class= 'stimulus' src='images/baseline/04098v.jpg'></img></p>","null","","1549589179406","4","","","","","",""
"null","","html-keyboard-response","68","1613280","0.0-6.0-5.3","05","<p><img class= 'stimulus' src='images/baseline/Bahia_Onelli_Parque_Nacional_Los_Glaciares_Patagonia_Argentina_Luca_Galuzzi_2005.jpg'></img></p>","null","","1549589179606","","","","","","",""
"null","","html-keyboard-response","69","1613481","0.0-6.0-6.3","05","<p><img class= 'stimulus' src='images/baseline/Desert_View_Indian_Wells.jpg'></img></p>","null","","1549589179807","6","","","","","",""
"null","","html-keyboard-response","70","1613681","0.0-6.0-7.3","05","<p><img class= 'stimulus' src='images/baseline/Cold 7.jpg'></img></p>","null","","1549589180006","","","","","","",""
"null","","html-keyboard-response","71","1613882","0.0-6.0-8.3","05","<p><img class= 'stimulus' src='images/baseline/Skijump 1.jpg'></img></p>","null","","1549589180207","8","","","","","",""
"null","","html-keyboard-response","72","1614081","0.0-6.0-9.3","05","<p><img class= 'stimulus' src='images/baseline/04130v.jpg'></img></p>","null","","1549589180407","","","","","","",""
"null","","html-keyboard-response","73","1614281","0.0-6.0-10.3","05","<p><img class= 'stimulus' src='images/baseline/hills 1.jpg'></img></p>","null","","1549589180609","","","","","","",""
"null","","html-keyboard-response","74","1614483","0.0-6.0-11.3","05","<p><img class= 'stimulus' src='images/baseline/05242v.jpg'></img></p>","null","","1549589180807","","","","","","",""
"null","","html-keyboard-response","75","1614684","0.0-6.0-12.3","05","<p><img class= 'stimulus' src='images/baseline/Happy pose 3.jpg'></img></p>","null","","1549589181008","12","","","","","",""
"null","","html-keyboard-response","76","1614883","0.0-6.0-13.3","05","<p><img class= 'stimulus' src='images/baseline/autumn-in-red-rocks-park.jpg'></img></p>","null","","1549589181209","","","","","","",""
"null","","html-keyboard-response","77","1615083","0.0-6.0-14.3","05","<p><img class= 'stimulus' src='images/target/1937-single-tree-at-the-top-of-stone-mountain-pv.jpg'></img></p>","null","","1549589181409","14","","","","","",""
"null","","html-keyboard-response","78","1615282","0.0-6.0-15.3","05","<p><img class= 'stimulus' src='images/baseline/horse_statue.jpg'></img></p>","null","","1549589181607","","","","","","",""
"null","","html-keyboard-response","79","1615483","0.0-6.0-16.3","05","<p><img class= 'stimulus' src='images/baseline/05167v.jpg'></img></p>","null","","1549589181808","","","","","","",""
"null","","html-keyboard-response","80","1615699","0.0-6.0-17.3","05","<p><img class= 'stimulus' src='images/baseline/pexels-photo-427676.jpeg'></img></p>","null","","1549589182008","","","","","","",""
"1665.7999999988824","","html-button-response","81","1618369","0.0-6.0-18.3","05","<div class = ""response_question"">WAS THE IMAGE ROTATED...</div>","","3","","","6","8","bas","right","practice","true"
"3214.200000000419","","html-button-response","82","1621585","0.0-6.0-0.4","05","","","0","","","","","","","",""
"null","","html-keyboard-response","83","1621733","0.0-6.0-1.4","05","<p><img class= 'stimulus' src='images/baseline/Road 1.jpg'></img></p>","null","","1549589188107","","","","","","",""
"null","","html-keyboard-response","84","1621882","0.0-6.0-2.4","05","<p><img class= 'stimulus' src='images/baseline/pexels-photo-440731.jpeg'></img></p>","null","","1549589188256","","","","","","",""
"null","","html-keyboard-response","85","1622032","0.0-6.0-3.4","05","<p><img class= 'stimulus' src='images/baseline/landscape31.jpg'></img></p>","null","","1549589188406","","","","","","",""
"null","","html-keyboard-response","86","1622181","0.0-6.0-4.4","05","<p><img class= 'stimulus' src='images/baseline/Street 1.jpg'></img></p>","null","","1549589188557","4","","","","","",""
"null","","html-keyboard-response","87","1622331","0.0-6.0-5.4","05","<p><img class= 'stimulus' src='images/baseline/building6.jpg'></img></p>","null","","1549589188707","","","","","","",""
"null","","html-keyboard-response","88","1622481","0.0-6.0-6.4","05","<p><img class= 'stimulus' src='images/baseline/landscape4.jpg'></img></p>","null","","1549589188858","6","","","","","",""
"null","","html-keyboard-response","89","1622631","0.0-6.0-7.4","05","<p><img class= 'stimulus' src='images/baseline/pexels-photo-210617.jpeg'></img></p>","null","","1549589189006","","","","","","",""
"null","","html-keyboard-response","90","1622781","0.0-6.0-8.4","05","<p><img class= 'stimulus' src='images/baseline/landscape13.jpg'></img></p>","null","","1549589189156","8","","","","","",""
"null","","html-keyboard-response","91","1622930","0.0-6.0-9.4","05","<p><img class= 'stimulus' src='images/baseline/Street 2.jpg'></img></p>","null","","1549589189306","","","","","","",""
"null","","html-keyboard-response","92","1623080","0.0-6.0-10.4","05","<p><img class= 'stimulus' src='images/baseline/05179v.jpg'></img></p>","null","","1549589189457","","","","","","",""
"null","","html-keyboard-response","93","1623231","0.0-6.0-11.4","05","<p><img class= 'stimulus' src='images/baseline/04040v.jpg'></img></p>","null","","1549589189607","","","","","","",""
"null","","html-keyboard-response","94","1623380","0.0-6.0-12.4","05","<p><img class= 'stimulus' src='images/baseline/02988v.jpg'></img></p>","null","","1549589189756","12","","","","","",""
"null","","html-keyboard-response","95","1623531","0.0-6.0-13.4","05","<p><img class= 'stimulus' src='images/baseline/geese-flying-over-lake-at-dusk.jpg'></img></p>","null","","1549589189905","","","","","","",""
"null","","html-keyboard-response","96","1623681","0.0-6.0-14.4","05","<p><img class= 'stimulus left-rotate' src='images/target/sand-3339890_640.jpg'></img></p>","null","","1549589190057","14","","","","","",""
"null","","html-keyboard-response","97","1623830","0.0-6.0-15.4","05","<p><img class= 'stimulus' src='images/baseline/pexels-photo-59321.jpeg'></img></p>","null","","1549589190206","","","","","","",""
"null","","html-keyboard-response","98","1623980","0.0-6.0-16.4","05","<p><img class= 'stimulus' src='images/baseline/05279v.jpg'></img></p>","null","","1549589190356","","","","","","",""
"null","","html-keyboard-response","99","1624147","0.0-6.0-17.4","05","<p><img class= 'stimulus' src='images/baseline/04201v.jpg'></img></p>","null","","1549589190507","","","","","","",""
"620.0000000006985","","html-button-response","100","1625785","0.0-6.0-18.4","05","<div class = ""response_question"">WAS THE IMAGE ROTATED...</div>","","0","","","6","8","bas","left","practice","true"
"2086.4000000001397","","html-button-response","101","1627873","0.0-6.0-0.5","05","","","0","","","","","","","",""
"null","","html-keyboard-response","102","1627998","0.0-6.0-1.5","05","<p><img class= 'stimulus' src='images/baseline/landscape37.jpg'></img></p>","null","","1549589194372","","","","","","",""
"null","","html-keyboard-response","103","1628148","0.0-6.0-2.5","05","<p><img class= 'stimulus' src='images/baseline/03056v.jpg'></img></p>","null","","1549589194522","","","","","","",""
"null","","html-keyboard-response","104","1628297","0.0-6.0-3.5","05","<p><img class= 'stimulus' src='images/baseline/lookout_tower.jpg'></img></p>","null","","1549589194673","","","","","","",""
"null","","html-keyboard-response","105","1628447","0.0-6.0-4.5","05","<p><img class= 'stimulus' src='images/baseline/farmhouse6.jpg'></img></p>","null","","1549589194823","4","","","","","",""
"null","","html-keyboard-response","106","1628597","0.0-6.0-5.5","05","<p><img class= 'stimulus' src='images/baseline/Paysage_karabagh_02.jpg'></img></p>","null","","1549589194973","","","","","","",""
"null","","html-keyboard-response","107","1628747","0.0-6.0-6.5","05","<p><img class= 'stimulus' src='images/baseline/04060v.jpg'></img></p>","null","","1549589195123","6","","","","","",""
"null","","html-keyboard-response","108","1628897","0.0-6.0-7.5","05","<p><img class= 'stimulus' src='images/baseline/pexels-photo-808465.jpeg'></img></p>","null","","1549589195272","","","","","","",""
"null","","html-keyboard-response","109","1629048","0.0-6.0-8.5","05","<p><img class= 'stimulus' src='images/baseline/02977v.jpg'></img></p>","null","","1549589195423","8","","","","","",""
"null","","html-keyboard-response","110","1629198","0.0-6.0-9.5","05","<p><img class= 'stimulus' src='images/baseline/farmhouse9.jpg'></img></p>","null","","1549589195573","","","","","","",""
"null","","html-keyboard-response","111","1629348","0.0-6.0-10.5","05","<p><img class= 'stimulus' src='images/baseline/Path 1.jpg'></img></p>","null","","1549589195722","","","","","","",""
"null","","html-keyboard-response","112","1629497","0.0-6.0-11.5","05","<p><img class= 'stimulus' src='images/baseline/05240v.jpg'></img></p>","null","","1549589195873","","","","","","",""
"null","","html-keyboard-response","113","1629648","0.0-6.0-12.5","05","<p><img class= 'stimulus left-rotate' src='images/target/lookout_tower.jpg'></img></p>","null","","1549589196023","12","","","","","",""
"null","","html-keyboard-response","114","1629797","0.0-6.0-13.5","05","<p><img class= 'stimulus' src='images/baseline/dirt-road-or-trail-through-park.jpg'></img></p>","null","","1549589196173","","","","","","",""
"null","","html-keyboard-response","115","1629947","0.0-6.0-14.5","05","<p><img class= 'stimulus' src='images/baseline/pexels-photo-414491.jpeg'></img></p>","null","","1549589196322","14","","","","","",""
"null","","html-keyboard-response","116","1630097","0.0-6.0-15.5","05","<p><img class= 'stimulus' src='images/baseline/pexels-photo-1840893.jpeg'></img></p>","null","","1549589196472","","","","","","",""
"null","","html-keyboard-response","117","1630247","0.0-6.0-16.5","05","<p><img class= 'stimulus' src='images/baseline/farmhouse11.jpg'></img></p>","null","","1549589196623","","","","","","",""
"null","","html-keyboard-response","118","1630414","0.0-6.0-17.5","05","<p><img class= 'stimulus' src='images/baseline/pexels-photo-750108.jpeg'></img></p>","null","","1549589196773","","","","","","",""
"567.1999999994878","","html-button-response","119","1631985","0.0-6.0-18.5","05","<div class = ""response_question"">WAS THE IMAGE ROTATED...</div>","","0","","","4","8","bas","left","practice","true"
"8766.600000000792","","html-button-response","120","1640753","0.0-6.0-0.6","05","","","0","","","","","","","",""
"null","","html-keyboard-response","121","1640896","0.0-6.0-1.6","05","<p><img class= 'stimulus' src='images/baseline/Aletschgletscher-Eggishorn.jpg'></img></p>","null","","1549589207272","","","","","","",""
"null","","html-keyboard-response","122","1641047","0.0-6.0-2.6","05","<p><img class= 'stimulus' src='images/baseline/04085v.jpg'></img></p>","null","","1549589207423","","","","","","",""
"null","","html-keyboard-response","123","1641197","0.0-6.0-3.6","05","<p><img class= 'stimulus' src='images/baseline/03212v.jpg'></img></p>","null","","1549589207572","","","","","","",""
"null","","html-keyboard-response","124","1641348","0.0-6.0-4.6","05","<p><img class= 'stimulus' src='images/baseline/Street 5.jpg'></img></p>","null","","1549589207723","4","","","","","",""
"null","","html-keyboard-response","125","1641498","0.0-6.0-5.6","05","<p><img class= 'stimulus' src='images/baseline/Beach 8.jpg'></img></p>","null","","1549589207872","","","","","","",""
"null","","html-keyboard-response","126","1641646","0.0-6.0-6.6","05","<p><img class= 'stimulus' src='images/baseline/Street 3.jpg'></img></p>","null","","1549589208022","6","","","","","",""
"null","","html-keyboard-response","127","1641797","0.0-6.0-7.6","05","<p><img class= 'stimulus' src='images/baseline/pexels-photo-1287089.jpeg'></img></p>","null","","1549589208173","","","","","","",""
"null","","html-keyboard-response","128","1641946","0.0-6.0-8.6","05","<p><img class= 'stimulus' src='images/target/tree-3563269_640.jpg'></img></p>","null","","1549589208322","8","","","","","",""
"null","","html-keyboard-response","129","1642097","0.0-6.0-9.6","05","<p><img class= 'stimulus' src='images/baseline/Sailing 3.jpg'></img></p>","null","","1549589208473","","","","","","",""
"null","","html-keyboard-response","130","1642247","0.0-6.0-10.6","05","<p><img class= 'stimulus' src='images/baseline/pexels-photo-1261728.jpeg'></img></p>","null","","1549589208621","","","","","","",""
"null","","html-keyboard-response","131","1642397","0.0-6.0-11.6","05","<p><img class= 'stimulus' src='images/baseline/Lake 7.jpg'></img></p>","null","","1549589208772","","","","","","",""
"null","","html-keyboard-response","132","1642548","0.0-6.0-12.6","05","<p><img class= 'stimulus' src='images/baseline/red-rocks-park.jpg'></img></p>","null","","1549589208922","12","","","","","",""
"null","","html-keyboard-response","133","1642696","0.0-6.0-13.6","05","<p><img class= 'stimulus' src='images/baseline/03041v.jpg'></img></p>","null","","1549589209072","","","","","","",""
"null","","html-keyboard-response","134","1642847","0.0-6.0-14.6","05","<p><img class= 'stimulus' src='images/baseline/building12.jpg'></img></p>","null","","1549589209222","14","","","","","",""
"null","","html-keyboard-response","135","1642996","0.0-6.0-15.6","05","<p><img class= 'stimulus' src='images/baseline/house11.jpg'></img></p>","null","","1549589209372","","","","","","",""
"null","","html-keyboard-response","136","1643147","0.0-6.0-16.6","05","<p><img class= 'stimulus' src='images/baseline/house6.jpg'></img></p>","null","","1549589209523","","","","","","",""
"null","","html-keyboard-response","137","1643314","0.0-6.0-17.6","05","<p><img class= 'stimulus' src='images/baseline/pexels-photo-221125.jpeg'></img></p>","null","","1549589209672","","","","","","",""
"411","","html-button-response","138","1644730","0.0-6.0-18.6","05","<div class = ""response_question"">WAS THE IMAGE ROTATED...</div>","","3","","","6","2","bas","right","practice","true"
"6469.599999998463","","html-button-response","139","1651201","0.0-6.0-0.7","05","","","0","","","","","","","",""
"null","","html-keyboard-response","140","1651330","0.0-6.0-1.7","05","<p><img class= 'stimulus' src='images/baseline/04031v.jpg'></img></p>","null","","1549589217706","","","","","","",""
"null","","html-keyboard-response","141","1651480","0.0-6.0-2.7","05","<p><img class= 'stimulus' src='images/baseline/farmhouse4.jpg'></img></p>","null","","1549589217855","","","","","","",""
"null","","html-keyboard-response","142","1651630","0.0-6.0-3.7","05","<p><img class= 'stimulus' src='images/baseline/pexels-photo-541101.jpeg'></img></p>","null","","1549589218006","","","","","","",""
"null","","html-keyboard-response","143","1651781","0.0-6.0-4.7","05","<p><img class= 'stimulus' src='images/baseline/05145v.jpg'></img></p>","null","","1549589218156","4","","","","","",""
"null","","html-keyboard-response","144","1651930","0.0-6.0-5.7","05","<p><img class= 'stimulus' src='images/baseline/building8.jpg'></img></p>","null","","1549589218305","","","","","","",""
"null","","html-keyboard-response","145","1652081","0.0-6.0-6.7","05","<p><img class= 'stimulus' src='images/target/pexels-photo-1534411.jpeg'></img></p>","null","","1549589218456","6","","","","","",""
"null","","html-keyboard-response","146","1652230","0.0-6.0-7.7","05","<p><img class= 'stimulus' src='images/baseline/03217v.jpg'></img></p>","null","","1549589218607","","","","","","",""
"null","","html-keyboard-response","147","1652380","0.0-6.0-8.7","05","<p><img class= 'stimulus' src='images/baseline/05198v.jpg'></img></p>","null","","1549589218756","8","","","","","",""
"null","","html-keyboard-response","148","1652530","0.0-6.0-9.7","05","<p><img class= 'stimulus' src='images/baseline/church-silhouette-8712964986014Kb.jpg'></img></p>","null","","1549589218906","","","","","","",""
"null","","html-keyboard-response","149","1652680","0.0-6.0-10.7","05","<p><img class= 'stimulus' src='images/baseline/Sunset 4.jpg'></img></p>","null","","1549589219055","","","","","","",""
"null","","html-keyboard-response","150","1652830","0.0-6.0-11.7","05","<p><img class= 'stimulus' src='images/baseline/building9.jpg'></img></p>","null","","1549589219205","","","","","","",""
"null","","html-keyboard-response","151","1652981","0.0-6.0-12.7","05","<p><img class= 'stimulus' src='images/baseline/04284v.jpg'></img></p>","null","","1549589219356","12","","","","","",""
"null","","html-keyboard-response","152","1653131","0.0-6.0-13.7","05","<p><img class= 'stimulus' src='images/baseline/house3.jpg'></img></p>","null","","1549589219507","","","","","","",""
"null","","html-keyboard-response","153","1653280","0.0-6.0-14.7","05","<p><img class= 'stimulus' src='images/baseline/05264v.jpg'></img></p>","null","","1549589219657","14","","","","","",""
"null","","html-keyboard-response","154","1653431","0.0-6.0-15.7","05","<p><img class= 'stimulus' src='images/baseline/05158v.jpg'></img></p>","null","","1549589219806","","","","","","",""
"null","","html-keyboard-response","155","1653581","0.0-6.0-16.7","05","<p><img class= 'stimulus' src='images/baseline/valley 2.jpg'></img></p>","null","","1549589219957","","","","","","",""
"null","","html-keyboard-response","156","1653747","0.0-6.0-17.7","05","<p><img class= 'stimulus' src='images/baseline/field 4.jpg'></img></p>","null","","1549589220106","","","","","","",""
"538.3999999994412","","html-button-response","157","1655289","0.0-6.0-18.7","05","<div class = ""response_question"">WAS THE IMAGE ROTATED...</div>","","4","","","4","2","bas","right","practice","true"
"17758.10000000079","","html-button-response","158","1673047","0.0-6.0-0.8","05","","","0","","","","","","","",""
"null","","html-keyboard-response","159","1673129","0.0-6.0-1.8","05","<p><img class= 'stimulus' src='images/baseline/farmhouse8.jpg'></img></p>","null","","1549589239554","","","","","","",""
"null","","html-keyboard-response","160","1673228","0.0-6.0-2.8","05","<p><img class= 'stimulus' src='images/baseline/02971v.jpg'></img></p>","null","","1549589239653","","","","","","",""
"null","","html-keyboard-response","161","1673328","0.0-6.0-3.8","05","<p><img class= 'stimulus' src='images/baseline/Lake 14.jpg'></img></p>","null","","1549589239753","","","","","","",""
"null","","html-keyboard-response","162","1673428","0.0-6.0-4.8","05","<p><img class= 'stimulus' src='images/baseline/__08_-_ITALY_-_Forli_under_snow_-_winter_landscape_of_city_(christmas).jpg'></img></p>","null","","1549589239853","4","","","","","",""
"null","","html-keyboard-response","163","1673528","0.0-6.0-5.8","05","<p><img class= 'stimulus' src='images/baseline/snowy tree.jpg'></img></p>","null","","1549589239954","","","","","","",""
"null","","html-keyboard-response","164","1673629","0.0-6.0-6.8","05","<p><img class= 'stimulus' src='images/baseline/Peyto_Lake-Banff_NP-Canada.jpg'></img></p>","null","","1549589240055","6","","","","","",""
"null","","html-keyboard-response","165","1673728","0.0-6.0-7.8","05","<p><img class= 'stimulus' src='images/baseline/building_at_national_conservation.jpg'></img></p>","null","","1549589240153","","","","","","",""
"null","","html-keyboard-response","166","1673829","0.0-6.0-8.8","05","<p><img class= 'stimulus' src='images/baseline/landscape14.jpg'></img></p>","null","","1549589240254","8","","","","","",""
"null","","html-keyboard-response","167","1673929","0.0-6.0-9.8","05","<p><img class= 'stimulus' src='images/baseline/landscape34.jpg'></img></p>","null","","1549589240354","","","","","","",""
"null","","html-keyboard-response","168","1674028","0.0-6.0-10.8","05","<p><img class= 'stimulus' src='images/baseline/landscape12.jpg'></img></p>","null","","1549589240453","","","","","","",""
"null","","html-keyboard-response","169","1674129","0.0-6.0-11.8","05","<p><img class= 'stimulus' src='images/baseline/landscape39.jpg'></img></p>","null","","1549589240555","","","","","","",""
"null","","html-keyboard-response","170","1674227","0.0-6.0-12.8","05","<p><img class= 'stimulus left-rotate' src='images/target/9525-a-lonely-single-tree-in-a-field-pv.jpg'></img></p>","null","","1549589240654","12","","","","","",""
"null","","html-keyboard-response","171","1674328","0.0-6.0-13.8","05","<p><img class= 'stimulus' src='images/baseline/02962v.jpg'></img></p>","null","","1549589240754","","","","","","",""
"null","","html-keyboard-response","172","1674428","0.0-6.0-14.8","05","<p><img class= 'stimulus' src='images/baseline/Kocherbaumwald-01.jpg'></img></p>","null","","1549589240853","14","","","","","",""
"null","","html-keyboard-response","173","1674528","0.0-6.0-15.8","05","<p><img class= 'stimulus' src='images/baseline/Bridge 1.jpg'></img></p>","null","","1549589240954","","","","","","",""
"null","","html-keyboard-response","174","1674629","0.0-6.0-16.8","05","<p><img class= 'stimulus' src='images/baseline/Paysage_enneige_02.jpg'></img></p>","null","","1549589241054","","","","","","",""
"null","","html-keyboard-response","175","1674745","0.0-6.0-17.8","05","<p><img class= 'stimulus' src='images/baseline/05189v.jpg'></img></p>","null","","1549589241154","","","","","","",""
"835.2999999986496","","html-button-response","176","1676582","0.0-6.0-18.8","05","<div class = ""response_question"">WAS THE IMAGE ROTATED...</div>","","1","","","4","8","bas","left","practice","true"
"2190.8000000002794","","html-button-response","177","1678774","0.0-6.0-0.9","05","","","0","","","","","","","",""
"null","","html-keyboard-response","178","1678862","0.0-6.0-1.9","05","<p><img class= 'stimulus' src='images/baseline/Niinsaare_jarv.jpg'></img></p>","null","","1549589245287","","","","","","",""
"null","","html-keyboard-response","179","1678962","0.0-6.0-2.9","05","<p><img class= 'stimulus' src='images/baseline/landscape36.jpg'></img></p>","null","","1549589245388","","","","","","",""
"null","","html-keyboard-response","180","1679062","0.0-6.0-3.9","05","<p><img class= 'stimulus' src='images/baseline/foreclosed_home.jpg'></img></p>","null","","1549589245487","","","","","","",""
"null","","html-keyboard-response","181","1679163","0.0-6.0-4.9","05","<p><img class= 'stimulus' src='images/baseline/landscape1.jpg'></img></p>","null","","1549589245588","4","","","","","",""
"null","","html-keyboard-response","182","1679261","0.0-6.0-5.9","05","<p><img class= 'stimulus' src='images/baseline/04193v.jpg'></img></p>","null","","1549589245688","","","","","","",""
"null","","html-keyboard-response","183","1679361","0.0-6.0-6.9","05","<p><img class= 'stimulus left-rotate' src='images/target/specphotops-563427-unsplash.jpg'></img></p>","null","","1549589245788","6","","","","","",""
"null","","html-keyboard-response","184","1679462","0.0-6.0-7.9","05","<p><img class= 'stimulus' src='images/baseline/Dirt 2.jpg'></img></p>","null","","1549589245888","","","","","","",""
"null","","html-keyboard-response","185","1679563","0.0-6.0-8.9","05","<p><img class= 'stimulus' src='images/baseline/valley 1.jpg'></img></p>","null","","1549589245986","8","","","","","",""
"null","","html-keyboard-response","186","1679661","0.0-6.0-9.9","05","<p><img class= 'stimulus' src='images/baseline/house2.jpg'></img></p>","null","","1549589246087","","","","","","",""
"null","","html-keyboard-response","187","1679762","0.0-6.0-10.9","05","<p><img class= 'stimulus' src='images/baseline/farmhouse2.jpg'></img></p>","null","","1549589246187","","","","","","",""
"null","","html-keyboard-response","188","1679862","0.0-6.0-11.9","05","<p><img class= 'stimulus' src='images/baseline/Lake 16.jpg'></img></p>","null","","1549589246287","","","","","","",""
"null","","html-keyboard-response","189","1679962","0.0-6.0-12.9","05","<p><img class= 'stimulus' src='images/baseline/sun-through-winter-tree-branches1.jpg'></img></p>","null","","1549589246387","12","","","","","",""
"null","","html-keyboard-response","190","1680063","0.0-6.0-13.9","05","<p><img class= 'stimulus' src='images/baseline/Lake 8.jpg'></img></p>","null","","1549589246487","","","","","","",""
"null","","html-keyboard-response","191","1680161","0.0-6.0-14.9","05","<p><img class= 'stimulus' src='images/baseline/sunny-landscape-with-dry-brush-and-mountain-background.jpg'></img></p>","null","","1549589246587","14","","","","","",""
"null","","html-keyboard-response","192","1680263","0.0-6.0-15.9","05","<p><img class= 'stimulus' src='images/baseline/04014v.jpg'></img></p>","null","","1549589246688","","","","","","",""
"null","","html-keyboard-response","193","1680361","0.0-6.0-16.9","05","<p><img class= 'stimulus' src='images/baseline/04158v.jpg'></img></p>","null","","1549589246787","","","","","","",""
"null","","html-keyboard-response","194","1680478","0.0-6.0-17.9","05","<p><img class= 'stimulus' src='images/baseline/Nature 1.jpg'></img></p>","null","","1549589246888","","","","","","",""
"559.3999999999069","","html-button-response","195","1682047","0.0-6.0-18.9","05","<div class = ""response_question"">WAS THE IMAGE ROTATED...</div>","","1","","","4","2","bas","left","practice","true"
"1166.4000000001397","","html-button-response","196","1683215","0.0-6.0-0.10","05","","","0","","","","","","","",""
"null","","html-keyboard-response","197","1683296","0.0-6.0-1.10","05","<p><img class= 'stimulus' src='images/baseline/house8.jpg'></img></p>","null","","1549589249722","","","","","","",""
"null","","html-keyboard-response","198","1683395","0.0-6.0-2.10","05","<p><img class= 'stimulus' src='images/baseline/Lake 3.jpg'></img></p>","null","","1549589249820","","","","","","",""
"null","","html-keyboard-response","199","1683495","0.0-6.0-3.10","05","<p><img class= 'stimulus' src='images/baseline/farmhouse7.jpg'></img></p>","null","","1549589249921","","","","","","",""
"null","","html-keyboard-response","200","1683595","0.0-6.0-4.10","05","<p><img class= 'stimulus' src='images/baseline/Beach 2.jpg'></img></p>","null","","1549589250020","4","","","","","",""
"null","","html-keyboard-response","201","1683695","0.0-6.0-5.10","05","<p><img class= 'stimulus' src='images/baseline/pexels-photo-459203.jpeg'></img></p>","null","","1549589250120","","","","","","",""
"null","","html-keyboard-response","202","1683795","0.0-6.0-6.10","05","<p><img class= 'stimulus' src='images/baseline/landscape8.jpg'></img></p>","null","","1549589250220","6","","","","","",""
"null","","html-keyboard-response","203","1683895","0.0-6.0-7.10","05","<p><img class= 'stimulus' src='images/baseline/chicago-skyline-at-night-1476869511p8U.jpg'></img></p>","null","","1549589250321","","","","","","",""
"null","","html-keyboard-response","204","1683995","0.0-6.0-8.10","05","<p><img class= 'stimulus' src='images/baseline/03220v.jpg'></img></p>","null","","1549589250421","8","","","","","",""
"null","","html-keyboard-response","205","1684095","0.0-6.0-9.10","05","<p><img class= 'stimulus' src='images/baseline/landscape11.jpg'></img></p>","null","","1549589250520","","","","","","",""
"null","","html-keyboard-response","206","1684195","0.0-6.0-10.10","05","<p><img class= 'stimulus' src='images/baseline/pexels-photo-1837621.jpeg'></img></p>","null","","1549589250621","","","","","","",""
"null","","html-keyboard-response","207","1684295","0.0-6.0-11.10","05","<p><img class= 'stimulus' src='images/baseline/pexels-photo-568236.jpeg'></img></p>","null","","1549589250721","","","","","","",""
"null","","html-keyboard-response","208","1684394","0.0-6.0-12.10","05","<p><img class= 'stimulus' src='images/target/building4.jpg'></img></p>","null","","1549589250820","12","","","","","",""
"null","","html-keyboard-response","209","1684494","0.0-6.0-13.10","05","<p><img class= 'stimulus' src='images/baseline/agriculture-countryside-crop-259280.jpg'></img></p>","null","","1549589250920","","","","","","",""
"null","","html-keyboard-response","210","1684595","0.0-6.0-14.10","05","<p><img class= 'stimulus' src='images/baseline/05252v.jpg'></img></p>","null","","1549589251020","14","","","","","",""
"null","","html-keyboard-response","211","1684695","0.0-6.0-15.10","05","<p><img class= 'stimulus' src='images/baseline/Dock 1.jpg'></img></p>","null","","1549589251120","","","","","","",""
"null","","html-keyboard-response","212","1684795","0.0-6.0-16.10","05","<p><img class= 'stimulus' src='images/baseline/Lake 13.jpg'></img></p>","null","","1549589251221","","","","","","",""
"null","","html-keyboard-response","213","1684912","0.0-6.0-17.10","05","<p><img class= 'stimulus' src='images/baseline/field 3.jpg'></img></p>","null","","1549589251320","","","","","","",""
"411.79999999981374","","html-button-response","214","1686327","0.0-6.0-18.10","05","<div class = ""response_question"">WAS THE IMAGE ROTATED...</div>","","4","","","4","8","bas","right","practice","true"
"1422.0999999998603","","html-button-response","215","1687750","0.0-6.0-0.11","05","","","0","","","","","","","",""
"null","","html-keyboard-response","216","1687828","0.0-6.0-1.11","05","<p><img class= 'stimulus' src='images/baseline/field 2.jpg'></img></p>","null","","1549589254253","","","","","","",""
"null","","html-keyboard-response","217","1687928","0.0-6.0-2.11","05","<p><img class= 'stimulus' src='images/baseline/05303v.jpg'></img></p>","null","","1549589254354","","","","","","",""
"null","","html-keyboard-response","218","1688029","0.0-6.0-3.11","05","<p><img class= 'stimulus' src='images/baseline/Skyscraper 1.jpg'></img></p>","null","","1549589254455","","","","","","",""
"null","","html-keyboard-response","219","1688129","0.0-6.0-4.11","05","<p><img class= 'stimulus' src='images/baseline/lake3.jpg'></img></p>","null","","1549589254554","4","","","","","",""
"null","","html-keyboard-response","220","1688228","0.0-6.0-5.11","05","<p><img class= 'stimulus' src='images/baseline/Sunset 5.jpg'></img></p>","null","","1549589254654","","","","","","",""
"null","","html-keyboard-response","221","1688328","0.0-6.0-6.11","05","<p><img class= 'stimulus' src='images/target/landscape_1.jpg'></img></p>","null","","1549589254755","6","","","","","",""
"null","","html-keyboard-response","222","1688428","0.0-6.0-7.11","05","<p><img class= 'stimulus' src='images/baseline/03063v.jpg'></img></p>","null","","1549589254854","","","","","","",""
"null","","html-keyboard-response","223","1688528","0.0-6.0-8.11","05","<p><img class= 'stimulus' src='images/baseline/pexels-photo-534164.jpeg'></img></p>","null","","1549589254953","8","","","","","",""
"null","","html-keyboard-response","224","1688629","0.0-6.0-9.11","05","<p><img class= 'stimulus' src='images/baseline/farmhouse1.jpg'></img></p>","null","","1549589255054","","","","","","",""
"null","","html-keyboard-response","225","1688729","0.0-6.0-10.11","05","<p><img class= 'stimulus' src='images/baseline/05131v.jpg'></img></p>","null","","1549589255154","","","","","","",""
"null","","html-keyboard-response","226","1688829","0.0-6.0-11.11","05","<p><img class= 'stimulus' src='images/baseline/04021v.jpg'></img></p>","null","","1549589255253","","","","","","",""
"null","","html-keyboard-response","227","1688929","0.0-6.0-12.11","05","<p><img class= 'stimulus' src='images/baseline/pexels-photo-280222.jpeg'></img></p>","null","","1549589255354","12","","","","","",""
"null","","html-keyboard-response","228","1689028","0.0-6.0-13.11","05","<p><img class= 'stimulus' src='images/baseline/landscape16.jpg'></img></p>","null","","1549589255455","","","","","","",""
"null","","html-keyboard-response","229","1689128","0.0-6.0-14.11","05","<p><img class= 'stimulus' src='images/baseline/Sky 1.jpg'></img></p>","null","","1549589255554","14","","","","","",""
"null","","html-keyboard-response","230","1689228","0.0-6.0-15.11","05","<p><img class= 'stimulus' src='images/baseline/red rocks from afar.jpg'></img></p>","null","","1549589255654","","","","","","",""
"null","","html-keyboard-response","231","1689328","0.0-6.0-16.11","05","<p><img class= 'stimulus' src='images/baseline/grand-teton-mountains.jpg'></img></p>","null","","1549589255754","","","","","","",""
"null","","html-keyboard-response","232","1689445","0.0-6.0-17.11","05","<p><img class= 'stimulus' src='images/baseline/05203v.jpg'></img></p>","null","","1549589255855","","","","","","",""
"8510.399999999208","","html-button-response","233","1698959","0.0-6.0-18.11","05","<div class = ""response_question"">WAS THE IMAGE ROTATED...</div>","","5","","","4","2","bas","right","practice","false"
"5510.400000001071","","html-button-response","234","1704471","0.0-6.0-0.12","05","","","0","","","","","","","",""
"null","","html-keyboard-response","235","1704545","0.0-6.0-1.12","05","<p><img class= 'stimulus' src='images/baseline/landscape6.jpg'></img></p>","null","","1549589270970","","","","","","",""
"null","","html-keyboard-response","236","1704645","0.0-6.0-2.12","05","<p><img class= 'stimulus' src='images/baseline/05161v.jpg'></img></p>","null","","1549589271072","","","","","","",""
"null","","html-keyboard-response","237","1704745","0.0-6.0-3.12","05","<p><img class= 'stimulus' src='images/baseline/Lake 5.jpg'></img></p>","null","","1549589271171","","","","","","",""
"null","","html-keyboard-response","238","1704846","0.0-6.0-4.12","05","<p><img class= 'stimulus' src='images/baseline/building16.jpg'></img></p>","null","","1549589271271","4","","","","","",""
"null","","html-keyboard-response","239","1704945","0.0-6.0-5.12","05","<p><img class= 'stimulus' src='images/baseline/sunset-over-the-lake.jpg'></img></p>","null","","1549589271371","","","","","","",""
"null","","html-keyboard-response","240","1705046","0.0-6.0-6.12","05","<p><img class= 'stimulus' src='images/baseline/Linden,_paysage.jpg'></img></p>","null","","1549589271471","6","","","","","",""
"null","","html-keyboard-response","241","1705146","0.0-6.0-7.12","05","<p><img class= 'stimulus' src='images/baseline/lake 1.jpg'></img></p>","null","","1549589271570","","","","","","",""
"null","","html-keyboard-response","242","1705246","0.0-6.0-8.12","05","<p><img class= 'stimulus' src='images/baseline/seoul-410266_1920.jpg'></img></p>","null","","1549589271670","8","","","","","",""
"null","","html-keyboard-response","243","1705345","0.0-6.0-9.12","05","<p><img class= 'stimulus' src='images/baseline/pexels-photo-259280.jpeg'></img></p>","null","","1549589271771","","","","","","",""
"null","","html-keyboard-response","244","1705444","0.0-6.0-10.12","05","<p><img class= 'stimulus' src='images/baseline/Sidewalk 4.jpg'></img></p>","null","","1549589271871","","","","","","",""
"null","","html-keyboard-response","245","1705545","0.0-6.0-11.12","05","<p><img class= 'stimulus' src='images/baseline/Camping 10.jpg'></img></p>","null","","1549589271971","","","","","","",""
"null","","html-keyboard-response","246","1705645","0.0-6.0-12.12","05","<p><img class= 'stimulus' src='images/baseline/landscape19.jpg'></img></p>","null","","1549589272071","12","","","","","",""
"null","","html-keyboard-response","247","1705745","0.0-6.0-13.12","05","<p><img class= 'stimulus' src='images/baseline/Beach 3.jpg'></img></p>","null","","1549589272170","","","","","","",""
"null","","html-keyboard-response","248","1705846","0.0-6.0-14.12","05","<p><img class= 'stimulus left-rotate' src='images/target/coconut-3396945_640.jpg'></img></p>","null","","1549589272270","14","","","","","",""
"null","","html-keyboard-response","249","1705945","0.0-6.0-15.12","05","<p><img class= 'stimulus' src='images/baseline/landscape29.jpg'></img></p>","null","","1549589272371","","","","","","",""
"null","","html-keyboard-response","250","1706046","0.0-6.0-16.12","05","<p><img class= 'stimulus' src='images/baseline/02947v.jpg'></img></p>","null","","1549589272470","","","","","","",""
"null","","html-keyboard-response","251","1706161","0.0-6.0-17.12","05","<p><img class= 'stimulus' src='images/baseline/Sunset 3.jpg'></img></p>","null","","1549589272570","","","","","","",""
"450.39999999967404","","html-button-response","252","1707614","0.0-6.0-18.12","05","<div class = ""response_question"">WAS THE IMAGE ROTATED...</div>","","0","","","6","8","bas","left","practice","true"
"25382.499999999767","","html-button-response","253","1732996","0.0-6.0-0.13","05","","","0","","","","","","","",""
"null","","html-keyboard-response","254","1733079","0.0-6.0-1.13","05","<p><img class= 'stimulus' src='images/baseline/road 1(1).jpg'></img></p>","null","","1549589299502","","","","","","",""
"null","","html-keyboard-response","255","1733176","0.0-6.0-2.13","05","<p><img class= 'stimulus' src='images/baseline/03098v.jpg'></img></p>","null","","1549589299603","","","","","","",""
"null","","html-keyboard-response","256","1733276","0.0-6.0-3.13","05","<p><img class= 'stimulus' src='images/baseline/03204v.jpg'></img></p>","null","","1549589299702","","","","","","",""
"null","","html-keyboard-response","257","1733376","0.0-6.0-4.13","05","<p><img class= 'stimulus' src='images/baseline/03180v.jpg'></img></p>","null","","1549589299801","4","","","","","",""
"null","","html-keyboard-response","258","1733476","0.0-6.0-5.13","05","<p><img class= 'stimulus' src='images/baseline/pexels-photo-351264.jpeg'></img></p>","null","","1549589299902","","","","","","",""
"null","","html-keyboard-response","259","1733577","0.0-6.0-6.13","05","<p><img class= 'stimulus' src='images/baseline/4k-wallpaper-agriculture-clouds-842711.jpg'></img></p>","null","","1549589300002","6","","","","","",""
"null","","html-keyboard-response","260","1733676","0.0-6.0-7.13","05","<p><img class= 'stimulus' src='images/baseline/Skyscraper 2.jpg'></img></p>","null","","1549589300102","","","","","","",""
"null","","html-keyboard-response","261","1733776","0.0-6.0-8.13","05","<p><img class= 'stimulus left-rotate' src='images/target/tree spring.jpeg'></img></p>","null","","1549589300202","8","","","","","",""
"null","","html-keyboard-response","262","1733877","0.0-6.0-9.13","05","<p><img class= 'stimulus' src='images/baseline/02982v.jpg'></img></p>","null","","1549589300301","","","","","","",""
"null","","html-keyboard-response","263","1733976","0.0-6.0-10.13","05","<p><img class= 'stimulus' src='images/baseline/Lake 15.jpg'></img></p>","null","","1549589300402","","","","","","",""
"null","","html-keyboard-response","264","1734076","0.0-6.0-11.13","05","<p><img class= 'stimulus' src='images/baseline/farmhouse3.jpg'></img></p>","null","","1549589300503","","","","","","",""
"null","","html-keyboard-response","265","1734176","0.0-6.0-12.13","05","<p><img class= 'stimulus' src='images/baseline/landscape22.jpg'></img></p>","null","","1549589300602","12","","","","","",""
"null","","html-keyboard-response","266","1734276","0.0-6.0-13.13","05","<p><img class= 'stimulus' src='images/baseline/pexels-photo-1054289.jpeg'></img></p>","null","","1549589300702","","","","","","",""
"null","","html-keyboard-response","267","1734377","0.0-6.0-14.13","05","<p><img class= 'stimulus' src='images/baseline/lake 2.jpg'></img></p>","null","","1549589300802","14","","","","","",""
"null","","html-keyboard-response","268","1734476","0.0-6.0-15.13","05","<p><img class= 'stimulus' src='images/baseline/architecture-956332_1280.jpg'></img></p>","null","","1549589300902","","","","","","",""
"null","","html-keyboard-response","269","1734575","0.0-6.0-16.13","05","<p><img class= 'stimulus' src='images/baseline/flooded-bridge.jpg'></img></p>","null","","1549589301002","","","","","","",""
"null","","html-keyboard-response","270","1734693","0.0-6.0-17.13","05","<p><img class= 'stimulus' src='images/baseline/vintage-art-deco-storefront.jpg'></img></p>","null","","1549589301103","","","","","","",""
"532.2000000013504","","html-button-response","271","1736228","0.0-6.0-18.13","05","<div class = ""response_question"">WAS THE IMAGE ROTATED...</div>","","1","","","6","2","bas","left","practice","true"
"1598.7999999998137","","html-button-response","272","1737828","0.0-6.0-0.14","05","","","0","","","","","","","",""
"null","","html-keyboard-response","273","1737909","0.0-6.0-1.14","05","<p><img class= 'stimulus' src='images/baseline/03112v.jpg'></img></p>","null","","1549589304335","","","","","","",""
"null","","html-keyboard-response","274","1738009","0.0-6.0-2.14","05","<p><img class= 'stimulus' src='images/baseline/Grass 6.jpg'></img></p>","null","","1549589304435","","","","","","",""
"null","","html-keyboard-response","275","1738110","0.0-6.0-3.14","05","<p><img class= 'stimulus' src='images/baseline/pexels-photo-1048039.jpeg'></img></p>","null","","1549589304535","","","","","","",""
"null","","html-keyboard-response","276","1738209","0.0-6.0-4.14","05","<p><img class= 'stimulus' src='images/baseline/04300v.jpg'></img></p>","null","","1549589304634","4","","","","","",""
"null","","html-keyboard-response","277","1738310","0.0-6.0-5.14","05","<p><img class= 'stimulus' src='images/baseline/river 1.jpg'></img></p>","null","","1549589304735","","","","","","",""
"null","","html-keyboard-response","278","1738410","0.0-6.0-6.14","05","<p><img class= 'stimulus' src='images/baseline/autumn-landscape-with-lake-fall-trees-mountains.jpg'></img></p>","null","","1549589304835","6","","","","","",""
"null","","html-keyboard-response","279","1738510","0.0-6.0-7.14","05","<p><img class= 'stimulus' src='images/baseline/99_-_Machu_Picchu_-_Juin_2009.edit3.jpg'></img></p>","null","","1549589304935","","","","","","",""
"null","","html-keyboard-response","280","1738610","0.0-6.0-8.14","05","<p><img class= 'stimulus' src='images/target/oak-456524_640.jpg'></img></p>","null","","1549589305035","8","","","","","",""
"null","","html-keyboard-response","281","1738710","0.0-6.0-9.14","05","<p><img class= 'stimulus' src='images/baseline/03114v.jpg'></img></p>","null","","1549589305135","","","","","","",""
"null","","html-keyboard-response","282","1738810","0.0-6.0-10.14","05","<p><img class= 'stimulus' src='images/baseline/architecture_modern_architecture_852928.jpg'></img></p>","null","","1549589305235","","","","","","",""
"null","","html-keyboard-response","283","1738910","0.0-6.0-11.14","05","<p><img class= 'stimulus' src='images/baseline/field 1.jpg'></img></p>","null","","1549589305335","","","","","","",""
"null","","html-keyboard-response","284","1739011","0.0-6.0-12.14","05","<p><img class= 'stimulus' src='images/baseline/Nature 2.jpg'></img></p>","null","","1549589305437","12","","","","","",""
"null","","html-keyboard-response","285","1739110","0.0-6.0-13.14","05","<p><img class= 'stimulus' src='images/baseline/04086v.jpg'></img></p>","null","","1549589305535","","","","","","",""
"null","","html-keyboard-response","286","1739209","0.0-6.0-14.14","05","<p><img class= 'stimulus' src='images/baseline/city-silhouette-at-sunset-871291580819Esw.jpg'></img></p>","null","","1549589305635","14","","","","","",""
"null","","html-keyboard-response","287","1739309","0.0-6.0-15.14","05","<p><img class= 'stimulus' src='images/baseline/05255v.jpg'></img></p>","null","","1549589305735","","","","","","",""
"null","","html-keyboard-response","288","1739410","0.0-6.0-16.14","05","<p><img class= 'stimulus' src='images/baseline/house10.jpg'></img></p>","null","","1549589305834","","","","","","",""
"null","","html-keyboard-response","289","1739526","0.0-6.0-17.14","05","<p><img class= 'stimulus' src='images/baseline/Street 4.jpg'></img></p>","null","","1549589305935","","","","","","",""
"522.8999999999069","","html-button-response","290","1741052","0.0-6.0-18.14","05","<div class = ""response_question"">WAS THE IMAGE ROTATED...</div>","","5","","","6","2","bas","right","practice","false"
"1189.9999999988358","","html-button-response","291","1742244","0.0-6.0-0.15","05","","","0","","","","","","","",""
"null","","html-keyboard-response","292","1742326","0.0-6.0-1.15","05","<p><img class= 'stimulus' src='images/baseline/04229v.jpg'></img></p>","null","","1549589308752","","","","","","",""
"null","","html-keyboard-response","293","1742427","0.0-6.0-2.15","05","<p><img class= 'stimulus' src='images/baseline/Sunset 6.jpg'></img></p>","null","","1549589308853","","","","","","",""
"null","","html-keyboard-response","294","1742526","0.0-6.0-3.15","05","<p><img class= 'stimulus' src='images/baseline/scenic-mountain-landscape.jpg'></img></p>","null","","1549589308952","","","","","","",""
"null","","html-keyboard-response","295","1742626","0.0-6.0-4.15","05","<p><img class= 'stimulus' src='images/baseline/landscape33.jpg'></img></p>","null","","1549589309051","4","","","","","",""
"null","","html-keyboard-response","296","1742727","0.0-6.0-5.15","05","<p><img class= 'stimulus' src='images/baseline/hills 4.jpg'></img></p>","null","","1549589309151","","","","","","",""
"null","","html-keyboard-response","297","1742827","0.0-6.0-6.15","05","<p><img class= 'stimulus' src='images/baseline/empire-state-building.jpg'></img></p>","null","","1549589309253","6","","","","","",""
"null","","html-keyboard-response","298","1742926","0.0-6.0-7.15","05","<p><img class= 'stimulus' src='images/baseline/hills 3.jpg'></img></p>","null","","1549589309353","","","","","","",""
"null","","html-keyboard-response","299","1743027","0.0-6.0-8.15","05","<p><img class= 'stimulus' src='images/baseline/04064v.jpg'></img></p>","null","","1549589309452","8","","","","","",""
"null","","html-keyboard-response","300","1743126","0.0-6.0-9.15","05","<p><img class= 'stimulus' src='images/baseline/building2.jpg'></img></p>","null","","1549589309552","","","","","","",""
"null","","html-keyboard-response","301","1743226","0.0-6.0-10.15","05","<p><img class= 'stimulus' src='images/baseline/hiking-trail.jpg'></img></p>","null","","1549589309653","","","","","","",""
"null","","html-keyboard-response","302","1743326","0.0-6.0-11.15","05","<p><img class= 'stimulus' src='images/baseline/03162v.jpg'></img></p>","null","","1549589309752","","","","","","",""
"null","","html-keyboard-response","303","1743426","0.0-6.0-12.15","05","<p><img class= 'stimulus' src='images/baseline/landscape17.jpg'></img></p>","null","","1549589309852","12","","","","","",""
"null","","html-keyboard-response","304","1743526","0.0-6.0-13.15","05","<p><img class= 'stimulus' src='images/baseline/lookout_tower.jpg'></img></p>","null","","1549589309952","","","","","","",""
"null","","html-keyboard-response","305","1743627","0.0-6.0-14.15","05","<p><img class= 'stimulus' src='images/target/building19.jpg'></img></p>","null","","1549589310052","14","","","","","",""
"null","","html-keyboard-response","306","1743727","0.0-6.0-15.15","05","<p><img class= 'stimulus' src='images/baseline/building16.jpg'></img></p>","null","","1549589310152","","","","","","",""
"null","","html-keyboard-response","307","1743827","0.0-6.0-16.15","05","<p><img class= 'stimulus' src='images/baseline/scenic-mountain-landscape.jpg'></img></p>","null","","1549589310252","","","","","","",""
"null","","html-keyboard-response","308","1743943","0.0-6.0-17.15","05","<p><img class= 'stimulus' src='images/baseline/vintage-art-deco-storefront.jpg'></img></p>","null","","1549589310352","","","","","","",""
"818.4999999995343","","html-button-response","309","1745765","0.0-6.0-18.15","05","<div class = ""response_question"">WAS THE IMAGE ROTATED...</div>","","5","","","6","8","bas","right","practice","false"
"59246.39999999991","","html-button-response","310","1805002","0.0-7.0","05","<p>You have now completed the practice phase. We will now begin the real trials.         This is a reminder that you will be searching for a rotated image among the series of upright images.</p>         <p>Remember, please do not blink or move your eyes while the images are on the screen.</p>         <p>At the end of the experiment, the experimenter will be able to show you how accurate you were.</p>","","0","","","","","","","",""
"1718.8000000005122","","html-button-response","311","1806723","0.0-8.0-0.0-0.0","05","","","0","","","","","","","",""
"null","","html-keyboard-response","312","1806802","0.0-8.0-0.0-1.0","05","<p><img class= 'stimulus' src='images/baseline/Bahia_Onelli_Parque_Nacional_Los_Glaciares_Patagonia_Argentina_Luca_Galuzzi_2005.jpg'></img></p>","null","","1549589373226","","","","","","",""
"null","","html-keyboard-response","313","1806901","0.0-8.0-0.0-2.0","05","<p><img class= 'stimulus' src='images/baseline/building5.jpg'></img></p>","null","","1549589373326","","","","","","",""
"null","","html-keyboard-response","314","1807002","0.0-8.0-0.0-3.0","05","<p><img class= 'stimulus' src='images/baseline/farmhouse4.jpg'></img></p>","null","","1549589373427","","","","","","",""
"null","","html-keyboard-response","315","1807102","0.0-8.0-0.0-4.0","05","<p><img class= 'stimulus' src='images/baseline/05167v.jpg'></img></p>","null","","1549589373527","4","","","","","",""
"null","","html-keyboard-response","316","1807202","0.0-8.0-0.0-5.0","05","<p><img class= 'stimulus' src='images/baseline/Peyto_Lake-Banff_NP-Canada.jpg'></img></p>","null","","1549589373626","","","","","","",""
"null","","html-keyboard-response","317","1807301","0.0-8.0-0.0-6.0","05","<p><img class= 'stimulus' src='images/baseline/05158v.jpg'></img></p>","null","","1549589373727","6","","","","","",""
"null","","html-keyboard-response","318","1807402","0.0-8.0-0.0-7.0","05","<p><img class= 'stimulus' src='images/baseline/building12.jpg'></img></p>","null","","1549589373826","","","","","","",""
"null","","html-keyboard-response","319","1807502","0.0-8.0-0.0-8.0","05","<p><img class= 'stimulus' src='images/baseline/Street 2.jpg'></img></p>","null","","1549589373928","8","","","","","",""
"null","","html-keyboard-response","320","1807600","0.0-8.0-0.0-9.0","05","<p><img class= 'stimulus' src='images/baseline/landscape39.jpg'></img></p>","null","","1549589374027","","","","","","",""
"null","","html-keyboard-response","321","1807701","0.0-8.0-0.0-10.0","05","<p><img class= 'stimulus' src='images/baseline/05264v.jpg'></img></p>","null","","1549589374127","","","","","","",""
"null","","html-keyboard-response","322","1807801","0.0-8.0-0.0-11.0","05","<p><img class= 'stimulus' src='images/baseline/Lake 4.jpg'></img></p>","null","","1549589374227","","","","","","",""
"null","","html-keyboard-response","323","1807901","0.0-8.0-0.0-12.0","05","<p><img class= 'stimulus left-rotate' src='images/target/transamerica-pyramid-530061_640.jpg'></img></p>","null","","1549589374326","12","","","","","",""
"null","","html-keyboard-response","324","1808001","0.0-8.0-0.0-13.0","05","<p><img class= 'stimulus' src='images/baseline/03098v.jpg'></img></p>","null","","1549589374427","","","","","","",""
"null","","html-keyboard-response","325","1808101","0.0-8.0-0.0-14.0","05","<p><img class= 'stimulus' src='images/baseline/dirt-road-or-trail-through-park.jpg'></img></p>","null","","1549589374526","14","","","","","",""
"null","","html-keyboard-response","326","1808202","0.0-8.0-0.0-15.0","05","<p><img class= 'stimulus' src='images/baseline/Sailing 3.jpg'></img></p>","null","","1549589374627","","","","","","",""
"null","","html-keyboard-response","327","1808301","0.0-8.0-0.0-16.0","05","<p><img class= 'stimulus' src='images/baseline/Lake 16.jpg'></img></p>","null","","1549589374726","","","","","","",""
"null","","html-keyboard-response","328","1808418","0.0-8.0-0.0-17.0","05","<p><img class= 'stimulus' src='images/baseline/03201v.jpg'></img></p>","null","","1549589374826","","","","","","",""
"486.5000000009313","","html-button-response","329","1809907","0.0-8.0-0.0-18.0","05","<div class = ""response_question"">WAS THE IMAGE ROTATED...</div>","","0","","","4","8","bas","left","test","true"
"830.5","","html-button-response","330","1810739","0.0-8.0-0.0-0.1","05","","","0","","","","","","","",""
"null","","html-keyboard-response","331","1810818","0.0-8.0-0.0-1.1","05","<p><img class= 'stimulus' src='images/baseline/building2.jpg'></img></p>","null","","1549589377244","","","","","","",""
"null","","html-keyboard-response","332","1810918","0.0-8.0-0.0-2.1","05","<p><img class= 'stimulus' src='images/baseline/Sunset 5.jpg'></img></p>","null","","1549589377344","","","","","","",""
"null","","html-keyboard-response","333","1811018","0.0-8.0-0.0-3.1","05","<p><img class= 'stimulus' src='images/baseline/red-rocks-park.jpg'></img></p>","null","","1549589377444","","","","","","",""
"null","","html-keyboard-response","334","1811118","0.0-8.0-0.0-4.1","05","<p><img class= 'stimulus' src='images/baseline/architecture-956332_1280.jpg'></img></p>","null","","1549589377543","4","","","","","",""
"null","","html-keyboard-response","335","1811218","0.0-8.0-0.0-5.1","05","<p><img class= 'stimulus' src='images/baseline/landscape12.jpg'></img></p>","null","","1549589377644","","","","","","",""
"null","","html-keyboard-response","336","1811319","0.0-8.0-0.0-6.1","05","<p><img class= 'stimulus' src='images/baseline/4k-wallpaper-agriculture-clouds-842711.jpg'></img></p>","null","","1549589377744","6","","","","","",""
"null","","html-keyboard-response","337","1811418","0.0-8.0-0.0-7.1","05","<p><img class= 'stimulus' src='images/baseline/04010v.jpg'></img></p>","null","","1549589377843","","","","","","",""
"null","","html-keyboard-response","338","1811518","0.0-8.0-0.0-8.1","05","<p><img class= 'stimulus' src='images/baseline/Lake 5.jpg'></img></p>","null","","1549589377944","8","","","","","",""
"null","","html-keyboard-response","339","1811618","0.0-8.0-0.0-9.1","05","<p><img class= 'stimulus' src='images/baseline/landscape14.jpg'></img></p>","null","","1549589378043","","","","","","",""
"null","","html-keyboard-response","340","1811718","0.0-8.0-0.0-10.1","05","<p><img class= 'stimulus' src='images/baseline/lake 1.jpg'></img></p>","null","","1549589378144","","","","","","",""
"null","","html-keyboard-response","341","1811818","0.0-8.0-0.0-11.1","05","<p><img class= 'stimulus' src='images/baseline/03063v.jpg'></img></p>","null","","1549589378244","","","","","","",""
"null","","html-keyboard-response","342","1811918","0.0-8.0-0.0-12.1","05","<p><img class= 'stimulus' src='images/target/fishhouse.jpg'></img></p>","null","","1549589378343","12","","","","","",""
"null","","html-keyboard-response","343","1812018","0.0-8.0-0.0-13.1","05","<p><img class= 'stimulus' src='images/baseline/03212v.jpg'></img></p>","null","","1549589378444","","","","","","",""
"null","","html-keyboard-response","344","1812119","0.0-8.0-0.0-14.1","05","<p><img class= 'stimulus' src='images/baseline/landscape6.jpg'></img></p>","null","","1549589378543","14","","","","","",""
"null","","html-keyboard-response","345","1812218","0.0-8.0-0.0-15.1","05","<p><img class= 'stimulus' src='images/baseline/landscape1.jpg'></img></p>","null","","1549589378643","","","","","","",""
"null","","html-keyboard-response","346","1812319","0.0-8.0-0.0-16.1","05","<p><img class= 'stimulus' src='images/baseline/landscape15.jpg'></img></p>","null","","1549589378745","","","","","","",""
"null","","html-keyboard-response","347","1812434","0.0-8.0-0.0-17.1","05","<p><img class= 'stimulus' src='images/baseline/house7.jpg'></img></p>","null","","1549589378844","","","","","","",""
"421.50000000023283","","html-button-response","348","1813859","0.0-8.0-0.0-18.1","05","<div class = ""response_question"">WAS THE IMAGE ROTATED...</div>","","4","","","4","8","bas","right","test","true"
"518.0999999993946","","html-button-response","349","1814379","0.0-8.0-0.0-0.2","05","","","0","","","","","","","",""
"null","","html-keyboard-response","350","1814451","0.0-8.0-0.0-1.2","05","<p><img class= 'stimulus' src='images/baseline/landscape19.jpg'></img></p>","null","","1549589380876","","","","","","",""
"null","","html-keyboard-response","351","1814551","0.0-8.0-0.0-2.2","05","<p><img class= 'stimulus' src='images/baseline/pexels-photo-59321.jpeg'></img></p>","null","","1549589380976","","","","","","",""
"null","","html-keyboard-response","352","1814652","0.0-8.0-0.0-3.2","05","<p><img class= 'stimulus' src='images/baseline/04031v.jpg'></img></p>","null","","1549589381076","","","","","","",""
"null","","html-keyboard-response","353","1814751","0.0-8.0-0.0-4.2","05","<p><img class= 'stimulus' src='images/baseline/red rocks from afar.jpg'></img></p>","null","","1549589381176","4","","","","","",""
"null","","html-keyboard-response","354","1814851","0.0-8.0-0.0-5.2","05","<p><img class= 'stimulus' src='images/baseline/field 1.jpg'></img></p>","null","","1549589381277","","","","","","",""
"null","","html-keyboard-response","355","1814953","0.0-8.0-0.0-6.2","05","<p><img class= 'stimulus' src='images/baseline/farmhouse6.jpg'></img></p>","null","","1549589381377","6","","","","","",""
"null","","html-keyboard-response","356","1815051","0.0-8.0-0.0-7.2","05","<p><img class= 'stimulus' src='images/baseline/hiking-trail.jpg'></img></p>","null","","1549589381477","","","","","","",""
"null","","html-keyboard-response","357","1815152","0.0-8.0-0.0-8.2","05","<p><img class= 'stimulus' src='images/baseline/pexels-photo-1287089.jpeg'></img></p>","null","","1549589381577","8","","","","","",""
"null","","html-keyboard-response","358","1815252","0.0-8.0-0.0-9.2","05","<p><img class= 'stimulus' src='images/baseline/Paysage_enneige_02.jpg'></img></p>","null","","1549589381678","","","","","","",""
"null","","html-keyboard-response","359","1815351","0.0-8.0-0.0-10.2","05","<p><img class= 'stimulus' src='images/baseline/04086v.jpg'></img></p>","null","","1549589381778","","","","","","",""
"null","","html-keyboard-response","360","1815451","0.0-8.0-0.0-11.2","05","<p><img class= 'stimulus' src='images/baseline/Lake 14.jpg'></img></p>","null","","1549589381877","","","","","","",""
"null","","html-keyboard-response","361","1815551","0.0-8.0-0.0-12.2","05","<p><img class= 'stimulus' src='images/baseline/chicago-skyline-at-night-1476869511p8U.jpg'></img></p>","null","","1549589381976","12","","","","","",""
"null","","html-keyboard-response","362","1815651","0.0-8.0-0.0-13.2","05","<p><img class= 'stimulus' src='images/baseline/Sunset 6.jpg'></img></p>","null","","1549589382076","","","","","","",""
"null","","html-keyboard-response","363","1815751","0.0-8.0-0.0-14.2","05","<p><img class= 'stimulus' src='images/baseline/05247v.jpg'></img></p>","null","","1549589382176","14","","","","","",""
"null","","html-keyboard-response","364","1815852","0.0-8.0-0.0-15.2","05","<p><img class= 'stimulus' src='images/baseline/snowy tree.jpg'></img></p>","null","","1549589382277","","","","","","",""
"null","","html-keyboard-response","365","1815951","0.0-8.0-0.0-16.2","05","<p><img class= 'stimulus' src='images/baseline/landscape11.jpg'></img></p>","null","","1549589382376","","","","","","",""
"null","","html-keyboard-response","366","1816067","0.0-8.0-0.0-17.2","05","<p><img class= 'stimulus' src='images/baseline/02982v.jpg'></img></p>","null","","1549589382477","","","","","","",""
"1098.8999999989755","","html-button-response","367","1818171","0.0-8.0-0.0-18.2","05","<div class = ""response_question"">WAS THE IMAGE ROTATED...</div>","","2","","","null","null","null","null","test","null"
"1142.5","","html-button-response","368","1819314","0.0-8.0-0.0-0.3","05","","","0","","","","","","","",""
"null","","html-keyboard-response","369","1819401","0.0-8.0-0.0-1.3","05","<p><img class= 'stimulus' src='images/baseline/02988v.jpg'></img></p>","null","","1549589385827","","","","","","",""
"null","","html-keyboard-response","370","1819501","0.0-8.0-0.0-2.3","05","<p><img class= 'stimulus' src='images/baseline/landscape2.jpg'></img></p>","null","","1549589385926","","","","","","",""
"null","","html-keyboard-response","371","1819601","0.0-8.0-0.0-3.3","05","<p><img class= 'stimulus' src='images/baseline/03217v.jpg'></img></p>","null","","1549589386027","","","","","","",""
"null","","html-keyboard-response","372","1819702","0.0-8.0-0.0-4.3","05","<p><img class= 'stimulus' src='images/baseline/meadow-with-mountain-in-background.jpg'></img></p>","null","","1549589386126","4","","","","","",""
"null","","html-keyboard-response","373","1819802","0.0-8.0-0.0-5.3","05","<p><img class= 'stimulus' src='images/baseline/Street 4.jpg'></img></p>","null","","1549589386226","","","","","","",""
"null","","html-keyboard-response","374","1819901","0.0-8.0-0.0-6.3","05","<p><img class= 'stimulus' src='images/target/landscape20.jpg'></img></p>","null","","1549589386327","6","","","","","",""
"null","","html-keyboard-response","375","1820002","0.0-8.0-0.0-7.3","05","<p><img class= 'stimulus' src='images/baseline/05161v.jpg'></img></p>","null","","1549589386427","","","","","","",""
"null","","html-keyboard-response","376","1820102","0.0-8.0-0.0-8.3","05","<p><img class= 'stimulus' src='images/baseline/empire-state-building.jpg'></img></p>","null","","1549589386527","8","","","","","",""
"null","","html-keyboard-response","377","1820201","0.0-8.0-0.0-9.3","05","<p><img class= 'stimulus' src='images/baseline/Lake 9.jpg'></img></p>","null","","1549589386626","","","","","","",""
"null","","html-keyboard-response","378","1820302","0.0-8.0-0.0-10.3","05","<p><img class= 'stimulus' src='images/baseline/04117v.jpg'></img></p>","null","","1549589386727","","","","","","",""
"null","","html-keyboard-response","379","1820402","0.0-8.0-0.0-11.3","05","<p><img class= 'stimulus' src='images/baseline/Lake 7.jpg'></img></p>","null","","1549589386828","","","","","","",""
"null","","html-keyboard-response","380","1820502","0.0-8.0-0.0-12.3","05","<p><img class= 'stimulus' src='images/baseline/house1.jpg'></img></p>","null","","1549589386927","12","","","","","",""
"null","","html-keyboard-response","381","1820602","0.0-8.0-0.0-13.3","05","<p><img class= 'stimulus' src='images/baseline/cyrillic.jpg'></img></p>","null","","1549589387026","","","","","","",""
"null","","html-keyboard-response","382","1820702","0.0-8.0-0.0-14.3","05","<p><img class= 'stimulus' src='images/baseline/cranes 1.jpg'></img></p>","null","","1549589387126","14","","","","","",""
"null","","html-keyboard-response","383","1820801","0.0-8.0-0.0-15.3","05","<p><img class= 'stimulus' src='images/baseline/05139v.jpg'></img></p>","null","","1549589387227","","","","","","",""
"null","","html-keyboard-response","384","1820901","0.0-8.0-0.0-16.3","05","<p><img class= 'stimulus' src='images/baseline/bird-flying-at-sunset.jpg'></img></p>","null","","1549589387327","","","","","","",""
"null","","html-keyboard-response","385","1821019","0.0-8.0-0.0-17.3","05","<p><img class= 'stimulus' src='images/baseline/landscape34.jpg'></img></p>","null","","1549589387427","","","","","","",""
"565.6000000000931","","html-button-response","386","1822587","0.0-8.0-0.0-18.3","05","<div class = ""response_question"">WAS THE IMAGE ROTATED...</div>","","3","","","4","2","bas","right","test","true"
"3214.5999999993946","","html-button-response","387","1825803","0.0-8.0-0.0-0.4","05","","","0","","","","","","","",""
"null","","html-keyboard-response","388","1825885","0.0-8.0-0.0-1.4","05","<p><img class= 'stimulus' src='images/baseline/Sunset 4.jpg'></img></p>","null","","1549589392310","","","","","","",""
"null","","html-keyboard-response","389","1825985","0.0-8.0-0.0-2.4","05","<p><img class= 'stimulus' src='images/baseline/05280v.jpg'></img></p>","null","","1549589392410","","","","","","",""
"null","","html-keyboard-response","390","1826085","0.0-8.0-0.0-3.4","05","<p><img class= 'stimulus' src='images/baseline/church-silhouette-8712964986014Kb.jpg'></img></p>","null","","1549589392511","","","","","","",""
"null","","html-keyboard-response","391","1826184","0.0-8.0-0.0-4.4","05","<p><img class= 'stimulus' src='images/baseline/Lake 3.jpg'></img></p>","null","","1549589392611","4","","","","","",""
"null","","html-keyboard-response","392","1826285","0.0-8.0-0.0-5.4","05","<p><img class= 'stimulus' src='images/baseline/pexels-photo-1048039.jpeg'></img></p>","null","","1549589392711","","","","","","",""
"null","","html-keyboard-response","393","1826385","0.0-8.0-0.0-6.4","05","<p><img class= 'stimulus' src='images/baseline/landscape17.jpg'></img></p>","null","","1549589392811","6","","","","","",""
"null","","html-keyboard-response","394","1826485","0.0-8.0-0.0-7.4","05","<p><img class= 'stimulus' src='images/baseline/Camping 10.jpg'></img></p>","null","","1549589392909","","","","","","",""
"null","","html-keyboard-response","395","1826585","0.0-8.0-0.0-8.4","05","<p><img class= 'stimulus' src='images/baseline/pexels-photo-440731.jpeg'></img></p>","null","","1549589393010","8","","","","","",""
"null","","html-keyboard-response","396","1826685","0.0-8.0-0.0-9.4","05","<p><img class= 'stimulus' src='images/baseline/04040v.jpg'></img></p>","null","","1549589393111","","","","","","",""
"null","","html-keyboard-response","397","1826785","0.0-8.0-0.0-10.4","05","<p><img class= 'stimulus' src='images/baseline/Grass 6.jpg'></img></p>","null","","1549589393211","","","","","","",""
"null","","html-keyboard-response","398","1826885","0.0-8.0-0.0-11.4","05","<p><img class= 'stimulus' src='images/baseline/04085v.jpg'></img></p>","null","","1549589393310","","","","","","",""
"null","","html-keyboard-response","399","1826984","0.0-8.0-0.0-12.4","05","<p><img class= 'stimulus' src='images/baseline/field 4.jpg'></img></p>","null","","1549589393410","12","","","","","",""
"null","","html-keyboard-response","400","1827085","0.0-8.0-0.0-13.4","05","<p><img class= 'stimulus' src='images/baseline/landscape3.jpg'></img></p>","null","","1549589393510","","","","","","",""
"null","","html-keyboard-response","401","1827185","0.0-8.0-0.0-14.4","05","<p><img class= 'stimulus' src='images/baseline/Cold 7.jpg'></img></p>","null","","1549589393611","14","","","","","",""
"null","","html-keyboard-response","402","1827285","0.0-8.0-0.0-15.4","05","<p><img class= 'stimulus' src='images/baseline/04162v.jpg'></img></p>","null","","1549589393710","","","","","","",""
"null","","html-keyboard-response","403","1827385","0.0-8.0-0.0-16.4","05","<p><img class= 'stimulus' src='images/baseline/Nature 2.jpg'></img></p>","null","","1549589393809","","","","","","",""
"null","","html-keyboard-response","404","1827502","0.0-8.0-0.0-17.4","05","<p><img class= 'stimulus' src='images/baseline/pexels-photo-808465.jpeg'></img></p>","null","","1549589393909","","","","","","",""
"1170.6000000014901","","html-button-response","405","1829684","0.0-8.0-0.0-18.4","05","<div class = ""response_question"">WAS THE IMAGE ROTATED...</div>","","5","","","null","null","null","null","test","null"
"1006.1000000005588","","html-button-response","406","1830690","0.0-8.0-0.0-0.5","05","","","0","","","","","","","",""
"null","","html-keyboard-response","407","1830768","0.0-8.0-0.0-1.5","05","<p><img class= 'stimulus' src='images/baseline/Skyscraper 1.jpg'></img></p>","null","","1549589397194","","","","","","",""
"null","","html-keyboard-response","408","1830868","0.0-8.0-0.0-2.5","05","<p><img class= 'stimulus' src='images/baseline/05279v.jpg'></img></p>","null","","1549589397293","","","","","","",""
"null","","html-keyboard-response","409","1830969","0.0-8.0-0.0-3.5","05","<p><img class= 'stimulus' src='images/baseline/hills 1.jpg'></img></p>","null","","1549589397393","","","","","","",""
"null","","html-keyboard-response","410","1831068","0.0-8.0-0.0-4.5","05","<p><img class= 'stimulus' src='images/baseline/Skijump 1.jpg'></img></p>","null","","1549589397495","4","","","","","",""
"null","","html-keyboard-response","411","1831169","0.0-8.0-0.0-5.5","05","<p><img class= 'stimulus' src='images/baseline/03148v.jpg'></img></p>","null","","1549589397594","","","","","","",""
"null","","html-keyboard-response","412","1831268","0.0-8.0-0.0-6.5","05","<p><img class= 'stimulus' src='images/negative/Bloody knife 1.jpg'></img></p>","null","","1549589397695","6","","","","","",""
"null","","html-keyboard-response","413","1831367","0.0-8.0-0.0-7.5","05","<p><img class= 'stimulus' src='images/baseline/pexels-photo-1054289.jpeg'></img></p>","null","","1549589397794","","","","","","",""
"null","","html-keyboard-response","414","1831468","0.0-8.0-0.0-8.5","05","<p><img class= 'stimulus' src='images/target/building5.jpg'></img></p>","null","","1549589397894","8","","","","","",""
"null","","html-keyboard-response","415","1831568","0.0-8.0-0.0-9.5","05","<p><img class= 'stimulus' src='images/baseline/sunset-over-the-lake.jpg'></img></p>","null","","1549589397993","","","","","","",""
"null","","html-keyboard-response","416","1831668","0.0-8.0-0.0-10.5","05","<p><img class= 'stimulus' src='images/baseline/landscape7.jpg'></img></p>","null","","1549589398094","","","","","","",""
"null","","html-keyboard-response","417","1831768","0.0-8.0-0.0-11.5","05","<p><img class= 'stimulus' src='images/baseline/Desert_View_Indian_Wells.jpg'></img></p>","null","","1549589398194","","","","","","",""
"null","","html-keyboard-response","418","1831868","0.0-8.0-0.0-12.5","05","<p><img class= 'stimulus' src='images/baseline/pexels-photo-280222.jpeg'></img></p>","null","","1549589398293","12","","","","","",""
"null","","html-keyboard-response","419","1831968","0.0-8.0-0.0-13.5","05","<p><img class= 'stimulus' src='images/baseline/02962v.jpg'></img></p>","null","","1549589398393","","","","","","",""
"null","","html-keyboard-response","420","1832069","0.0-8.0-0.0-14.5","05","<p><img class= 'stimulus' src='images/baseline/02977v.jpg'></img></p>","null","","1549589398494","14","","","","","",""
"null","","html-keyboard-response","421","1832169","0.0-8.0-0.0-15.5","05","<p><img class= 'stimulus' src='images/baseline/seoul-410266_1920.jpg'></img></p>","null","","1549589398593","","","","","","",""
"null","","html-keyboard-response","422","1832268","0.0-8.0-0.0-16.5","05","<p><img class= 'stimulus' src='images/baseline/house8.jpg'></img></p>","null","","1549589398695","","","","","","",""
"null","","html-keyboard-response","423","1832385","0.0-8.0-0.0-17.5","05","<p><img class= 'stimulus' src='images/baseline/Path 1.jpg'></img></p>","null","","1549589398794","","","","","","",""
"382.8999999987427","","html-button-response","424","1833771","0.0-8.0-0.0-18.5","05","<div class = ""response_question"">WAS THE IMAGE ROTATED...</div>","","3","","","6","2","neg","right","test","true"
"789.9999999990687","","html-button-response","425","1834563","0.0-8.0-0.0-0.6","05","","","0","","","","","","","",""
"null","","html-keyboard-response","426","1834635","0.0-8.0-0.0-1.6","05","<p><img class= 'stimulus' src='images/baseline/04284v.jpg'></img></p>","null","","1549589401061","","","","","","",""
"null","","html-keyboard-response","427","1834736","0.0-8.0-0.0-2.6","05","<p><img class= 'stimulus' src='images/baseline/pexels-photo-351264.jpeg'></img></p>","null","","1549589401160","","","","","","",""
"null","","html-keyboard-response","428","1834834","0.0-8.0-0.0-3.6","05","<p><img class= 'stimulus' src='images/baseline/pexels-photo-894312.jpeg'></img></p>","null","","1549589401260","","","","","","",""
"null","","html-keyboard-response","429","1834935","0.0-8.0-0.0-4.6","05","<p><img class= 'stimulus' src='images/baseline/pexels-photo-1837621.jpeg'></img></p>","null","","1549589401360","4","","","","","",""
"null","","html-keyboard-response","430","1835034","0.0-8.0-0.0-5.6","05","<p><img class= 'stimulus' src='images/baseline/town-square-in-wroclaw-1539098440MZy.jpg'></img></p>","null","","1549589401462","","","","","","",""
"null","","html-keyboard-response","431","1835134","0.0-8.0-0.0-6.6","05","<p><img class= 'stimulus' src='images/neutral/cattle.jpg'></img></p>","null","","1549589401561","6","","","","","",""
"null","","html-keyboard-response","432","1835235","0.0-8.0-0.0-7.6","05","<p><img class= 'stimulus' src='images/baseline/02960v.jpg'></img></p>","null","","1549589401659","","","","","","",""
"null","","html-keyboard-response","433","1835336","0.0-8.0-0.0-8.6","05","<p><img class= 'stimulus' src='images/baseline/05252v.jpg'></img></p>","null","","1549589401760","8","","","","","",""
"null","","html-keyboard-response","434","1835434","0.0-8.0-0.0-9.6","05","<p><img class= 'stimulus' src='images/baseline/pexels-photo-221125.jpeg'></img></p>","null","","1549589401860","","","","","","",""
"null","","html-keyboard-response","435","1835535","0.0-8.0-0.0-10.6","05","<p><img class= 'stimulus' src='images/baseline/Sunset 3.jpg'></img></p>","null","","1549589401961","","","","","","",""
"null","","html-keyboard-response","436","1835635","0.0-8.0-0.0-11.6","05","<p><img class= 'stimulus' src='images/baseline/landscape35.jpg'></img></p>","null","","1549589402060","","","","","","",""
"null","","html-keyboard-response","437","1835736","0.0-8.0-0.0-12.6","05","<p><img class= 'stimulus' src='images/baseline/autumn-in-red-rocks-park.jpg'></img></p>","null","","1549589402160","12","","","","","",""
"null","","html-keyboard-response","438","1835835","0.0-8.0-0.0-13.6","05","<p><img class= 'stimulus' src='images/baseline/lake3.jpg'></img></p>","null","","1549589402261","","","","","","",""
"null","","html-keyboard-response","439","1835935","0.0-8.0-0.0-14.6","05","<p><img class= 'stimulus left-rotate' src='images/target/tree_2.jpg'></img></p>","null","","1549589402360","14","","","","","",""
"null","","html-keyboard-response","440","1836036","0.0-8.0-0.0-15.6","05","<p><img class= 'stimulus' src='images/baseline/landscape13.jpg'></img></p>","null","","1549589402460","","","","","","",""
"null","","html-keyboard-response","441","1836135","0.0-8.0-0.0-16.6","05","<p><img class= 'stimulus' src='images/baseline/Road 1.jpg'></img></p>","null","","1549589402560","","","","","","",""
"null","","html-keyboard-response","442","1836252","0.0-8.0-0.0-17.6","05","<p><img class= 'stimulus' src='images/baseline/Sky 1.jpg'></img></p>","null","","1549589402661","","","","","","",""
"395.8000000002794","","html-button-response","443","1837651","0.0-8.0-0.0-18.6","05","<div class = ""response_question"">WAS THE IMAGE ROTATED...</div>","","0","","","6","8","neu","left","test","true"
"974.2999999998137","","html-button-response","444","1838627","0.0-8.0-0.0-0.7","05","","","0","","","","","","","",""
"null","","html-keyboard-response","445","1838702","0.0-8.0-0.0-1.7","05","<p><img class= 'stimulus' src='images/baseline/landscape36.jpg'></img></p>","null","","1549589405128","","","","","","",""
"null","","html-keyboard-response","446","1838801","0.0-8.0-0.0-2.7","05","<p><img class= 'stimulus' src='images/baseline/04060v.jpg'></img></p>","null","","1549589405228","","","","","","",""
"null","","html-keyboard-response","447","1838902","0.0-8.0-0.0-3.7","05","<p><img class= 'stimulus' src='images/baseline/pexels-photo-459203.jpeg'></img></p>","null","","1549589405328","","","","","","",""
"null","","html-keyboard-response","448","1839001","0.0-8.0-0.0-4.7","05","<p><img class= 'stimulus' src='images/neutral/children-class-classroom-1720186 (1).jpg'></img></p>","null","","1549589405426","4","","","","","",""
"null","","html-keyboard-response","449","1839102","0.0-8.0-0.0-5.7","05","<p><img class= 'stimulus' src='images/baseline/Lake 15.jpg'></img></p>","null","","1549589405528","","","","","","",""
"null","","html-keyboard-response","450","1839202","0.0-8.0-0.0-6.7","05","<p><img class= 'stimulus' src='images/baseline/river 1.jpg'></img></p>","null","","1549589405627","6","","","","","",""
"null","","html-keyboard-response","451","1839301","0.0-8.0-0.0-7.7","05","<p><img class= 'stimulus' src='images/baseline/valley 2.jpg'></img></p>","null","","1549589405727","","","","","","",""
"null","","html-keyboard-response","452","1839402","0.0-8.0-0.0-8.7","05","<p><img class= 'stimulus' src='images/baseline/04229v.jpg'></img></p>","null","","1549589405827","8","","","","","",""
"null","","html-keyboard-response","453","1839502","0.0-8.0-0.0-9.7","05","<p><img class= 'stimulus' src='images/baseline/Street 1.jpg'></img></p>","null","","1549589405926","","","","","","",""
"null","","html-keyboard-response","454","1839602","0.0-8.0-0.0-10.7","05","<p><img class= 'stimulus' src='images/baseline/farmhouse3.jpg'></img></p>","null","","1549589406027","","","","","","",""
"null","","html-keyboard-response","455","1839702","0.0-8.0-0.0-11.7","05","<p><img class= 'stimulus' src='images/baseline/valley 1.jpg'></img></p>","null","","1549589406127","","","","","","",""
"null","","html-keyboard-response","456","1839802","0.0-8.0-0.0-12.7","05","<p><img class= 'stimulus left-rotate' src='images/target/cactus2.jpg'></img></p>","null","","1549589406227","12","","","","","",""
"null","","html-keyboard-response","457","1839903","0.0-8.0-0.0-13.7","05","<p><img class= 'stimulus' src='images/baseline/05186v.jpg'></img></p>","null","","1549589406328","","","","","","",""
"null","","html-keyboard-response","458","1840002","0.0-8.0-0.0-14.7","05","<p><img class= 'stimulus' src='images/baseline/pexels-photo-750108.jpeg'></img></p>","null","","1549589406428","14","","","","","",""
"null","","html-keyboard-response","459","1840101","0.0-8.0-0.0-15.7","05","<p><img class= 'stimulus' src='images/baseline/tennis-court-net-buried-in-snow.jpg'></img></p>","null","","1549589406526","","","","","","",""
"null","","html-keyboard-response","460","1840201","0.0-8.0-0.0-16.7","05","<p><img class= 'stimulus' src='images/baseline/house6.jpg'></img></p>","null","","1549589406626","","","","","","",""
"null","","html-keyboard-response","461","1840318","0.0-8.0-0.0-17.7","05","<p><img class= 'stimulus' src='images/baseline/landscape16.jpg'></img></p>","null","","1549589406728","","","","","","",""
"384.39999999897555","","html-button-response","462","1841707","0.0-8.0-0.0-18.7","05","<div class = ""response_question"">WAS THE IMAGE ROTATED...</div>","","1","","","4","8","neu","left","test","true"
"814.3000000000466","","html-button-response","463","1842523","0.0-8.0-0.0-0.8","05","","","0","","","","","","","",""
"null","","html-keyboard-response","464","1842602","0.0-8.0-0.0-1.8","05","<p><img class= 'stimulus' src='images/baseline/house11.jpg'></img></p>","null","","1549589409027","","","","","","",""
"null","","html-keyboard-response","465","1842702","0.0-8.0-0.0-2.8","05","<p><img class= 'stimulus' src='images/baseline/03041v.jpg'></img></p>","null","","1549589409128","","","","","","",""
"null","","html-keyboard-response","466","1842801","0.0-8.0-0.0-3.8","05","<p><img class= 'stimulus' src='images/baseline/sunny-landscape-with-dry-brush-and-mountain-background.jpg'></img></p>","null","","1549589409228","","","","","","",""
"null","","html-keyboard-response","467","1842901","0.0-8.0-0.0-4.8","05","<p><img class= 'stimulus' src='images/baseline/building6.jpg'></img></p>","null","","1549589409328","4","","","","","",""
"null","","html-keyboard-response","468","1843001","0.0-8.0-0.0-5.8","05","<p><img class= 'stimulus' src='images/baseline/03056v.jpg'></img></p>","null","","1549589409426","","","","","","",""
"null","","html-keyboard-response","469","1843102","0.0-8.0-0.0-6.8","05","<p><img class= 'stimulus' src='images/baseline/field 3.jpg'></img></p>","null","","1549589409527","6","","","","","",""
"null","","html-keyboard-response","470","1843201","0.0-8.0-0.0-7.8","05","<p><img class= 'stimulus' src='images/baseline/__08_-_ITALY_-_Forli_under_snow_-_winter_landscape_of_city_(christmas).jpg'></img></p>","null","","1549589409628","","","","","","",""
"null","","html-keyboard-response","471","1843301","0.0-8.0-0.0-8.8","05","<p><img class= 'stimulus' src='images/baseline/Paysage_karabagh_02.jpg'></img></p>","null","","1549589409726","8","","","","","",""
"null","","html-keyboard-response","472","1843403","0.0-8.0-0.0-9.8","05","<p><img class= 'stimulus' src='images/baseline/Beach 3.jpg'></img></p>","null","","1549589409827","","","","","","",""
"null","","html-keyboard-response","473","1843502","0.0-8.0-0.0-10.8","05","<p><img class= 'stimulus' src='images/baseline/landscape4.jpg'></img></p>","null","","1549589409927","","","","","","",""
"null","","html-keyboard-response","474","1843602","0.0-8.0-0.0-11.8","05","<p><img class= 'stimulus' src='images/baseline/Linden,_paysage.jpg'></img></p>","null","","1549589410028","","","","","","",""
"null","","html-keyboard-response","475","1843701","0.0-8.0-0.0-12.8","05","<p><img class= 'stimulus' src='images/target/tree.jpeg'></img></p>","null","","1549589410128","12","","","","","",""
"null","","html-keyboard-response","476","1843802","0.0-8.0-0.0-13.8","05","<p><img class= 'stimulus' src='images/baseline/house2.jpg'></img></p>","null","","1549589410227","","","","","","",""
"null","","html-keyboard-response","477","1843901","0.0-8.0-0.0-14.8","05","<p><img class= 'stimulus' src='images/baseline/farmhouse8.jpg'></img></p>","null","","1549589410328","14","","","","","",""
"null","","html-keyboard-response","478","1844001","0.0-8.0-0.0-15.8","05","<p><img class= 'stimulus' src='images/baseline/kokkari-1523011968Xfr.jpg'></img></p>","null","","1549589410428","","","","","","",""
"null","","html-keyboard-response","479","1844101","0.0-8.0-0.0-16.8","05","<p><img class= 'stimulus' src='images/baseline/architecture-1314416_1920.jpg'></img></p>","null","","1549589410527","","","","","","",""
"null","","html-keyboard-response","480","1844219","0.0-8.0-0.0-17.8","05","<p><img class= 'stimulus' src='images/baseline/landscape22.jpg'></img></p>","null","","1549589410628","","","","","","",""
"333.8000000002794","","html-button-response","481","1845555","0.0-8.0-0.0-18.8","05","<div class = ""response_question"">WAS THE IMAGE ROTATED...</div>","","4","","","4","8","bas","right","test","true"
"798.1999999992549","","html-button-response","482","1846355","0.0-8.0-0.0-0.9","05","","","0","","","","","","","",""
"null","","html-keyboard-response","483","1846436","0.0-8.0-0.0-1.9","05","<p><img class= 'stimulus' src='images/baseline/Lake 13.jpg'></img></p>","null","","1549589412861","","","","","","",""
"null","","html-keyboard-response","484","1846536","0.0-8.0-0.0-2.9","05","<p><img class= 'stimulus' src='images/baseline/04014v.jpg'></img></p>","null","","1549589412960","","","","","","",""
"null","","html-keyboard-response","485","1846635","0.0-8.0-0.0-3.9","05","<p><img class= 'stimulus' src='images/baseline/farmhouse2.jpg'></img></p>","null","","1549589413060","","","","","","",""
"null","","html-keyboard-response","486","1846735","0.0-8.0-0.0-4.9","05","<p><img class= 'stimulus' src='images/baseline/pexels-photo-541101.jpeg'></img></p>","null","","1549589413161","4","","","","","",""
"null","","html-keyboard-response","487","1846837","0.0-8.0-0.0-5.9","05","<p><img class= 'stimulus' src='images/baseline/05242v.jpg'></img></p>","null","","1549589413260","","","","","","",""
"null","","html-keyboard-response","488","1846935","0.0-8.0-0.0-6.9","05","<p><img class= 'stimulus' src='images/baseline/trees 23.jpg'></img></p>","null","","1549589413360","6","","","","","",""
"null","","html-keyboard-response","489","1847035","0.0-8.0-0.0-7.9","05","<p><img class= 'stimulus' src='images/baseline/05131v.jpg'></img></p>","null","","1549589413461","","","","","","",""
"null","","html-keyboard-response","490","1847135","0.0-8.0-0.0-8.9","05","<p><img class= 'stimulus' src='images/baseline/05179v.jpg'></img></p>","null","","1549589413562","8","","","","","",""
"null","","html-keyboard-response","491","1847235","0.0-8.0-0.0-9.9","05","<p><img class= 'stimulus' src='images/baseline/farmhouse11.jpg'></img></p>","null","","1549589413661","","","","","","",""
"null","","html-keyboard-response","492","1847334","0.0-8.0-0.0-10.9","05","<p><img class= 'stimulus' src='images/baseline/04179v.jpg'></img></p>","null","","1549589413760","","","","","","",""
"null","","html-keyboard-response","493","1847435","0.0-8.0-0.0-11.9","05","<p><img class= 'stimulus' src='images/baseline/03114v.jpg'></img></p>","null","","1549589413860","","","","","","",""
"null","","html-keyboard-response","494","1847535","0.0-8.0-0.0-12.9","05","<p><img class= 'stimulus' src='images/target/skyscraper-3855012_640.jpg'></img></p>","null","","1549589413959","12","","","","","",""
"null","","html-keyboard-response","495","1847635","0.0-8.0-0.0-13.9","05","<p><img class= 'stimulus' src='images/baseline/pexels-photo-1261728.jpeg'></img></p>","null","","1549589414061","","","","","","",""
"null","","html-keyboard-response","496","1847735","0.0-8.0-0.0-14.9","05","<p><img class= 'stimulus' src='images/baseline/road.jpg'></img></p>","null","","1549589414161","14","","","","","",""
"null","","html-keyboard-response","497","1847835","0.0-8.0-0.0-15.9","05","<p><img class= 'stimulus' src='images/baseline/agriculture-cereal-clouds-175389.jpg'></img></p>","null","","1549589414260","","","","","","",""
"null","","html-keyboard-response","498","1847936","0.0-8.0-0.0-16.9","05","<p><img class= 'stimulus' src='images/baseline/farmhouse7.jpg'></img></p>","null","","1549589414360","","","","","","",""
"null","","html-keyboard-response","499","1848051","0.0-8.0-0.0-17.9","05","<p><img class= 'stimulus' src='images/baseline/Beach 2.jpg'></img></p>","null","","1549589414461","","","","","","",""
"388.7000000013504","","html-button-response","500","1849444","0.0-8.0-0.0-18.9","05","<div class = ""response_question"">WAS THE IMAGE ROTATED...</div>","","4","","","4","8","bas","right","test","true"
"702.1999999997206","","html-button-response","501","1850147","0.0-8.0-0.0-0.10","05","","","0","","","","","","","",""
"null","","html-keyboard-response","502","1850219","0.0-8.0-0.0-1.10","05","<p><img class= 'stimulus' src='images/baseline/04130v.jpg'></img></p>","null","","1549589416644","","","","","","",""
"null","","html-keyboard-response","503","1850318","0.0-8.0-0.0-2.10","05","<p><img class= 'stimulus' src='images/baseline/Niinsaare_jarv.jpg'></img></p>","null","","1549589416744","","","","","","",""
"null","","html-keyboard-response","504","1850418","0.0-8.0-0.0-3.10","05","<p><img class= 'stimulus' src='images/baseline/03180v.jpg'></img></p>","null","","1549589416844","","","","","","",""
"null","","html-keyboard-response","505","1850518","0.0-8.0-0.0-4.10","05","<p><img class= 'stimulus' src='images/baseline/05198v.jpg'></img></p>","null","","1549589416945","4","","","","","",""
"null","","html-keyboard-response","506","1850619","0.0-8.0-0.0-5.10","05","<p><img class= 'stimulus' src='images/baseline/building8.jpg'></img></p>","null","","1549589417043","","","","","","",""
"null","","html-keyboard-response","507","1850719","0.0-8.0-0.0-6.10","05","<p><img class= 'stimulus' src='images/negative/Snake 6.jpg'></img></p>","null","","1549589417145","6","","","","","",""
