"rt","responses","trial_type","trial_index","time_elapsed","internal_node_id","participant_id","stimulus","key_press","button_pressed","stim_onset","sequence_position","distractor_position","target_lag","distractor_type","target_orientation","phase","correct"
"18302.400000000034","{""Q0"":""32""}","survey-text","0","18307","0.0-0.0","32","","","","","","","","","","",""
"2296094.5000000005","","html-keyboard-response","1","2314411","0.0-1.0","32","Welcome to the experiment.","67","","","","","","","","",""
"18514.900000000373","","html-button-response","2","2332930","0.0-2.0","32","<p>Several images will be presented sequentially.        Each image will only be on the screen for about 100 milliseconds.</p>        <p> One of the images may be rotated 90 degrees right or left.        Watch for this image and remember if it is rotated right or left.</p>               <p>Images of people and animals will appear, and sometimes they will be unpleasant.        These will never be the rotated target image.</p>","","0","","","","","","","",""
"4533.999999999534","","html-button-response","3","2337466","0.0-3.0","32","<p><img class=""stimulus left-rotate"" src=""images/target/building15.jpg""></img></p><p>This is an example of an image rotated to the left.</p>","","0","","","","","","","",""
"1774.7999999998137","","html-button-response","4","2339242","0.0-4.0","32","<p><img class=""stimulus"" src=""images/target/9525-a-lonely-single-tree-in-a-field-pv.jpg""></img></p><p>This is an example of an image rotated to the right.</p>","","0","","","","","","","",""
"12598.999999999534","","html-button-response","5","2351842","0.0-5.0","32","<p>We will now begin a short practice session.</p>         <p>A + symbol will appear in the middle of the screen. Please fix your gaze on the center of the +, and then click the mouse button to begin the image sequence.</p>         <p>Please avoid blinking or eye movements while the images are on the screen.</p>        <p>The image sequence will start relatively slow. After a few sequences, it will speed up.</p>","","0","","","","","","","",""
"5773.299999999814","","html-button-response","6","2357617","0.0-6.0-0.0","32","","","0","","","","","","","",""
"null","","html-keyboard-response","7","2357791","0.0-6.0-1.0","32","<p><img class= 'stimulus' src='images/baseline/pexels-photo-1054289.jpeg'></img></p>","null","","1550932951851","","","","","","",""
"null","","html-keyboard-response","8","2357992","0.0-6.0-2.0","32","<p><img class= 'stimulus' src='images/baseline/lookout_tower.jpg'></img></p>","null","","1550932952051","","","","","","",""
"null","","html-keyboard-response","9","2358192","0.0-6.0-3.0","32","<p><img class= 'stimulus' src='images/baseline/Lake 14.jpg'></img></p>","null","","1550932952251","","","","","","",""
"null","","html-keyboard-response","10","2358393","0.0-6.0-4.0","32","<p><img class= 'stimulus' src='images/baseline/landscape8.jpg'></img></p>","null","","1550932952452","4","","","","","",""
"null","","html-keyboard-response","11","2358593","0.0-6.0-5.0","32","<p><img class= 'stimulus' src='images/baseline/03114v.jpg'></img></p>","null","","1550932952652","","","","","","",""
"null","","html-keyboard-response","12","2358793","0.0-6.0-6.0","32","<p><img class= 'stimulus' src='images/baseline/Sunset 3.jpg'></img></p>","null","","1550932952852","6","","","","","",""
"null","","html-keyboard-response","13","2358992","0.0-6.0-7.0","32","<p><img class= 'stimulus' src='images/baseline/Lake 15.jpg'></img></p>","null","","1550932953051","","","","","","",""
"null","","html-keyboard-response","14","2359195","0.0-6.0-8.0","32","<p><img class= 'stimulus' src='images/target/building2.jpg'></img></p>","null","","1550932953253","8","","","","","",""
"null","","html-keyboard-response","15","2359395","0.0-6.0-9.0","32","<p><img class= 'stimulus' src='images/baseline/04021v.jpg'></img></p>","null","","1550932953453","","","","","","",""
"null","","html-keyboard-response","16","2359594","0.0-6.0-10.0","32","<p><img class= 'stimulus' src='images/baseline/Beach 2.jpg'></img></p>","null","","1550932953652","","","","","","",""
"null","","html-keyboard-response","17","2359795","0.0-6.0-11.0","32","<p><img class= 'stimulus' src='images/baseline/lone-old-cottonwood-tree.jpg'></img></p>","null","","1550932953853","","","","","","",""
"null","","html-keyboard-response","18","2359995","0.0-6.0-12.0","32","<p><img class= 'stimulus' src='images/baseline/05161v.jpg'></img></p>","null","","1550932954053","12","","","","","",""
"null","","html-keyboard-response","19","2360195","0.0-6.0-13.0","32","<p><img class= 'stimulus' src='images/baseline/Kocherbaumwald-01.jpg'></img></p>","null","","1550932954253","","","","","","",""
"null","","html-keyboard-response","20","2360395","0.0-6.0-14.0","32","<p><img class= 'stimulus' src='images/baseline/02960v.jpg'></img></p>","null","","1550932954453","14","","","","","",""
"null","","html-keyboard-response","21","2360595","0.0-6.0-15.0","32","<p><img class= 'stimulus' src='images/baseline/red rocks from afar.jpg'></img></p>","null","","1550932954652","","","","","","",""
"null","","html-keyboard-response","22","2360795","0.0-6.0-16.0","32","<p><img class= 'stimulus' src='images/baseline/architecture-956332_1280.jpg'></img></p>","null","","1550932954853","","","","","","",""
"null","","html-keyboard-response","23","2361011","0.0-6.0-17.0","32","<p><img class= 'stimulus' src='images/baseline/02947v.jpg'></img></p>","null","","1550932955052","","","","","","",""
"3882","","html-button-response","24","2365897","0.0-6.0-18.0","32","<div class = ""response_question"">WAS THE IMAGE ROTATED...</div>","","2","","","6","2","bas","right","practice","false"
"4309.800000000279","","html-button-response","25","2370209","0.0-6.0-0.1","32","","","0","","","","","","","",""
"null","","html-keyboard-response","26","2370394","0.0-6.0-1.1","32","<p><img class= 'stimulus' src='images/baseline/landscape29.jpg'></img></p>","null","","1550932964452","","","","","","",""
"null","","html-keyboard-response","27","2370594","0.0-6.0-2.1","32","<p><img class= 'stimulus' src='images/baseline/04158v.jpg'></img></p>","null","","1550932964652","","","","","","",""
"null","","html-keyboard-response","28","2370795","0.0-6.0-3.1","32","<p><img class= 'stimulus' src='images/baseline/Sunset 5.jpg'></img></p>","null","","1550932964852","","","","","","",""
"null","","html-keyboard-response","29","2370994","0.0-6.0-4.1","32","<p><img class= 'stimulus' src='images/baseline/landscape13.jpg'></img></p>","null","","1550932965052","4","","","","","",""
"null","","html-keyboard-response","30","2371194","0.0-6.0-5.1","32","<p><img class= 'stimulus' src='images/baseline/05179v.jpg'></img></p>","null","","1550932965252","","","","","","",""
"null","","html-keyboard-response","31","2371394","0.0-6.0-6.1","32","<p><img class= 'stimulus' src='images/baseline/Sunset 6.jpg'></img></p>","null","","1550932965452","6","","","","","",""
"null","","html-keyboard-response","32","2371594","0.0-6.0-7.1","32","<p><img class= 'stimulus' src='images/baseline/04162v.jpg'></img></p>","null","","1550932965651","","","","","","",""
"null","","html-keyboard-response","33","2371793","0.0-6.0-8.1","32","<p><img class= 'stimulus' src='images/baseline/05186v.jpg'></img></p>","null","","1550932965852","8","","","","","",""
"null","","html-keyboard-response","34","2371994","0.0-6.0-9.1","32","<p><img class= 'stimulus' src='images/baseline/Linden,_paysage.jpg'></img></p>","null","","1550932966052","","","","","","",""
"null","","html-keyboard-response","35","2372194","0.0-6.0-10.1","32","<p><img class= 'stimulus' src='images/baseline/03212v.jpg'></img></p>","null","","1550932966251","","","","","","",""
"null","","html-keyboard-response","36","2372395","0.0-6.0-11.1","32","<p><img class= 'stimulus' src='images/baseline/farmhouse9.jpg'></img></p>","null","","1550932966453","","","","","","",""
"null","","html-keyboard-response","37","2372594","0.0-6.0-12.1","32","<p><img class= 'stimulus' src='images/baseline/pexels-photo-568236.jpeg'></img></p>","null","","1550932966653","12","","","","","",""
"null","","html-keyboard-response","38","2372794","0.0-6.0-13.1","32","<p><img class= 'stimulus' src='images/baseline/landscape2.jpg'></img></p>","null","","1550932966853","","","","","","",""
"null","","html-keyboard-response","39","2372994","0.0-6.0-14.1","32","<p><img class= 'stimulus' src='images/target/lone-tree-1934897_640.jpg'></img></p>","null","","1550932967052","14","","","","","",""
"null","","html-keyboard-response","40","2373195","0.0-6.0-15.1","32","<p><img class= 'stimulus' src='images/baseline/landscape16.jpg'></img></p>","null","","1550932967253","","","","","","",""
"null","","html-keyboard-response","41","2373394","0.0-6.0-16.1","32","<p><img class= 'stimulus' src='images/baseline/05252v.jpg'></img></p>","null","","1550932967453","","","","","","",""
"null","","html-keyboard-response","42","2373612","0.0-6.0-17.1","32","<p><img class= 'stimulus' src='images/baseline/lake 1.jpg'></img></p>","null","","1550932967653","","","","","","",""
"1700.6999999997206","","html-button-response","43","2376322","0.0-6.0-18.1","32","<div class = ""response_question"">WAS THE IMAGE ROTATED...</div>","","3","","","6","8","bas","right","practice","true"
"3742.2000000001863","","html-button-response","44","2380066","0.0-6.0-0.2","32","","","0","","","","","","","",""
"null","","html-keyboard-response","45","2380245","0.0-6.0-1.2","32","<p><img class= 'stimulus' src='images/baseline/agriculture-countryside-crop-259280.jpg'></img></p>","null","","1550932974304","","","","","","",""
"null","","html-keyboard-response","46","2380445","0.0-6.0-2.2","32","<p><img class= 'stimulus' src='images/baseline/04063v.jpg'></img></p>","null","","1550932974504","","","","","","",""
"null","","html-keyboard-response","47","2380644","0.0-6.0-3.2","32","<p><img class= 'stimulus' src='images/baseline/04010v.jpg'></img></p>","null","","1550932974703","","","","","","",""
"null","","html-keyboard-response","48","2380845","0.0-6.0-4.2","32","<p><img class= 'stimulus' src='images/baseline/lake3.jpg'></img></p>","null","","1550932974902","4","","","","","",""
"null","","html-keyboard-response","49","2381044","0.0-6.0-5.2","32","<p><img class= 'stimulus' src='images/baseline/Street 3.jpg'></img></p>","null","","1550932975104","","","","","","",""
"null","","html-keyboard-response","50","2381244","0.0-6.0-6.2","32","<p><img class= 'stimulus left-rotate' src='images/target/tree.jpeg'></img></p>","null","","1550932975303","6","","","","","",""
"null","","html-keyboard-response","51","2381444","0.0-6.0-7.2","32","<p><img class= 'stimulus' src='images/baseline/03112v.jpg'></img></p>","null","","1550932975503","","","","","","",""
"null","","html-keyboard-response","52","2381644","0.0-6.0-8.2","32","<p><img class= 'stimulus' src='images/baseline/02982v.jpg'></img></p>","null","","1550932975704","8","","","","","",""
"null","","html-keyboard-response","53","2381845","0.0-6.0-9.2","32","<p><img class= 'stimulus' src='images/baseline/Beach 3.jpg'></img></p>","null","","1550932975903","","","","","","",""
"null","","html-keyboard-response","54","2382046","0.0-6.0-10.2","32","<p><img class= 'stimulus' src='images/baseline/landscape33.jpg'></img></p>","null","","1550932976103","","","","","","",""
"null","","html-keyboard-response","55","2382244","0.0-6.0-11.2","32","<p><img class= 'stimulus' src='images/baseline/03220v.jpg'></img></p>","null","","1550932976303","","","","","","",""
"null","","html-keyboard-response","56","2382445","0.0-6.0-12.2","32","<p><img class= 'stimulus' src='images/baseline/landscape23.jpg'></img></p>","null","","1550932976504","12","","","","","",""
"null","","html-keyboard-response","57","2382644","0.0-6.0-13.2","32","<p><img class= 'stimulus' src='images/baseline/04117v.jpg'></img></p>","null","","1550932976702","","","","","","",""
"null","","html-keyboard-response","58","2382843","0.0-6.0-14.2","32","<p><img class= 'stimulus' src='images/baseline/05240v.jpg'></img></p>","null","","1550932976902","14","","","","","",""
"null","","html-keyboard-response","59","2383044","0.0-6.0-15.2","32","<p><img class= 'stimulus' src='images/baseline/pexels-photo-750108.jpeg'></img></p>","null","","1550932977103","","","","","","",""
"null","","html-keyboard-response","60","2383244","0.0-6.0-16.2","32","<p><img class= 'stimulus' src='images/baseline/farmhouse1.jpg'></img></p>","null","","1550932977302","","","","","","",""
"null","","html-keyboard-response","61","2383461","0.0-6.0-17.2","32","<p><img class= 'stimulus' src='images/baseline/farmhouse8.jpg'></img></p>","null","","1550932977502","","","","","","",""
"1528.8999999999069","","html-button-response","62","2385994","0.0-6.0-18.2","32","<div class = ""response_question"">WAS THE IMAGE ROTATED...</div>","","0","","","4","2","bas","left","practice","true"
"2246.399999999907","","html-button-response","63","2388241","0.0-6.0-0.3","32","","","0","","","","","","","",""
"null","","html-keyboard-response","64","2388427","0.0-6.0-1.3","32","<p><img class= 'stimulus' src='images/baseline/Skyscraper 2.jpg'></img></p>","null","","1550932982485","","","","","","",""
"null","","html-keyboard-response","65","2388628","0.0-6.0-2.3","32","<p><img class= 'stimulus' src='images/baseline/05203v.jpg'></img></p>","null","","1550932982687","","","","","","",""
"null","","html-keyboard-response","66","2388827","0.0-6.0-3.3","32","<p><img class= 'stimulus' src='images/baseline/Skyscraper 1.jpg'></img></p>","null","","1550932982886","","","","","","",""
"null","","html-keyboard-response","67","2389028","0.0-6.0-4.3","32","<p><img class= 'stimulus' src='images/baseline/sunny-landscape-with-dry-brush-and-mountain-background.jpg'></img></p>","null","","1550932983085","4","","","","","",""
"null","","html-keyboard-response","68","2389227","0.0-6.0-5.3","32","<p><img class= 'stimulus' src='images/baseline/chicago-skyline-at-night-1476869511p8U.jpg'></img></p>","null","","1550932983285","","","","","","",""
"null","","html-keyboard-response","69","2389428","0.0-6.0-6.3","32","<p><img class= 'stimulus' src='images/baseline/02977v.jpg'></img></p>","null","","1550932983487","6","","","","","",""
"null","","html-keyboard-response","70","2389627","0.0-6.0-7.3","32","<p><img class= 'stimulus' src='images/baseline/05189v.jpg'></img></p>","null","","1550932983686","","","","","","",""
"null","","html-keyboard-response","71","2389829","0.0-6.0-8.3","32","<p><img class= 'stimulus left-rotate' src='images/target/pexels-photo-1123982.jpeg'></img></p>","null","","1550932983886","8","","","","","",""
"null","","html-keyboard-response","72","2390028","0.0-6.0-9.3","32","<p><img class= 'stimulus' src='images/baseline/Street 4.jpg'></img></p>","null","","1550932984087","","","","","","",""
"null","","html-keyboard-response","73","2390228","0.0-6.0-10.3","32","<p><img class= 'stimulus' src='images/baseline/Beach 8.jpg'></img></p>","null","","1550932984286","","","","","","",""
"null","","html-keyboard-response","74","2390428","0.0-6.0-11.3","32","<p><img class= 'stimulus' src='images/baseline/landscape19.jpg'></img></p>","null","","1550932984486","","","","","","",""
"null","","html-keyboard-response","75","2390629","0.0-6.0-12.3","32","<p><img class= 'stimulus' src='images/baseline/03204v.jpg'></img></p>","null","","1550932984687","12","","","","","",""
"null","","html-keyboard-response","76","2390827","0.0-6.0-13.3","32","<p><img class= 'stimulus' src='images/baseline/04179v.jpg'></img></p>","null","","1550932984886","","","","","","",""
"null","","html-keyboard-response","77","2391028","0.0-6.0-14.3","32","<p><img class= 'stimulus' src='images/baseline/landscape3.jpg'></img></p>","null","","1550932985087","14","","","","","",""
"null","","html-keyboard-response","78","2391227","0.0-6.0-15.3","32","<p><img class= 'stimulus' src='images/baseline/pexels-photo-808465.jpeg'></img></p>","null","","1550932985286","","","","","","",""
"null","","html-keyboard-response","79","2391428","0.0-6.0-16.3","32","<p><img class= 'stimulus' src='images/baseline/04064v.jpg'></img></p>","null","","1550932985487","","","","","","",""
"null","","html-keyboard-response","80","2391645","0.0-6.0-17.3","32","<p><img class= 'stimulus' src='images/baseline/landscape22.jpg'></img></p>","null","","1550932985687","","","","","","",""
"2599.5","","html-button-response","81","2395250","0.0-6.0-18.3","32","<div class = ""response_question"">WAS THE IMAGE ROTATED...</div>","","0","","","6","2","bas","left","practice","true"
"3502.2000000001863","","html-button-response","82","2398754","0.0-6.0-0.4","32","","","0","","","","","","","",""
"null","","html-keyboard-response","83","2398877","0.0-6.0-1.4","32","<p><img class= 'stimulus' src='images/baseline/seoul-410266_1920.jpg'></img></p>","null","","1550932992986","","","","","","",""
"null","","html-keyboard-response","84","2399027","0.0-6.0-2.4","32","<p><img class= 'stimulus' src='images/baseline/farmhouse6.jpg'></img></p>","null","","1550932993137","","","","","","",""
"null","","html-keyboard-response","85","2399177","0.0-6.0-3.4","32","<p><img class= 'stimulus' src='images/baseline/farmhouse2.jpg'></img></p>","null","","1550932993286","","","","","","",""
"null","","html-keyboard-response","86","2399328","0.0-6.0-4.4","32","<p><img class= 'stimulus' src='images/baseline/field 1.jpg'></img></p>","null","","1550932993435","4","","","","","",""
"null","","html-keyboard-response","87","2399478","0.0-6.0-5.4","32","<p><img class= 'stimulus' src='images/baseline/Sailing 3.jpg'></img></p>","null","","1550932993585","","","","","","",""
"null","","html-keyboard-response","88","2399627","0.0-6.0-6.4","32","<p><img class= 'stimulus' src='images/baseline/05198v.jpg'></img></p>","null","","1550932993736","6","","","","","",""
"null","","html-keyboard-response","89","2399777","0.0-6.0-7.4","32","<p><img class= 'stimulus' src='images/baseline/meadow-with-mountain-in-background.jpg'></img></p>","null","","1550932993886","","","","","","",""
"null","","html-keyboard-response","90","2399927","0.0-6.0-8.4","32","<p><img class= 'stimulus' src='images/baseline/Street 5.jpg'></img></p>","null","","1550932994036","8","","","","","",""
"null","","html-keyboard-response","91","2400077","0.0-6.0-9.4","32","<p><img class= 'stimulus' src='images/baseline/scenic-mountain-landscape.jpg'></img></p>","null","","1550932994186","","","","","","",""
"null","","html-keyboard-response","92","2400228","0.0-6.0-10.4","32","<p><img class= 'stimulus' src='images/baseline/tennis-court-net-buried-in-snow.jpg'></img></p>","null","","1550932994337","","","","","","",""
"null","","html-keyboard-response","93","2400378","0.0-6.0-11.4","32","<p><img class= 'stimulus' src='images/baseline/05242v.jpg'></img></p>","null","","1550932994486","","","","","","",""
"null","","html-keyboard-response","94","2400526","0.0-6.0-12.4","32","<p><img class= 'stimulus' src='images/target/house-estate-1100x733.jpg'></img></p>","null","","1550932994635","12","","","","","",""
"null","","html-keyboard-response","95","2400677","0.0-6.0-13.4","32","<p><img class= 'stimulus' src='images/baseline/05264v.jpg'></img></p>","null","","1550932994786","","","","","","",""
"null","","html-keyboard-response","96","2400827","0.0-6.0-14.4","32","<p><img class= 'stimulus' src='images/baseline/landscape38.jpg'></img></p>","null","","1550932994936","14","","","","","",""
"null","","html-keyboard-response","97","2400977","0.0-6.0-15.4","32","<p><img class= 'stimulus' src='images/baseline/lake 2.jpg'></img></p>","null","","1550932995085","","","","","","",""
"null","","html-keyboard-response","98","2401127","0.0-6.0-16.4","32","<p><img class= 'stimulus' src='images/baseline/03075v.jpg'></img></p>","null","","1550932995235","","","","","","",""
"null","","html-keyboard-response","99","2401293","0.0-6.0-17.4","32","<p><img class= 'stimulus' src='images/baseline/03217v.jpg'></img></p>","null","","1550932995385","","","","","","",""
"2920.399999999907","","html-button-response","100","2405218","0.0-6.0-18.4","32","<div class = ""response_question"">WAS THE IMAGE ROTATED...</div>","","3","","","4","8","bas","right","practice","true"
"1510.1999999997206","","html-button-response","101","2406730","0.0-6.0-0.5","32","","","0","","","","","","","",""
"null","","html-keyboard-response","102","2406860","0.0-6.0-1.5","32","<p><img class= 'stimulus' src='images/baseline/05255v.jpg'></img></p>","null","","1550933000969","","","","","","",""
"null","","html-keyboard-response","103","2407010","0.0-6.0-2.5","32","<p><img class= 'stimulus' src='images/baseline/Road 1.jpg'></img></p>","null","","1550933001118","","","","","","",""
"null","","html-keyboard-response","104","2407160","0.0-6.0-3.5","32","<p><img class= 'stimulus' src='images/baseline/04222v.jpg'></img></p>","null","","1550933001269","","","","","","",""
"null","","html-keyboard-response","105","2407310","0.0-6.0-4.5","32","<p><img class= 'stimulus' src='images/baseline/house3.jpg'></img></p>","null","","1550933001418","4","","","","","",""
"null","","html-keyboard-response","106","2407460","0.0-6.0-5.5","32","<p><img class= 'stimulus' src='images/baseline/road.jpg'></img></p>","null","","1550933001569","","","","","","",""
"null","","html-keyboard-response","107","2407610","0.0-6.0-6.5","32","<p><img class= 'stimulus' src='images/target/tree-3563269_640.jpg'></img></p>","null","","1550933001719","6","","","","","",""
"null","","html-keyboard-response","108","2407760","0.0-6.0-7.5","32","<p><img class= 'stimulus' src='images/baseline/04196v.jpg'></img></p>","null","","1550933001869","","","","","","",""
"null","","html-keyboard-response","109","2407910","0.0-6.0-8.5","32","<p><img class= 'stimulus' src='images/baseline/landscape35.jpg'></img></p>","null","","1550933002018","8","","","","","",""
"null","","html-keyboard-response","110","2408060","0.0-6.0-9.5","32","<p><img class= 'stimulus' src='images/baseline/farmhouse7.jpg'></img></p>","null","","1550933002168","","","","","","",""
"null","","html-keyboard-response","111","2408210","0.0-6.0-10.5","32","<p><img class= 'stimulus' src='images/baseline/pexels-photo-1048039.jpeg'></img></p>","null","","1550933002319","","","","","","",""
"null","","html-keyboard-response","112","2408360","0.0-6.0-11.5","32","<p><img class= 'stimulus' src='images/baseline/house2.jpg'></img></p>","null","","1550933002469","","","","","","",""
"null","","html-keyboard-response","113","2408510","0.0-6.0-12.5","32","<p><img class= 'stimulus' src='images/baseline/04031v.jpg'></img></p>","null","","1550933002619","12","","","","","",""
"null","","html-keyboard-response","114","2408660","0.0-6.0-13.5","32","<p><img class= 'stimulus' src='images/baseline/river 1.jpg'></img></p>","null","","1550933002768","","","","","","",""
"null","","html-keyboard-response","115","2408810","0.0-6.0-14.5","32","<p><img class= 'stimulus' src='images/baseline/pexels-photo-894312.jpeg'></img></p>","null","","1550933002919","14","","","","","",""
"null","","html-keyboard-response","116","2408960","0.0-6.0-15.5","32","<p><img class= 'stimulus' src='images/baseline/sunset-over-the-lake.jpg'></img></p>","null","","1550933003068","","","","","","",""
"null","","html-keyboard-response","117","2409110","0.0-6.0-16.5","32","<p><img class= 'stimulus' src='images/baseline/Lake 7.jpg'></img></p>","null","","1550933003218","","","","","","",""
"null","","html-keyboard-response","118","2409277","0.0-6.0-17.5","32","<p><img class= 'stimulus' src='images/baseline/house6.jpg'></img></p>","null","","1550933003368","","","","","","",""
"3384.7999999998137","","html-button-response","119","2413666","0.0-6.0-18.5","32","<div class = ""response_question"">WAS THE IMAGE ROTATED...</div>","","3","","","4","2","bas","right","practice","true"
"4062.600000000093","","html-button-response","120","2417730","0.0-6.0-0.6","32","","","0","","","","","","","",""
"null","","html-keyboard-response","121","2417859","0.0-6.0-1.6","32","<p><img class= 'stimulus' src='images/baseline/Paysage_enneige_02.jpg'></img></p>","null","","1550933011969","","","","","","",""
"null","","html-keyboard-response","122","2418010","0.0-6.0-2.6","32","<p><img class= 'stimulus' src='images/baseline/Dock 1.jpg'></img></p>","null","","1550933012119","","","","","","",""
"null","","html-keyboard-response","123","2418160","0.0-6.0-3.6","32","<p><img class= 'stimulus' src='images/baseline/04130v.jpg'></img></p>","null","","1550933012269","","","","","","",""
"null","","html-keyboard-response","124","2418309","0.0-6.0-4.6","32","<p><img class= 'stimulus' src='images/baseline/cyrillic.jpg'></img></p>","null","","1550933012419","4","","","","","",""
"null","","html-keyboard-response","125","2418460","0.0-6.0-5.6","32","<p><img class= 'stimulus' src='images/baseline/sun-through-winter-tree-branches1.jpg'></img></p>","null","","1550933012569","","","","","","",""
"null","","html-keyboard-response","126","2418610","0.0-6.0-6.6","32","<p><img class= 'stimulus' src='images/baseline/grand-teton-mountains.jpg'></img></p>","null","","1550933012719","6","","","","","",""
"null","","html-keyboard-response","127","2418759","0.0-6.0-7.6","32","<p><img class= 'stimulus' src='images/baseline/05280v.jpg'></img></p>","null","","1550933012869","","","","","","",""
"null","","html-keyboard-response","128","2418910","0.0-6.0-8.6","32","<p><img class= 'stimulus' src='images/baseline/landscape4.jpg'></img></p>","null","","1550933013018","8","","","","","",""
"null","","html-keyboard-response","129","2419060","0.0-6.0-9.6","32","<p><img class= 'stimulus' src='images/baseline/pexels-photo-1261728.jpeg'></img></p>","null","","1550933013169","","","","","","",""
"null","","html-keyboard-response","130","2419211","0.0-6.0-10.6","32","<p><img class= 'stimulus' src='images/baseline/03180v.jpg'></img></p>","null","","1550933013318","","","","","","",""
"null","","html-keyboard-response","131","2419361","0.0-6.0-11.6","32","<p><img class= 'stimulus' src='images/baseline/Bahia_Onelli_Parque_Nacional_Los_Glaciares_Patagonia_Argentina_Luca_Galuzzi_2005.jpg'></img></p>","null","","1550933013468","","","","","","",""
"null","","html-keyboard-response","132","2419510","0.0-6.0-12.6","32","<p><img class= 'stimulus' src='images/baseline/05158v.jpg'></img></p>","null","","1550933013618","12","","","","","",""
"null","","html-keyboard-response","133","2419660","0.0-6.0-13.6","32","<p><img class= 'stimulus' src='images/baseline/04098v.jpg'></img></p>","null","","1550933013769","","","","","","",""
"null","","html-keyboard-response","134","2419810","0.0-6.0-14.6","32","<p><img class= 'stimulus left-rotate' src='images/target/Wild-West-South-West-Usa-Landscape-America-1663497.jpg'></img></p>","null","","1550933013919","14","","","","","",""
"null","","html-keyboard-response","135","2419960","0.0-6.0-15.6","32","<p><img class= 'stimulus' src='images/baseline/house11.jpg'></img></p>","null","","1550933014068","","","","","","",""
"null","","html-keyboard-response","136","2420110","0.0-6.0-16.6","32","<p><img class= 'stimulus' src='images/baseline/empire-state-building.jpg'></img></p>","null","","1550933014218","","","","","","",""
"null","","html-keyboard-response","137","2420277","0.0-6.0-17.6","32","<p><img class= 'stimulus' src='images/baseline/farmhouse3.jpg'></img></p>","null","","1550933014369","","","","","","",""
"1435.6999999997206","","html-button-response","138","2422721","0.0-6.0-18.6","32","<div class = ""response_question"">WAS THE IMAGE ROTATED...</div>","","0","","","6","8","bas","left","practice","true"
"3518.5","","html-button-response","139","2426242","0.0-6.0-0.7","32","","","0","","","","","","","",""
"null","","html-keyboard-response","140","2426377","0.0-6.0-1.7","32","<p><img class= 'stimulus' src='images/baseline/03045v.jpg'></img></p>","null","","1550933020485","","","","","","",""
"null","","html-keyboard-response","141","2426527","0.0-6.0-2.7","32","<p><img class= 'stimulus' src='images/baseline/hills 3.jpg'></img></p>","null","","1550933020636","","","","","","",""
"null","","html-keyboard-response","142","2426676","0.0-6.0-3.7","32","<p><img class= 'stimulus' src='images/baseline/farmhouse11.jpg'></img></p>","null","","1550933020786","","","","","","",""
"null","","html-keyboard-response","143","2426828","0.0-6.0-4.7","32","<p><img class= 'stimulus' src='images/baseline/field 4.jpg'></img></p>","null","","1550933020936","4","","","","","",""
"null","","html-keyboard-response","144","2426976","0.0-6.0-5.7","32","<p><img class= 'stimulus' src='images/baseline/hills 1.jpg'></img></p>","null","","1550933021086","","","","","","",""
"null","","html-keyboard-response","145","2427127","0.0-6.0-6.7","32","<p><img class= 'stimulus' src='images/baseline/geese-flying-over-lake-at-dusk.jpg'></img></p>","null","","1550933021234","6","","","","","",""
"null","","html-keyboard-response","146","2427277","0.0-6.0-7.7","32","<p><img class= 'stimulus' src='images/baseline/bird-flying-at-sunset.jpg'></img></p>","null","","1550933021385","","","","","","",""
"null","","html-keyboard-response","147","2427427","0.0-6.0-8.7","32","<p><img class= 'stimulus' src='images/baseline/landscape15.jpg'></img></p>","null","","1550933021534","8","","","","","",""
"null","","html-keyboard-response","148","2427577","0.0-6.0-9.7","32","<p><img class= 'stimulus' src='images/baseline/04229v.jpg'></img></p>","null","","1550933021685","","","","","","",""
"null","","html-keyboard-response","149","2427726","0.0-6.0-10.7","32","<p><img class= 'stimulus' src='images/baseline/03148v.jpg'></img></p>","null","","1550933021836","","","","","","",""
"null","","html-keyboard-response","150","2427877","0.0-6.0-11.7","32","<p><img class= 'stimulus' src='images/baseline/autumn-in-red-rocks-park.jpg'></img></p>","null","","1550933021986","","","","","","",""
"null","","html-keyboard-response","151","2428027","0.0-6.0-12.7","32","<p><img class= 'stimulus left-rotate' src='images/target/pexels-photo-932328.jpeg'></img></p>","null","","1550933022136","12","","","","","",""
"null","","html-keyboard-response","152","2428177","0.0-6.0-13.7","32","<p><img class= 'stimulus' src='images/baseline/04193v.jpg'></img></p>","null","","1550933022285","","","","","","",""
"null","","html-keyboard-response","153","2428327","0.0-6.0-14.7","32","<p><img class= 'stimulus' src='images/baseline/agriculture-cereal-clouds-175389.jpg'></img></p>","null","","1550933022436","14","","","","","",""
"null","","html-keyboard-response","154","2428476","0.0-6.0-15.7","32","<p><img class= 'stimulus' src='images/baseline/field 2.jpg'></img></p>","null","","1550933022584","","","","","","",""
"null","","html-keyboard-response","155","2428628","0.0-6.0-16.7","32","<p><img class= 'stimulus' src='images/baseline/landscape7.jpg'></img></p>","null","","1550933022736","","","","","","",""
"null","","html-keyboard-response","156","2428793","0.0-6.0-17.7","32","<p><img class= 'stimulus' src='images/baseline/pexels-photo-221125.jpeg'></img></p>","null","","1550933022886","","","","","","",""
"1268.4000000003725","","html-button-response","157","2431067","0.0-6.0-18.7","32","<div class = ""response_question"">WAS THE IMAGE ROTATED...</div>","","0","","","4","8","bas","left","practice","true"
"1886.6000000000931","","html-button-response","158","2432954","0.0-6.0-0.8","32","","","0","","","","","","","",""
"null","","html-keyboard-response","159","2433027","0.0-6.0-1.8","32","<p><img class= 'stimulus' src='images/baseline/04086v.jpg'></img></p>","null","","1550933027185","","","","","","",""
"null","","html-keyboard-response","160","2433127","0.0-6.0-2.8","32","<p><img class= 'stimulus' src='images/baseline/architecture_modern_architecture_852928.jpg'></img></p>","null","","1550933027286","","","","","","",""
"null","","html-keyboard-response","161","2433226","0.0-6.0-3.8","32","<p><img class= 'stimulus' src='images/baseline/03098v.jpg'></img></p>","null","","1550933027386","","","","","","",""
"null","","html-keyboard-response","162","2433326","0.0-6.0-4.8","32","<p><img class= 'stimulus' src='images/baseline/04062v.jpg'></img></p>","null","","1550933027486","4","","","","","",""
"null","","html-keyboard-response","163","2433427","0.0-6.0-5.8","32","<p><img class= 'stimulus' src='images/baseline/farmhouse4.jpg'></img></p>","null","","1550933027585","","","","","","",""
"null","","html-keyboard-response","164","2433527","0.0-6.0-6.8","32","<p><img class= 'stimulus left-rotate' src='images/target/torrotito-375925_640.jpg'></img></p>","null","","1550933027686","6","","","","","",""
"null","","html-keyboard-response","165","2433627","0.0-6.0-7.8","32","<p><img class= 'stimulus' src='images/baseline/pexels-photo-541101.jpeg'></img></p>","null","","1550933027785","","","","","","",""
"null","","html-keyboard-response","166","2433726","0.0-6.0-8.8","32","<p><img class= 'stimulus' src='images/baseline/foreclosed_home.jpg'></img></p>","null","","1550933027885","8","","","","","",""
"null","","html-keyboard-response","167","2433827","0.0-6.0-9.8","32","<p><img class= 'stimulus' src='images/baseline/Cold 7.jpg'></img></p>","null","","1550933027986","","","","","","",""
"null","","html-keyboard-response","168","2433927","0.0-6.0-10.8","32","<p><img class= 'stimulus' src='images/baseline/pexels-photo-210617.jpeg'></img></p>","null","","1550933028085","","","","","","",""
"null","","html-keyboard-response","169","2434027","0.0-6.0-11.8","32","<p><img class= 'stimulus' src='images/baseline/landscape6.jpg'></img></p>","null","","1550933028186","","","","","","",""
"null","","html-keyboard-response","170","2434127","0.0-6.0-12.8","32","<p><img class= 'stimulus' src='images/baseline/Street 1.jpg'></img></p>","null","","1550933028286","12","","","","","",""
"null","","html-keyboard-response","171","2434228","0.0-6.0-13.8","32","<p><img class= 'stimulus' src='images/baseline/04014v.jpg'></img></p>","null","","1550933028386","","","","","","",""
"null","","html-keyboard-response","172","2434326","0.0-6.0-14.8","32","<p><img class= 'stimulus' src='images/baseline/house10.jpg'></img></p>","null","","1550933028485","14","","","","","",""
"null","","html-keyboard-response","173","2434426","0.0-6.0-15.8","32","<p><img class= 'stimulus' src='images/baseline/Paysage_karabagh_02.jpg'></img></p>","null","","1550933028586","","","","","","",""
"null","","html-keyboard-response","174","2434527","0.0-6.0-16.8","32","<p><img class= 'stimulus' src='images/baseline/pexels-photo-1840893.jpeg'></img></p>","null","","1550933028686","","","","","","",""
"null","","html-keyboard-response","175","2434644","0.0-6.0-17.8","32","<p><img class= 'stimulus' src='images/baseline/building2.jpg'></img></p>","null","","1550933028786","","","","","","",""
"2138.2999999998137","","html-button-response","176","2437786","0.0-6.0-18.8","32","<div class = ""response_question"">WAS THE IMAGE ROTATED...</div>","","5","","","4","2","bas","left","practice","false"
"2638.100000000093","","html-button-response","177","2440425","0.0-6.0-0.9","32","","","0","","","","","","","",""
"null","","html-keyboard-response","178","2440510","0.0-6.0-1.9","32","<p><img class= 'stimulus' src='images/baseline/05303v.jpg'></img></p>","null","","1550933034670","","","","","","",""
"null","","html-keyboard-response","179","2440610","0.0-6.0-2.9","32","<p><img class= 'stimulus' src='images/baseline/pexels-photo-427676.jpeg'></img></p>","null","","1550933034768","","","","","","",""
"null","","html-keyboard-response","180","2440710","0.0-6.0-3.9","32","<p><img class= 'stimulus' src='images/baseline/vintage-art-deco-storefront.jpg'></img></p>","null","","1550933034869","","","","","","",""
"null","","html-keyboard-response","181","2440810","0.0-6.0-4.9","32","<p><img class= 'stimulus' src='images/baseline/autumn-landscape-with-lake-fall-trees-mountains.jpg'></img></p>","null","","1550933034968","4","","","","","",""
"null","","html-keyboard-response","182","2440910","0.0-6.0-5.9","32","<p><img class= 'stimulus' src='images/baseline/05292v.jpg'></img></p>","null","","1550933035069","","","","","","",""
"null","","html-keyboard-response","183","2441011","0.0-6.0-6.9","32","<p><img class= 'stimulus' src='images/target/cactus2.jpg'></img></p>","null","","1550933035169","6","","","","","",""
"null","","html-keyboard-response","184","2441110","0.0-6.0-7.9","32","<p><img class= 'stimulus' src='images/baseline/building5.jpg'></img></p>","null","","1550933035269","","","","","","",""
"null","","html-keyboard-response","185","2441211","0.0-6.0-8.9","32","<p><img class= 'stimulus' src='images/baseline/landscape12.jpg'></img></p>","null","","1550933035368","8","","","","","",""
"null","","html-keyboard-response","186","2441310","0.0-6.0-9.9","32","<p><img class= 'stimulus' src='images/baseline/architecture-1314416_1920.jpg'></img></p>","null","","1550933035469","","","","","","",""
"null","","html-keyboard-response","187","2441411","0.0-6.0-10.9","32","<p><img class= 'stimulus' src='images/baseline/pexels-photo-351264.jpeg'></img></p>","null","","1550933035570","","","","","","",""
"null","","html-keyboard-response","188","2441510","0.0-6.0-11.9","32","<p><img class= 'stimulus' src='images/baseline/Niinsaare_jarv.jpg'></img></p>","null","","1550933035669","","","","","","",""
"null","","html-keyboard-response","189","2441610","0.0-6.0-12.9","32","<p><img class= 'stimulus' src='images/baseline/building8.jpg'></img></p>","null","","1550933035769","12","","","","","",""
"null","","html-keyboard-response","190","2441710","0.0-6.0-13.9","32","<p><img class= 'stimulus' src='images/baseline/cranes 1.jpg'></img></p>","null","","1550933035869","","","","","","",""
"null","","html-keyboard-response","191","2441810","0.0-6.0-14.9","32","<p><img class= 'stimulus' src='images/baseline/valley 2.jpg'></img></p>","null","","1550933035968","14","","","","","",""
"null","","html-keyboard-response","192","2441910","0.0-6.0-15.9","32","<p><img class= 'stimulus' src='images/baseline/hiking-trail.jpg'></img></p>","null","","1550933036070","","","","","","",""
"null","","html-keyboard-response","193","2442010","0.0-6.0-16.9","32","<p><img class= 'stimulus' src='images/baseline/pexels-photo-414491.jpeg'></img></p>","null","","1550933036170","","","","","","",""
"null","","html-keyboard-response","194","2442127","0.0-6.0-17.9","32","<p><img class= 'stimulus' src='images/baseline/field 3.jpg'></img></p>","null","","1550933036268","","","","","","",""
"2068.600000000093","","html-button-response","195","2445202","0.0-6.0-18.9","32","<div class = ""response_question"">WAS THE IMAGE ROTATED...</div>","","3","","","4","2","bas","right","practice","true"
"3190.5","","html-button-response","196","2448394","0.0-6.0-0.10","32","","","0","","","","","","","",""
"null","","html-keyboard-response","197","2448477","0.0-6.0-1.10","32","<p><img class= 'stimulus' src='images/baseline/landscape11.jpg'></img></p>","null","","1550933042636","","","","","","",""
"null","","html-keyboard-response","198","2448577","0.0-6.0-2.10","32","<p><img class= 'stimulus' src='images/baseline/house7.jpg'></img></p>","null","","1550933042736","","","","","","",""
"null","","html-keyboard-response","199","2448678","0.0-6.0-3.10","32","<p><img class= 'stimulus' src='images/baseline/02945v.jpg'></img></p>","null","","1550933042835","","","","","","",""
"null","","html-keyboard-response","200","2448778","0.0-6.0-4.10","32","<p><img class= 'stimulus' src='images/baseline/04060v.jpg'></img></p>","null","","1550933042936","4","","","","","",""
"null","","html-keyboard-response","201","2448877","0.0-6.0-5.10","32","<p><img class= 'stimulus' src='images/baseline/pexels-photo-259280.jpeg'></img></p>","null","","1550933043035","","","","","","",""
"null","","html-keyboard-response","202","2448978","0.0-6.0-6.10","32","<p><img class= 'stimulus' src='images/baseline/05145v.jpg'></img></p>","null","","1550933043136","6","","","","","",""
"null","","html-keyboard-response","203","2449078","0.0-6.0-7.10","32","<p><img class= 'stimulus' src='images/baseline/Camping 10.jpg'></img></p>","null","","1550933043235","","","","","","",""
"null","","html-keyboard-response","204","2449177","0.0-6.0-8.10","32","<p><img class= 'stimulus left-rotate' src='images/target/church-2306128_640.jpg'></img></p>","null","","1550933043335","8","","","","","",""
"null","","html-keyboard-response","205","2449277","0.0-6.0-9.10","32","<p><img class= 'stimulus' src='images/baseline/landscape39.jpg'></img></p>","null","","1550933043436","","","","","","",""
"null","","html-keyboard-response","206","2449377","0.0-6.0-10.10","32","<p><img class= 'stimulus' src='images/baseline/02962v.jpg'></img></p>","null","","1550933043535","","","","","","",""
"null","","html-keyboard-response","207","2449478","0.0-6.0-11.10","32","<p><img class= 'stimulus' src='images/baseline/Peyto_Lake-Banff_NP-Canada.jpg'></img></p>","null","","1550933043635","","","","","","",""
"null","","html-keyboard-response","208","2449577","0.0-6.0-12.10","32","<p><img class= 'stimulus' src='images/baseline/red-rocks-park.jpg'></img></p>","null","","1550933043735","12","","","","","",""
"null","","html-keyboard-response","209","2449677","0.0-6.0-13.10","32","<p><img class= 'stimulus' src='images/baseline/Grass 6.jpg'></img></p>","null","","1550933043836","","","","","","",""
"null","","html-keyboard-response","210","2449777","0.0-6.0-14.10","32","<p><img class= 'stimulus' src='images/baseline/building3.jpg'></img></p>","null","","1550933043936","14","","","","","",""
"null","","html-keyboard-response","211","2449877","0.0-6.0-15.10","32","<p><img class= 'stimulus' src='images/baseline/04201v.jpg'></img></p>","null","","1550933044036","","","","","","",""
"null","","html-keyboard-response","212","2449977","0.0-6.0-16.10","32","<p><img class= 'stimulus' src='images/baseline/Freudenberg_sg_Switzerland.jpg'></img></p>","null","","1550933044137","","","","","","",""
"null","","html-keyboard-response","213","2450094","0.0-6.0-17.10","32","<p><img class= 'stimulus' src='images/baseline/landscape34.jpg'></img></p>","null","","1550933044236","","","","","","",""
"2703.100000000093","","html-button-response","214","2453802","0.0-6.0-18.10","32","<div class = ""response_question"">WAS THE IMAGE ROTATED...</div>","","0","","","6","2","bas","left","practice","true"
"2334.5","","html-button-response","215","2456138","0.0-6.0-0.11","32","","","0","","","","","","","",""
"null","","html-keyboard-response","216","2456210","0.0-6.0-1.11","32","<p><img class= 'stimulus' src='images/baseline/house1.jpg'></img></p>","null","","1550933050369","","","","","","",""
"null","","html-keyboard-response","217","2456310","0.0-6.0-2.11","32","<p><img class= 'stimulus' src='images/baseline/snowy tree.jpg'></img></p>","null","","1550933050468","","","","","","",""
"null","","html-keyboard-response","218","2456411","0.0-6.0-3.11","32","<p><img class= 'stimulus' src='images/baseline/pexels-photo-459203.jpeg'></img></p>","null","","1550933050568","","","","","","",""
"null","","html-keyboard-response","219","2456510","0.0-6.0-4.11","32","<p><img class= 'stimulus' src='images/baseline/Lake 8.jpg'></img></p>","null","","1550933050669","4","","","","","",""
"null","","html-keyboard-response","220","2456611","0.0-6.0-5.11","32","<p><img class= 'stimulus' src='images/baseline/04284v.jpg'></img></p>","null","","1550933050769","","","","","","",""
"null","","html-keyboard-response","221","2456711","0.0-6.0-6.11","32","<p><img class= 'stimulus' src='images/baseline/Happy pose 3.jpg'></img></p>","null","","1550933050869","6","","","","","",""
"null","","html-keyboard-response","222","2456812","0.0-6.0-7.11","32","<p><img class= 'stimulus' src='images/baseline/valley 1.jpg'></img></p>","null","","1550933050969","","","","","","",""
"null","","html-keyboard-response","223","2456911","0.0-6.0-8.11","32","<p><img class= 'stimulus' src='images/baseline/99_-_Machu_Picchu_-_Juin_2009.edit3.jpg'></img></p>","null","","1550933051069","8","","","","","",""
"null","","html-keyboard-response","224","2457010","0.0-6.0-9.11","32","<p><img class= 'stimulus' src='images/baseline/horse_statue.jpg'></img></p>","null","","1550933051170","","","","","","",""
"null","","html-keyboard-response","225","2457110","0.0-6.0-10.11","32","<p><img class= 'stimulus' src='images/baseline/Sky 1.jpg'></img></p>","null","","1550933051270","","","","","","",""
"null","","html-keyboard-response","226","2457211","0.0-6.0-11.11","32","<p><img class= 'stimulus' src='images/baseline/building_at_national_conservation.jpg'></img></p>","null","","1550933051369","","","","","","",""
"null","","html-keyboard-response","227","2457310","0.0-6.0-12.11","32","<p><img class= 'stimulus' src='images/baseline/building6.jpg'></img></p>","null","","1550933051470","12","","","","","",""
"null","","html-keyboard-response","228","2457411","0.0-6.0-13.11","32","<p><img class= 'stimulus' src='images/baseline/landscape31.jpg'></img></p>","null","","1550933051569","","","","","","",""
"null","","html-keyboard-response","229","2457510","0.0-6.0-14.11","32","<p><img class= 'stimulus left-rotate' src='images/target/building15.jpg'></img></p>","null","","1550933051668","14","","","","","",""
"null","","html-keyboard-response","230","2457610","0.0-6.0-15.11","32","<p><img class= 'stimulus' src='images/baseline/landscape40.jpg'></img></p>","null","","1550933051769","","","","","","",""
"null","","html-keyboard-response","231","2457710","0.0-6.0-16.11","32","<p><img class= 'stimulus' src='images/baseline/pexels-photo-59321.jpeg'></img></p>","null","","1550933051869","","","","","","",""
"null","","html-keyboard-response","232","2457827","0.0-6.0-17.11","32","<p><img class= 'stimulus' src='images/baseline/Lake 5.jpg'></img></p>","null","","1550933051970","","","","","","",""
"1242.2000000001863","","html-button-response","233","2460074","0.0-6.0-18.11","32","<div class = ""response_question"">WAS THE IMAGE ROTATED...</div>","","0","","","6","8","bas","left","practice","true"
"4662.5","","html-button-response","234","2464738","0.0-6.0-0.12","32","","","0","","","","","","","",""
"null","","html-keyboard-response","235","2464811","0.0-6.0-1.12","32","<p><img class= 'stimulus' src='images/baseline/05139v.jpg'></img></p>","null","","1550933058969","","","","","","",""
"null","","html-keyboard-response","236","2464910","0.0-6.0-2.12","32","<p><img class= 'stimulus' src='images/baseline/04040v.jpg'></img></p>","null","","1550933059069","","","","","","",""
"null","","html-keyboard-response","237","2465010","0.0-6.0-3.12","32","<p><img class= 'stimulus' src='images/baseline/landscape1.jpg'></img></p>","null","","1550933059170","","","","","","",""
"null","","html-keyboard-response","238","2465111","0.0-6.0-4.12","32","<p><img class= 'stimulus' src='images/baseline/building9.jpg'></img></p>","null","","1550933059268","4","","","","","",""
"null","","html-keyboard-response","239","2465210","0.0-6.0-5.12","32","<p><img class= 'stimulus' src='images/baseline/hills 4.jpg'></img></p>","null","","1550933059368","","","","","","",""
"null","","html-keyboard-response","240","2465311","0.0-6.0-6.12","32","<p><img class= 'stimulus' src='images/baseline/building4.jpg'></img></p>","null","","1550933059470","6","","","","","",""
"null","","html-keyboard-response","241","2465411","0.0-6.0-7.12","32","<p><img class= 'stimulus' src='images/baseline/Lake 16.jpg'></img></p>","null","","1550933059570","","","","","","",""
"null","","html-keyboard-response","242","2465510","0.0-6.0-8.12","32","<p><img class= 'stimulus' src='images/baseline/Lake 13.jpg'></img></p>","null","","1550933059670","8","","","","","",""
"null","","html-keyboard-response","243","2465611","0.0-6.0-9.12","32","<p><img class= 'stimulus' src='images/baseline/Nature 2.jpg'></img></p>","null","","1550933059769","","","","","","",""
"null","","html-keyboard-response","244","2465712","0.0-6.0-10.12","32","<p><img class= 'stimulus' src='images/baseline/pexels-photo-440731.jpeg'></img></p>","null","","1550933059869","","","","","","",""
"null","","html-keyboard-response","245","2465810","0.0-6.0-11.12","32","<p><img class= 'stimulus' src='images/baseline/04085v.jpg'></img></p>","null","","1550933059969","","","","","","",""
"null","","html-keyboard-response","246","2465910","0.0-6.0-12.12","32","<p><img class= 'stimulus' src='images/baseline/building16.jpg'></img></p>","null","","1550933060070","12","","","","","",""
"null","","html-keyboard-response","247","2466010","0.0-6.0-13.12","32","<p><img class= 'stimulus' src='images/baseline/flooded-bridge.jpg'></img></p>","null","","1550933060170","","","","","","",""
"null","","html-keyboard-response","248","2466110","0.0-6.0-14.12","32","<p><img class= 'stimulus' src='images/target/landscape32.jpg'></img></p>","null","","1550933060269","14","","","","","",""
"null","","html-keyboard-response","249","2466211","0.0-6.0-15.12","32","<p><img class= 'stimulus' src='images/baseline/agriculture-bright-clouds-440731.jpg'></img></p>","null","","1550933060369","","","","","","",""
"null","","html-keyboard-response","250","2466310","0.0-6.0-16.12","32","<p><img class= 'stimulus' src='images/baseline/church-silhouette-8712964986014Kb.jpg'></img></p>","null","","1550933060468","","","","","","",""
"null","","html-keyboard-response","251","2466428","0.0-6.0-17.12","32","<p><img class= 'stimulus' src='images/baseline/pexels-photo-280222.jpeg'></img></p>","null","","1550933060569","","","","","","",""
"1737.8999999999069","","html-button-response","252","2469170","0.0-6.0-18.12","32","<div class = ""response_question"">WAS THE IMAGE ROTATED...</div>","","3","","","6","8","bas","right","practice","true"
"1526.4000000003725","","html-button-response","253","2470698","0.0-6.0-0.13","32","","","0","","","","","","","",""
"null","","html-keyboard-response","254","2470778","0.0-6.0-1.13","32","<p><img class= 'stimulus' src='images/baseline/landscape17.jpg'></img></p>","null","","1550933064937","","","","","","",""
"null","","html-keyboard-response","255","2470878","0.0-6.0-2.13","32","<p><img class= 'stimulus' src='images/baseline/Nature 1.jpg'></img></p>","null","","1550933065036","","","","","","",""
"null","","html-keyboard-response","256","2470978","0.0-6.0-3.13","32","<p><img class= 'stimulus' src='images/baseline/Path 1.jpg'></img></p>","null","","1550933065136","","","","","","",""
"null","","html-keyboard-response","257","2471077","0.0-6.0-4.13","32","<p><img class= 'stimulus' src='images/baseline/town-square-in-wroclaw-1539098440MZy.jpg'></img></p>","null","","1550933065236","4","","","","","",""
"null","","html-keyboard-response","258","2471178","0.0-6.0-5.13","32","<p><img class= 'stimulus' src='images/baseline/Lake 3.jpg'></img></p>","null","","1550933065335","","","","","","",""
"null","","html-keyboard-response","259","2471278","0.0-6.0-6.13","32","<p><img class= 'stimulus' src='images/baseline/Desert_View_Indian_Wells.jpg'></img></p>","null","","1550933065437","6","","","","","",""
"null","","html-keyboard-response","260","2471377","0.0-6.0-7.13","32","<p><img class= 'stimulus' src='images/baseline/pexels-photo-534164.jpeg'></img></p>","null","","1550933065537","","","","","","",""
"null","","html-keyboard-response","261","2471477","0.0-6.0-8.13","32","<p><img class= 'stimulus' src='images/baseline/Street 2.jpg'></img></p>","null","","1550933065637","8","","","","","",""
"null","","html-keyboard-response","262","2471578","0.0-6.0-9.13","32","<p><img class= 'stimulus' src='images/baseline/Aletschgletscher-Eggishorn.jpg'></img></p>","null","","1550933065737","","","","","","",""
"null","","html-keyboard-response","263","2471677","0.0-6.0-10.13","32","<p><img class= 'stimulus' src='images/baseline/building12.jpg'></img></p>","null","","1550933065835","","","","","","",""
"null","","html-keyboard-response","264","2471777","0.0-6.0-11.13","32","<p><img class= 'stimulus' src='images/baseline/dirt-road-or-trail-through-park.jpg'></img></p>","null","","1550933065935","","","","","","",""
"null","","html-keyboard-response","265","2471877","0.0-6.0-12.13","32","<p><img class= 'stimulus' src='images/target/pexels-photo-1534411.jpeg'></img></p>","null","","1550933066035","12","","","","","",""
"null","","html-keyboard-response","266","2471978","0.0-6.0-13.13","32","<p><img class= 'stimulus' src='images/baseline/landscape36.jpg'></img></p>","null","","1550933066136","","","","","","",""
"null","","html-keyboard-response","267","2472077","0.0-6.0-14.13","32","<p><img class= 'stimulus' src='images/baseline/pexels-photo-1837621.jpeg'></img></p>","null","","1550933066237","14","","","","","",""
"null","","html-keyboard-response","268","2472177","0.0-6.0-15.13","32","<p><img class= 'stimulus' src='images/baseline/city-silhouette-at-sunset-871291580819Esw.jpg'></img></p>","null","","1550933066337","","","","","","",""
"null","","html-keyboard-response","269","2472278","0.0-6.0-16.13","32","<p><img class= 'stimulus' src='images/baseline/Waterfall 1.jpg'></img></p>","null","","1550933066436","","","","","","",""
"null","","html-keyboard-response","270","2472394","0.0-6.0-17.13","32","<p><img class= 'stimulus' src='images/baseline/03056v.jpg'></img></p>","null","","1550933066536","","","","","","",""
"1691.8000000002794","","html-button-response","271","2475091","0.0-6.0-18.13","32","<div class = ""response_question"">WAS THE IMAGE ROTATED...</div>","","3","","","4","8","bas","right","practice","true"
"2286.4000000003725","","html-button-response","272","2477378","0.0-6.0-0.14","32","","","0","","","","","","","",""
"null","","html-keyboard-response","273","2477462","0.0-6.0-1.14","32","<p><img class= 'stimulus' src='images/baseline/house8.jpg'></img></p>","null","","1550933071619","","","","","","",""
"null","","html-keyboard-response","274","2477561","0.0-6.0-2.14","32","<p><img class= 'stimulus' src='images/baseline/05167v.jpg'></img></p>","null","","1550933071719","","","","","","",""
"null","","html-keyboard-response","275","2477660","0.0-6.0-3.14","32","<p><img class= 'stimulus' src='images/baseline/pexels-photo-1287089.jpeg'></img></p>","null","","1550933071820","","","","","","",""
"null","","html-keyboard-response","276","2477761","0.0-6.0-4.14","32","<p><img class= 'stimulus' src='images/baseline/Sidewalk 4.jpg'></img></p>","null","","1550933071919","4","","","","","",""
"null","","html-keyboard-response","277","2477861","0.0-6.0-5.14","32","<p><img class= 'stimulus' src='images/baseline/05247v.jpg'></img></p>","null","","1550933072019","","","","","","",""
"null","","html-keyboard-response","278","2477961","0.0-6.0-6.14","32","<p><img class= 'stimulus' src='images/baseline/road 1(1).jpg'></img></p>","null","","1550933072119","6","","","","","",""
"null","","html-keyboard-response","279","2478061","0.0-6.0-7.14","32","<p><img class= 'stimulus' src='images/baseline/02971v.jpg'></img></p>","null","","1550933072220","","","","","","",""
"null","","html-keyboard-response","280","2478161","0.0-6.0-8.14","32","<p><img class= 'stimulus' src='images/baseline/landscape14.jpg'></img></p>","null","","1550933072319","8","","","","","",""
"null","","html-keyboard-response","281","2478261","0.0-6.0-9.14","32","<p><img class= 'stimulus' src='images/baseline/Skijump 1.jpg'></img></p>","null","","1550933072419","","","","","","",""
"null","","html-keyboard-response","282","2478361","0.0-6.0-10.14","32","<p><img class= 'stimulus' src='images/baseline/05131v.jpg'></img></p>","null","","1550933072520","","","","","","",""
"null","","html-keyboard-response","283","2478461","0.0-6.0-11.14","32","<p><img class= 'stimulus' src='images/baseline/Dirt 2.jpg'></img></p>","null","","1550933072620","","","","","","",""
"null","","html-keyboard-response","284","2478561","0.0-6.0-12.14","32","<p><img class= 'stimulus left-rotate' src='images/target/adventure-desert-landscape-6778.jpg'></img></p>","null","","1550933072719","12","","","","","",""
"null","","html-keyboard-response","285","2478661","0.0-6.0-13.14","32","<p><img class= 'stimulus' src='images/baseline/05279v.jpg'></img></p>","null","","1550933072819","","","","","","",""
"null","","html-keyboard-response","286","2478760","0.0-6.0-14.14","32","<p><img class= 'stimulus' src='images/baseline/Sunset 4.jpg'></img></p>","null","","1550933072920","14","","","","","",""
"null","","html-keyboard-response","287","2478861","0.0-6.0-15.14","32","<p><img class= 'stimulus' src='images/baseline/kokkari-1523011968Xfr.jpg'></img></p>","null","","1550933073020","","","","","","",""
"null","","html-keyboard-response","288","2478960","0.0-6.0-16.14","32","<p><img class= 'stimulus' src='images/baseline/03162v.jpg'></img></p>","null","","1550933073119","","","","","","",""
"null","","html-keyboard-response","289","2479078","0.0-6.0-17.14","32","<p><img class= 'stimulus' src='images/baseline/02988v.jpg'></img></p>","null","","1550933073220","","","","","","",""
"902.7999999998137","","html-button-response","290","2480986","0.0-6.0-18.14","32","<div class = ""response_question"">WAS THE IMAGE ROTATED...</div>","","0","","","4","8","bas","left","practice","true"
"5078.4000000003725","","html-button-response","291","2486066","0.0-6.0-0.15","32","","","0","","","","","","","",""
"null","","html-keyboard-response","292","2486144","0.0-6.0-1.15","32","<p><img class= 'stimulus' src='images/baseline/trees 23.jpg'></img></p>","null","","1550933080303","","","","","","",""
"null","","html-keyboard-response","293","2486244","0.0-6.0-2.15","32","<p><img class= 'stimulus' src='images/baseline/4k-wallpaper-agriculture-clouds-842711.jpg'></img></p>","null","","1550933080403","","","","","","",""
"null","","html-keyboard-response","294","2486344","0.0-6.0-3.15","32","<p><img class= 'stimulus' src='images/baseline/landscape37.jpg'></img></p>","null","","1550933080503","","","","","","",""
"null","","html-keyboard-response","295","2486444","0.0-6.0-4.15","32","<p><img class= 'stimulus' src='images/baseline/03063v.jpg'></img></p>","null","","1550933080602","4","","","","","",""
"null","","html-keyboard-response","296","2486545","0.0-6.0-5.15","32","<p><img class= 'stimulus' src='images/baseline/__08_-_ITALY_-_Forli_under_snow_-_winter_landscape_of_city_(christmas).jpg'></img></p>","null","","1550933080702","","","","","","",""
"null","","html-keyboard-response","297","2486644","0.0-6.0-6.15","32","<p><img class= 'stimulus' src='images/baseline/Bridge 1.jpg'></img></p>","null","","1550933080803","6","","","","","",""
"null","","html-keyboard-response","298","2486744","0.0-6.0-7.15","32","<p><img class= 'stimulus' src='images/baseline/03041v.jpg'></img></p>","null","","1550933080903","","","","","","",""
"null","","html-keyboard-response","299","2486844","0.0-6.0-8.15","32","<p><img class= 'stimulus' src='images/target/skyscraper-3855012_640.jpg'></img></p>","null","","1550933081003","8","","","","","",""
"null","","html-keyboard-response","300","2486944","0.0-6.0-9.15","32","<p><img class= 'stimulus' src='images/baseline/Lake 4.jpg'></img></p>","null","","1550933081103","","","","","","",""
"null","","html-keyboard-response","301","2487044","0.0-6.0-10.15","32","<p><img class= 'stimulus' src='images/baseline/04300v.jpg'></img></p>","null","","1550933081203","","","","","","",""
"null","","html-keyboard-response","302","2487145","0.0-6.0-11.15","32","<p><img class= 'stimulus' src='images/baseline/Lake 9.jpg'></img></p>","null","","1550933081303","","","","","","",""
"null","","html-keyboard-response","303","2487244","0.0-6.0-12.15","32","<p><img class= 'stimulus' src='images/baseline/03201v.jpg'></img></p>","null","","1550933081402","12","","","","","",""
"null","","html-keyboard-response","304","2487345","0.0-6.0-13.15","32","<p><img class= 'stimulus' src='images/baseline/03066v.jpg'></img></p>","null","","1550933081503","","","","","","",""
"null","","html-keyboard-response","305","2487444","0.0-6.0-14.15","32","<p><img class= 'stimulus' src='images/baseline/landscape13.jpg'></img></p>","null","","1550933081603","14","","","","","",""
"null","","html-keyboard-response","306","2487545","0.0-6.0-15.15","32","<p><img class= 'stimulus' src='images/baseline/architecture-1314416_1920.jpg'></img></p>","null","","1550933081703","","","","","","",""
"null","","html-keyboard-response","307","2487645","0.0-6.0-16.15","32","<p><img class= 'stimulus' src='images/baseline/pexels-photo-1840893.jpeg'></img></p>","null","","1550933081803","","","","","","",""
"null","","html-keyboard-response","308","2487761","0.0-6.0-17.15","32","<p><img class= 'stimulus' src='images/baseline/pexels-photo-59321.jpeg'></img></p>","null","","1550933081903","","","","","","",""
"941.2000000001863","","html-button-response","309","2489706","0.0-6.0-18.15","32","<div class = ""response_question"">WAS THE IMAGE ROTATED...</div>","","3","","","6","2","bas","right","practice","true"
"128662.3999999999","","html-button-response","310","2618370","0.0-7.0","32","<p>You have now completed the practice phase. We will now begin the real trials.         This is a reminder that you will be searching for a rotated image among the series of upright images.</p>         <p>Remember, please do not blink or move your eyes while the images are on the screen.</p>         <p>At the end of the experiment, the experimenter will be able to show you how accurate you were.</p>","","0","","","","","","","",""
"3366.899999999907","","html-button-response","311","2621738","0.0-8.0-0.0-0.0","32","","","0","","","","","","","",""
"null","","html-keyboard-response","312","2621812","0.0-8.0-0.0-1.0","32","<p><img class= 'stimulus' src='images/baseline/Lake 15.jpg'></img></p>","null","","1550933215970","","","","","","",""
"null","","html-keyboard-response","313","2621912","0.0-8.0-0.0-2.0","32","<p><img class= 'stimulus' src='images/baseline/05242v.jpg'></img></p>","null","","1550933216071","","","","","","",""
"null","","html-keyboard-response","314","2622012","0.0-8.0-0.0-3.0","32","<p><img class= 'stimulus' src='images/baseline/lake 1.jpg'></img></p>","null","","1550933216171","","","","","","",""
"null","","html-keyboard-response","315","2622112","0.0-8.0-0.0-4.0","32","<p><img class= 'stimulus' src='images/neutral/Elephant 1.jpg'></img></p>","null","","1550933216271","4","","","","","",""
"null","","html-keyboard-response","316","2622212","0.0-8.0-0.0-5.0","32","<p><img class= 'stimulus' src='images/baseline/house10.jpg'></img></p>","null","","1550933216370","","","","","","",""
"null","","html-keyboard-response","317","2622313","0.0-8.0-0.0-6.0","32","<p><img class= 'stimulus' src='images/baseline/Sky 1.jpg'></img></p>","null","","1550933216471","6","","","","","",""
"null","","html-keyboard-response","318","2622411","0.0-8.0-0.0-7.0","32","<p><img class= 'stimulus' src='images/baseline/snowy tree.jpg'></img></p>","null","","1550933216570","","","","","","",""
"null","","html-keyboard-response","319","2622513","0.0-8.0-0.0-8.0","32","<p><img class= 'stimulus' src='images/baseline/Street 1.jpg'></img></p>","null","","1550933216671","8","","","","","",""
"null","","html-keyboard-response","320","2622612","0.0-8.0-0.0-9.0","32","<p><img class= 'stimulus' src='images/baseline/04060v.jpg'></img></p>","null","","1550933216771","","","","","","",""
"null","","html-keyboard-response","321","2622712","0.0-8.0-0.0-10.0","32","<p><img class= 'stimulus' src='images/baseline/grand-teton-mountains.jpg'></img></p>","null","","1550933216871","","","","","","",""
"null","","html-keyboard-response","322","2622812","0.0-8.0-0.0-11.0","32","<p><img class= 'stimulus' src='images/baseline/03045v.jpg'></img></p>","null","","1550933216971","","","","","","",""
"null","","html-keyboard-response","323","2622912","0.0-8.0-0.0-12.0","32","<p><img class= 'stimulus left-rotate' src='images/target/tree_2.jpg'></img></p>","null","","1550933217071","12","","","","","",""
"null","","html-keyboard-response","324","2623012","0.0-8.0-0.0-13.0","32","<p><img class= 'stimulus' src='images/baseline/04130v.jpg'></img></p>","null","","1550933217171","","","","","","",""
"null","","html-keyboard-response","325","2623112","0.0-8.0-0.0-14.0","32","<p><img class= 'stimulus' src='images/baseline/pexels-photo-459203.jpeg'></img></p>","null","","1550933217271","14","","","","","",""
"null","","html-keyboard-response","326","2623212","0.0-8.0-0.0-15.0","32","<p><img class= 'stimulus' src='images/baseline/04098v.jpg'></img></p>","null","","1550933217371","","","","","","",""
"null","","html-keyboard-response","327","2623313","0.0-8.0-0.0-16.0","32","<p><img class= 'stimulus' src='images/baseline/chicago-skyline-at-night-1476869511p8U.jpg'></img></p>","null","","1550933217472","","","","","","",""
"null","","html-keyboard-response","328","2623428","0.0-8.0-0.0-17.0","32","<p><img class= 'stimulus' src='images/baseline/04040v.jpg'></img></p>","null","","1550933217570","","","","","","",""
"2896.0999999996275","","html-button-response","329","2627330","0.0-8.0-0.0-18.0","32","<div class = ""response_question"">WAS THE IMAGE ROTATED...</div>","","0","","","4","8","neu","left","test","true"
"4142.399999999907","","html-button-response","330","2631468","0.0-8.0-0.0-0.1","32","","","0","","","","","","","",""
"null","","html-keyboard-response","331","2631540","0.0-8.0-0.0-1.1","32","<p><img class= 'stimulus' src='images/baseline/Desert_View_Indian_Wells.jpg'></img></p>","null","","1550933225698","","","","","","",""
"null","","html-keyboard-response","332","2631641","0.0-8.0-0.0-2.1","32","<p><img class= 'stimulus' src='images/baseline/landscape37.jpg'></img></p>","null","","1550933225799","","","","","","",""
"null","","html-keyboard-response","333","2631740","0.0-8.0-0.0-3.1","32","<p><img class= 'stimulus' src='images/baseline/__08_-_ITALY_-_Forli_under_snow_-_winter_landscape_of_city_(christmas).jpg'></img></p>","null","","1550933225898","","","","","","",""
"null","","html-keyboard-response","334","2631840","0.0-8.0-0.0-4.1","32","<p><img class= 'stimulus' src='images/baseline/landscape39.jpg'></img></p>","null","","1550933225999","4","","","","","",""
"null","","html-keyboard-response","335","2631940","0.0-8.0-0.0-5.1","32","<p><img class= 'stimulus' src='images/baseline/agriculture-countryside-crop-259280.jpg'></img></p>","null","","1550933226098","","","","","","",""
"null","","html-keyboard-response","336","2632040","0.0-8.0-0.0-6.1","32","<p><img class= 'stimulus' src='images/negative/Shark 7.jpg'></img></p>","null","","1550933226200","6","","","","","",""
"null","","html-keyboard-response","337","2632140","0.0-8.0-0.0-7.1","32","<p><img class= 'stimulus' src='images/baseline/autumn-in-red-rocks-park.jpg'></img></p>","null","","1550933226298","","","","","","",""
"null","","html-keyboard-response","338","2632240","0.0-8.0-0.0-8.1","32","<p><img class= 'stimulus' src='images/baseline/05158v.jpg'></img></p>","null","","1550933226398","8","","","","","",""
"null","","html-keyboard-response","339","2632340","0.0-8.0-0.0-9.1","32","<p><img class= 'stimulus' src='images/baseline/scenic-mountain-landscape.jpg'></img></p>","null","","1550933226499","","","","","","",""
"null","","html-keyboard-response","340","2632441","0.0-8.0-0.0-10.1","32","<p><img class= 'stimulus' src='images/baseline/04229v.jpg'></img></p>","null","","1550933226598","","","","","","",""
"null","","html-keyboard-response","341","2632540","0.0-8.0-0.0-11.1","32","<p><img class= 'stimulus' src='images/baseline/foreclosed_home.jpg'></img></p>","null","","1550933226699","","","","","","",""
"null","","html-keyboard-response","342","2632641","0.0-8.0-0.0-12.1","32","<p><img class= 'stimulus' src='images/baseline/Bahia_Onelli_Parque_Nacional_Los_Glaciares_Patagonia_Argentina_Luca_Galuzzi_2005.jpg'></img></p>","null","","1550933226799","12","","","","","",""
"null","","html-keyboard-response","343","2632741","0.0-8.0-0.0-13.1","32","<p><img class= 'stimulus' src='images/baseline/02971v.jpg'></img></p>","null","","1550933226900","","","","","","",""
"null","","html-keyboard-response","344","2632840","0.0-8.0-0.0-14.1","32","<p><img class= 'stimulus left-rotate' src='images/target/pexels-photo-602607.jpeg'></img></p>","null","","1550933227000","14","","","","","",""
"null","","html-keyboard-response","345","2632940","0.0-8.0-0.0-15.1","32","<p><img class= 'stimulus' src='images/baseline/03112v.jpg'></img></p>","null","","1550933227098","","","","","","",""
"null","","html-keyboard-response","346","2633040","0.0-8.0-0.0-16.1","32","<p><img class= 'stimulus' src='images/baseline/landscape1.jpg'></img></p>","null","","1550933227200","","","","","","",""
"null","","html-keyboard-response","347","2633157","0.0-8.0-0.0-17.1","32","<p><img class= 'stimulus' src='images/baseline/04117v.jpg'></img></p>","null","","1550933227298","","","","","","",""
"1699.2000000001863","","html-button-response","348","2635861","0.0-8.0-0.0-18.1","32","<div class = ""response_question"">WAS THE IMAGE ROTATED...</div>","","0","","","6","8","neg","left","test","true"
"3006.600000000093","","html-button-response","349","2638868","0.0-8.0-0.0-0.2","32","","","0","","","","","","","",""
"null","","html-keyboard-response","350","2638940","0.0-8.0-0.0-1.2","32","<p><img class= 'stimulus' src='images/baseline/04014v.jpg'></img></p>","null","","1550933233098","","","","","","",""
"null","","html-keyboard-response","351","2639040","0.0-8.0-0.0-2.2","32","<p><img class= 'stimulus' src='images/baseline/04158v.jpg'></img></p>","null","","1550933233199","","","","","","",""
"null","","html-keyboard-response","352","2639141","0.0-8.0-0.0-3.2","32","<p><img class= 'stimulus' src='images/baseline/pexels-photo-1261728.jpeg'></img></p>","null","","1550933233299","","","","","","",""
"null","","html-keyboard-response","353","2639240","0.0-8.0-0.0-4.2","32","<p><img class= 'stimulus' src='images/negative/Snake 1.jpg'></img></p>","null","","1550933233399","4","","","","","",""
"null","","html-keyboard-response","354","2639340","0.0-8.0-0.0-5.2","32","<p><img class= 'stimulus' src='images/baseline/building5.jpg'></img></p>","null","","1550933233499","","","","","","",""
"null","","html-keyboard-response","355","2639440","0.0-8.0-0.0-6.2","32","<p><img class= 'stimulus' src='images/baseline/Lake 9.jpg'></img></p>","null","","1550933233599","6","","","","","",""
"null","","html-keyboard-response","356","2639540","0.0-8.0-0.0-7.2","32","<p><img class= 'stimulus' src='images/baseline/05303v.jpg'></img></p>","null","","1550933233699","","","","","","",""
"null","","html-keyboard-response","357","2639640","0.0-8.0-0.0-8.2","32","<p><img class= 'stimulus' src='images/baseline/Street 2.jpg'></img></p>","null","","1550933233798","8","","","","","",""
"null","","html-keyboard-response","358","2639740","0.0-8.0-0.0-9.2","32","<p><img class= 'stimulus' src='images/baseline/tennis-court-net-buried-in-snow.jpg'></img></p>","null","","1550933233900","","","","","","",""
"null","","html-keyboard-response","359","2639841","0.0-8.0-0.0-10.2","32","<p><img class= 'stimulus' src='images/baseline/05186v.jpg'></img></p>","null","","1550933233999","","","","","","",""
"null","","html-keyboard-response","360","2639941","0.0-8.0-0.0-11.2","32","<p><img class= 'stimulus' src='images/baseline/pexels-photo-750108.jpeg'></img></p>","null","","1550933234099","","","","","","",""
"null","","html-keyboard-response","361","2640040","0.0-8.0-0.0-12.2","32","<p><img class= 'stimulus left-rotate' src='images/target/tree-197536_640.jpg'></img></p>","null","","1550933234199","12","","","","","",""
"null","","html-keyboard-response","362","2640140","0.0-8.0-0.0-13.2","32","<p><img class= 'stimulus' src='images/baseline/pexels-photo-440731.jpeg'></img></p>","null","","1550933234300","","","","","","",""
"null","","html-keyboard-response","363","2640241","0.0-8.0-0.0-14.2","32","<p><img class= 'stimulus' src='images/baseline/02988v.jpg'></img></p>","null","","1550933234399","14","","","","","",""
"null","","html-keyboard-response","364","2640340","0.0-8.0-0.0-15.2","32","<p><img class= 'stimulus' src='images/baseline/architecture-956332_1280.jpg'></img></p>","null","","1550933234499","","","","","","",""
"null","","html-keyboard-response","365","2640440","0.0-8.0-0.0-16.2","32","<p><img class= 'stimulus' src='images/baseline/building2.jpg'></img></p>","null","","1550933234599","","","","","","",""
"null","","html-keyboard-response","366","2640557","0.0-8.0-0.0-17.2","32","<p><img class= 'stimulus' src='images/baseline/flooded-bridge.jpg'></img></p>","null","","1550933234698","","","","","","",""
"1691.300000000745","","html-button-response","367","2643253","0.0-8.0-0.0-18.2","32","<div class = ""response_question"">WAS THE IMAGE ROTATED...</div>","","0","","","4","8","neg","left","test","true"
"2398.4999999995343","","html-button-response","368","2645653","0.0-8.0-0.0-0.3","32","","","0","","","","","","","",""
"null","","html-keyboard-response","369","2645724","0.0-8.0-0.0-1.3","32","<p><img class= 'stimulus' src='images/baseline/02982v.jpg'></img></p>","null","","1550933239882","","","","","","",""
"null","","html-keyboard-response","370","2645824","0.0-8.0-0.0-2.3","32","<p><img class= 'stimulus' src='images/baseline/Lake 16.jpg'></img></p>","null","","1550933239982","","","","","","",""
"null","","html-keyboard-response","371","2645924","0.0-8.0-0.0-3.3","32","<p><img class= 'stimulus' src='images/baseline/lone-old-cottonwood-tree.jpg'></img></p>","null","","1550933240082","","","","","","",""
"null","","html-keyboard-response","372","2646025","0.0-8.0-0.0-4.3","32","<p><img class= 'stimulus' src='images/baseline/03098v.jpg'></img></p>","null","","1550933240182","4","","","","","",""
"null","","html-keyboard-response","373","2646124","0.0-8.0-0.0-5.3","32","<p><img class= 'stimulus' src='images/baseline/landscape11.jpg'></img></p>","null","","1550933240282","","","","","","",""
"null","","html-keyboard-response","374","2646224","0.0-8.0-0.0-6.3","32","<p><img class= 'stimulus' src='images/neutral/Pig 1.jpg'></img></p>","null","","1550933240384","6","","","","","",""
"null","","html-keyboard-response","375","2646325","0.0-8.0-0.0-7.3","32","<p><img class= 'stimulus' src='images/baseline/Waterfall 1.jpg'></img></p>","null","","1550933240483","","","","","","",""
"null","","html-keyboard-response","376","2646423","0.0-8.0-0.0-8.3","32","<p><img class= 'stimulus' src='images/baseline/02977v.jpg'></img></p>","null","","1550933240584","8","","","","","",""
"null","","html-keyboard-response","377","2646524","0.0-8.0-0.0-9.3","32","<p><img class= 'stimulus' src='images/baseline/03220v.jpg'></img></p>","null","","1550933240681","","","","","","",""
"null","","html-keyboard-response","378","2646624","0.0-8.0-0.0-10.3","32","<p><img class= 'stimulus' src='images/baseline/Sunset 4.jpg'></img></p>","null","","1550933240782","","","","","","",""
"null","","html-keyboard-response","379","2646724","0.0-8.0-0.0-11.3","32","<p><img class= 'stimulus' src='images/baseline/04062v.jpg'></img></p>","null","","1550933240881","","","","","","",""
"null","","html-keyboard-response","380","2646824","0.0-8.0-0.0-12.3","32","<p><img class= 'stimulus' src='images/baseline/pexels-photo-221125.jpeg'></img></p>","null","","1550933240982","12","","","","","",""
"null","","html-keyboard-response","381","2646924","0.0-8.0-0.0-13.3","32","<p><img class= 'stimulus' src='images/baseline/valley 2.jpg'></img></p>","null","","1550933241082","","","","","","",""
"null","","html-keyboard-response","382","2647024","0.0-8.0-0.0-14.3","32","<p><img class= 'stimulus left-rotate' src='images/target/shotstash_0036-1-1100x734.jpg'></img></p>","null","","1550933241183","14","","","","","",""
"null","","html-keyboard-response","383","2647124","0.0-8.0-0.0-15.3","32","<p><img class= 'stimulus' src='images/baseline/03041v.jpg'></img></p>","null","","1550933241283","","","","","","",""
"null","","html-keyboard-response","384","2647224","0.0-8.0-0.0-16.3","32","<p><img class= 'stimulus' src='images/baseline/Sunset 3.jpg'></img></p>","null","","1550933241382","","","","","","",""
"null","","html-keyboard-response","385","2647340","0.0-8.0-0.0-17.3","32","<p><img class= 'stimulus' src='images/baseline/Road 1.jpg'></img></p>","null","","1550933241483","","","","","","",""
"1187.1000000000931","","html-button-response","386","2649532","0.0-8.0-0.0-18.3","32","<div class = ""response_question"">WAS THE IMAGE ROTATED...</div>","","0","","","6","8","neu","left","test","true"
"3118.5999999996275","","html-button-response","387","2652653","0.0-8.0-0.0-0.4","32","","","0","","","","","","","",""
"null","","html-keyboard-response","388","2652723","0.0-8.0-0.0-1.4","32","<p><img class= 'stimulus' src='images/baseline/05179v.jpg'></img></p>","null","","1550933246882","","","","","","",""
"null","","html-keyboard-response","389","2652824","0.0-8.0-0.0-2.4","32","<p><img class= 'stimulus' src='images/baseline/road.jpg'></img></p>","null","","1550933246983","","","","","","",""
"null","","html-keyboard-response","390","2652924","0.0-8.0-0.0-3.4","32","<p><img class= 'stimulus' src='images/baseline/pexels-photo-541101.jpeg'></img></p>","null","","1550933247082","","","","","","",""
"null","","html-keyboard-response","391","2653024","0.0-8.0-0.0-4.4","32","<p><img class= 'stimulus' src='images/neutral/Smiling face 1.jpg'></img></p>","null","","1550933247183","4","","","","","",""
"null","","html-keyboard-response","392","2653124","0.0-8.0-0.0-5.4","32","<p><img class= 'stimulus' src='images/baseline/landscape38.jpg'></img></p>","null","","1550933247282","","","","","","",""
"null","","html-keyboard-response","393","2653224","0.0-8.0-0.0-6.4","32","<p><img class= 'stimulus' src='images/baseline/Lake 4.jpg'></img></p>","null","","1550933247382","6","","","","","",""
"null","","html-keyboard-response","394","2653324","0.0-8.0-0.0-7.4","32","<p><img class= 'stimulus' src='images/baseline/4k-wallpaper-agriculture-clouds-842711.jpg'></img></p>","null","","1550933247483","","","","","","",""
"null","","html-keyboard-response","395","2653425","0.0-8.0-0.0-8.4","32","<p><img class= 'stimulus' src='images/baseline/Sunset 5.jpg'></img></p>","null","","1550933247583","8","","","","","",""
"null","","html-keyboard-response","396","2653524","0.0-8.0-0.0-9.4","32","<p><img class= 'stimulus' src='images/baseline/Beach 2.jpg'></img></p>","null","","1550933247682","","","","","","",""
"null","","html-keyboard-response","397","2653624","0.0-8.0-0.0-10.4","32","<p><img class= 'stimulus' src='images/baseline/Grass 6.jpg'></img></p>","null","","1550933247782","","","","","","",""
"null","","html-keyboard-response","398","2653723","0.0-8.0-0.0-11.4","32","<p><img class= 'stimulus' src='images/baseline/landscape6.jpg'></img></p>","null","","1550933247883","","","","","","",""
"null","","html-keyboard-response","399","2653824","0.0-8.0-0.0-12.4","32","<p><img class= 'stimulus left-rotate' src='images/target/beach1.jpeg'></img></p>","null","","1550933247982","12","","","","","",""
"null","","html-keyboard-response","400","2653924","0.0-8.0-0.0-13.4","32","<p><img class= 'stimulus' src='images/baseline/landscape33.jpg'></img></p>","null","","1550933248081","","","","","","",""
"null","","html-keyboard-response","401","2654024","0.0-8.0-0.0-14.4","32","<p><img class= 'stimulus' src='images/baseline/hills 4.jpg'></img></p>","null","","1550933248183","14","","","","","",""
"null","","html-keyboard-response","402","2654124","0.0-8.0-0.0-15.4","32","<p><img class= 'stimulus' src='images/baseline/hills 1.jpg'></img></p>","null","","1550933248283","","","","","","",""
"null","","html-keyboard-response","403","2654224","0.0-8.0-0.0-16.4","32","<p><img class= 'stimulus' src='images/baseline/farmhouse4.jpg'></img></p>","null","","1550933248382","","","","","","",""
"null","","html-keyboard-response","404","2654341","0.0-8.0-0.0-17.4","32","<p><img class= 'stimulus' src='images/baseline/Nature 2.jpg'></img></p>","null","","1550933248483","","","","","","",""
"1931","","html-button-response","405","2657277","0.0-8.0-0.0-18.4","32","<div class = ""response_question"">WAS THE IMAGE ROTATED...</div>","","0","","","4","8","neu","left","test","true"
"4054.5","","html-button-response","406","2661333","0.0-8.0-0.0-0.5","32","","","0","","","","","","","",""
"null","","html-keyboard-response","407","2661407","0.0-8.0-0.0-1.5","32","<p><img class= 'stimulus' src='images/baseline/04021v.jpg'></img></p>","null","","1550933255565","","","","","","",""
"null","","html-keyboard-response","408","2661507","0.0-8.0-0.0-2.5","32","<p><img class= 'stimulus' src='images/baseline/Bridge 1.jpg'></img></p>","null","","1550933255666","","","","","","",""
"null","","html-keyboard-response","409","2661607","0.0-8.0-0.0-3.5","32","<p><img class= 'stimulus' src='images/baseline/building8.jpg'></img></p>","null","","1550933255765","","","","","","",""
"null","","html-keyboard-response","410","2661707","0.0-8.0-0.0-4.5","32","<p><img class= 'stimulus' src='images/baseline/trees 23.jpg'></img></p>","null","","1550933255865","4","","","","","",""
"null","","html-keyboard-response","411","2661807","0.0-8.0-0.0-5.5","32","<p><img class= 'stimulus' src='images/baseline/05279v.jpg'></img></p>","null","","1550933255965","","","","","","",""
"null","","html-keyboard-response","412","2661907","0.0-8.0-0.0-6.5","32","<p><img class= 'stimulus' src='images/target/buildin.png'></img></p>","null","","1550933256067","6","","","","","",""
"null","","html-keyboard-response","413","2662007","0.0-8.0-0.0-7.5","32","<p><img class= 'stimulus' src='images/baseline/farmhouse2.jpg'></img></p>","null","","1550933256165","","","","","","",""
"null","","html-keyboard-response","414","2662107","0.0-8.0-0.0-8.5","32","<p><img class= 'stimulus' src='images/baseline/03162v.jpg'></img></p>","null","","1550933256266","8","","","","","",""
"null","","html-keyboard-response","415","2662209","0.0-8.0-0.0-9.5","32","<p><img class= 'stimulus' src='images/baseline/Lake 8.jpg'></img></p>","null","","1550933256366","","","","","","",""
"null","","html-keyboard-response","416","2662307","0.0-8.0-0.0-10.5","32","<p><img class= 'stimulus' src='images/baseline/pexels-photo-259280.jpeg'></img></p>","null","","1550933256465","","","","","","",""
"null","","html-keyboard-response","417","2662407","0.0-8.0-0.0-11.5","32","<p><img class= 'stimulus' src='images/baseline/Skijump 1.jpg'></img></p>","null","","1550933256565","","","","","","",""
"null","","html-keyboard-response","418","2662508","0.0-8.0-0.0-12.5","32","<p><img class= 'stimulus' src='images/baseline/church-silhouette-8712964986014Kb.jpg'></img></p>","null","","1550933256667","12","","","","","",""
"null","","html-keyboard-response","419","2662607","0.0-8.0-0.0-13.5","32","<p><img class= 'stimulus' src='images/baseline/farmhouse8.jpg'></img></p>","null","","1550933256767","","","","","","",""
"null","","html-keyboard-response","420","2662707","0.0-8.0-0.0-14.5","32","<p><img class= 'stimulus' src='images/baseline/05198v.jpg'></img></p>","null","","1550933256866","14","","","","","",""
"null","","html-keyboard-response","421","2662807","0.0-8.0-0.0-15.5","32","<p><img class= 'stimulus' src='images/baseline/landscape40.jpg'></img></p>","null","","1550933256965","","","","","","",""
"null","","html-keyboard-response","422","2662907","0.0-8.0-0.0-16.5","32","<p><img class= 'stimulus' src='images/baseline/03212v.jpg'></img></p>","null","","1550933257065","","","","","","",""
"null","","html-keyboard-response","423","2663024","0.0-8.0-0.0-17.5","32","<p><img class= 'stimulus' src='images/baseline/pexels-photo-1054289.jpeg'></img></p>","null","","1550933257166","","","","","","",""
"1360.1999999997206","","html-button-response","424","2665397","0.0-8.0-0.0-18.5","32","<div class = ""response_question"">WAS THE IMAGE ROTATED...</div>","","3","","","4","2","bas","right","test","true"
"2662.200000000652","","html-button-response","425","2668061","0.0-8.0-0.0-0.6","32","","","0","","","","","","","",""
"null","","html-keyboard-response","426","2668141","0.0-8.0-0.0-1.6","32","<p><img class= 'stimulus' src='images/baseline/pexels-photo-534164.jpeg'></img></p>","null","","1550933262299","","","","","","",""
"null","","html-keyboard-response","427","2668241","0.0-8.0-0.0-2.6","32","<p><img class= 'stimulus' src='images/baseline/landscape12.jpg'></img></p>","null","","1550933262400","","","","","","",""
"null","","html-keyboard-response","428","2668341","0.0-8.0-0.0-3.6","32","<p><img class= 'stimulus' src='images/baseline/Kocherbaumwald-01.jpg'></img></p>","null","","1550933262499","","","","","","",""
"null","","html-keyboard-response","429","2668442","0.0-8.0-0.0-4.6","32","<p><img class= 'stimulus' src='images/neutral/Picnic 2.jpg'></img></p>","null","","1550933262599","4","","","","","",""
"null","","html-keyboard-response","430","2668540","0.0-8.0-0.0-5.6","32","<p><img class= 'stimulus' src='images/baseline/Lake 3.jpg'></img></p>","null","","1550933262700","","","","","","",""
"null","","html-keyboard-response","431","2668641","0.0-8.0-0.0-6.6","32","<p><img class= 'stimulus left-rotate' src='images/target/building3.jpg'></img></p>","null","","1550933262800","6","","","","","",""
"null","","html-keyboard-response","432","2668741","0.0-8.0-0.0-7.6","32","<p><img class= 'stimulus' src='images/baseline/04031v.jpg'></img></p>","null","","1550933262899","","","","","","",""
"null","","html-keyboard-response","433","2668841","0.0-8.0-0.0-8.6","32","<p><img class= 'stimulus' src='images/baseline/hiking-trail.jpg'></img></p>","null","","1550933262999","8","","","","","",""
"null","","html-keyboard-response","434","2668941","0.0-8.0-0.0-9.6","32","<p><img class= 'stimulus' src='images/baseline/pexels-photo-1048039.jpeg'></img></p>","null","","1550933263099","","","","","","",""
"null","","html-keyboard-response","435","2669041","0.0-8.0-0.0-10.6","32","<p><img class= 'stimulus' src='images/baseline/pexels-photo-568236.jpeg'></img></p>","null","","1550933263199","","","","","","",""
"null","","html-keyboard-response","436","2669140","0.0-8.0-0.0-11.6","32","<p><img class= 'stimulus' src='images/baseline/03056v.jpg'></img></p>","null","","1550933263299","","","","","","",""
"null","","html-keyboard-response","437","2669241","0.0-8.0-0.0-12.6","32","<p><img class= 'stimulus' src='images/baseline/sun-through-winter-tree-branches1.jpg'></img></p>","null","","1550933263400","12","","","","","",""
"null","","html-keyboard-response","438","2669341","0.0-8.0-0.0-13.6","32","<p><img class= 'stimulus' src='images/baseline/99_-_Machu_Picchu_-_Juin_2009.edit3.jpg'></img></p>","null","","1550933263500","","","","","","",""
"null","","html-keyboard-response","439","2669441","0.0-8.0-0.0-14.6","32","<p><img class= 'stimulus' src='images/baseline/05167v.jpg'></img></p>","null","","1550933263599","14","","","","","",""
"null","","html-keyboard-response","440","2669541","0.0-8.0-0.0-15.6","32","<p><img class= 'stimulus' src='images/baseline/03180v.jpg'></img></p>","null","","1550933263699","","","","","","",""
"null","","html-keyboard-response","441","2669640","0.0-8.0-0.0-16.6","32","<p><img class= 'stimulus' src='images/baseline/pexels-photo-427676.jpeg'></img></p>","null","","1550933263800","","","","","","",""
"null","","html-keyboard-response","442","2669757","0.0-8.0-0.0-17.6","32","<p><img class= 'stimulus' src='images/baseline/house8.jpg'></img></p>","null","","1550933263900","","","","","","",""
"1383.9000000003725","","html-button-response","443","2672148","0.0-8.0-0.0-18.6","32","<div class = ""response_question"">WAS THE IMAGE ROTATED...</div>","","0","","","4","2","neu","left","test","true"
"1310.5999999996275","","html-button-response","444","2673461","0.0-8.0-0.0-0.7","32","","","0","","","","","","","",""
"null","","html-keyboard-response","445","2673541","0.0-8.0-0.0-1.7","32","<p><img class= 'stimulus' src='images/baseline/Sunset 6.jpg'></img></p>","null","","1550933267699","","","","","","",""
"null","","html-keyboard-response","446","2673640","0.0-8.0-0.0-2.7","32","<p><img class= 'stimulus' src='images/baseline/04086v.jpg'></img></p>","null","","1550933267799","","","","","","",""
"null","","html-keyboard-response","447","2673741","0.0-8.0-0.0-3.7","32","<p><img class= 'stimulus' src='images/baseline/building16.jpg'></img></p>","null","","1550933267899","","","","","","",""
"null","","html-keyboard-response","448","2673841","0.0-8.0-0.0-4.7","32","<p><img class= 'stimulus' src='images/baseline/Street 4.jpg'></img></p>","null","","1550933267999","4","","","","","",""
"null","","html-keyboard-response","449","2673940","0.0-8.0-0.0-5.7","32","<p><img class= 'stimulus' src='images/baseline/building9.jpg'></img></p>","null","","1550933268099","","","","","","",""
"null","","html-keyboard-response","450","2674042","0.0-8.0-0.0-6.7","32","<p><img class= 'stimulus' src='images/baseline/architecture_modern_architecture_852928.jpg'></img></p>","null","","1550933268199","6","","","","","",""
"null","","html-keyboard-response","451","2674141","0.0-8.0-0.0-7.7","32","<p><img class= 'stimulus' src='images/baseline/building4.jpg'></img></p>","null","","1550933268300","","","","","","",""
"null","","html-keyboard-response","452","2674240","0.0-8.0-0.0-8.7","32","<p><img class= 'stimulus' src='images/baseline/Linden,_paysage.jpg'></img></p>","null","","1550933268399","8","","","","","",""
"null","","html-keyboard-response","453","2674341","0.0-8.0-0.0-9.7","32","<p><img class= 'stimulus' src='images/baseline/Paysage_enneige_02.jpg'></img></p>","null","","1550933268499","","","","","","",""
"null","","html-keyboard-response","454","2674441","0.0-8.0-0.0-10.7","32","<p><img class= 'stimulus' src='images/baseline/Dirt 2.jpg'></img></p>","null","","1550933268600","","","","","","",""
"null","","html-keyboard-response","455","2674541","0.0-8.0-0.0-11.7","32","<p><img class= 'stimulus' src='images/baseline/04085v.jpg'></img></p>","null","","1550933268699","","","","","","",""
"null","","html-keyboard-response","456","2674641","0.0-8.0-0.0-12.7","32","<p><img class= 'stimulus' src='images/baseline/sunny-landscape-with-dry-brush-and-mountain-background.jpg'></img></p>","null","","1550933268800","12","","","","","",""
"null","","html-keyboard-response","457","2674741","0.0-8.0-0.0-13.7","32","<p><img class= 'stimulus' src='images/baseline/04196v.jpg'></img></p>","null","","1550933268899","","","","","","",""
"null","","html-keyboard-response","458","2674841","0.0-8.0-0.0-14.7","32","<p><img class= 'stimulus left-rotate' src='images/target/9525-a-lonely-single-tree-in-a-field-pv.jpg'></img></p>","null","","1550933269000","14","","","","","",""
"null","","html-keyboard-response","459","2674942","0.0-8.0-0.0-15.7","32","<p><img class= 'stimulus' src='images/baseline/red rocks from afar.jpg'></img></p>","null","","1550933269100","","","","","","",""
"null","","html-keyboard-response","460","2675040","0.0-8.0-0.0-16.7","32","<p><img class= 'stimulus' src='images/baseline/Happy pose 3.jpg'></img></p>","null","","1550933269200","","","","","","",""
"null","","html-keyboard-response","461","2675158","0.0-8.0-0.0-17.7","32","<p><img class= 'stimulus' src='images/baseline/house7.jpg'></img></p>","null","","1550933269300","","","","","","",""
"1721.7999999998137","","html-button-response","462","2677884","0.0-8.0-0.0-18.7","32","<div class = ""response_question"">WAS THE IMAGE ROTATED...</div>","","0","","","6","8","bas","left","test","true"
"2166.5","","html-button-response","463","2680053","0.0-8.0-0.0-0.8","32","","","0","","","","","","","",""
"null","","html-keyboard-response","464","2680124","0.0-8.0-0.0-1.8","32","<p><img class= 'stimulus' src='images/baseline/Sidewalk 4.jpg'></img></p>","null","","1550933274282","","","","","","",""
"null","","html-keyboard-response","465","2680224","0.0-8.0-0.0-2.8","32","<p><img class= 'stimulus' src='images/baseline/landscape4.jpg'></img></p>","null","","1550933274382","","","","","","",""
"null","","html-keyboard-response","466","2680324","0.0-8.0-0.0-3.8","32","<p><img class= 'stimulus' src='images/baseline/03063v.jpg'></img></p>","null","","1550933274482","","","","","","",""
"null","","html-keyboard-response","467","2680424","0.0-8.0-0.0-4.8","32","<p><img class= 'stimulus' src='images/baseline/05255v.jpg'></img></p>","null","","1550933274583","4","","","","","",""
"null","","html-keyboard-response","468","2680524","0.0-8.0-0.0-5.8","32","<p><img class= 'stimulus' src='images/baseline/river 1.jpg'></img></p>","null","","1550933274683","","","","","","",""
"null","","html-keyboard-response","469","2680624","0.0-8.0-0.0-6.8","32","<p><img class= 'stimulus' src='images/negative/Shark 11.jpg'></img></p>","null","","1550933274783","6","","","","","",""
"null","","html-keyboard-response","470","2680724","0.0-8.0-0.0-7.8","32","<p><img class= 'stimulus' src='images/baseline/landscape29.jpg'></img></p>","null","","1550933274882","","","","","","",""
"null","","html-keyboard-response","471","2680825","0.0-8.0-0.0-8.8","32","<p><img class= 'stimulus' src='images/baseline/farmhouse9.jpg'></img></p>","null","","1550933274982","8","","","","","",""
"null","","html-keyboard-response","472","2680923","0.0-8.0-0.0-9.8","32","<p><img class= 'stimulus' src='images/baseline/seoul-410266_1920.jpg'></img></p>","null","","1550933275082","","","","","","",""
"null","","html-keyboard-response","473","2681024","0.0-8.0-0.0-10.8","32","<p><img class= 'stimulus' src='images/baseline/field 4.jpg'></img></p>","null","","1550933275184","","","","","","",""
"null","","html-keyboard-response","474","2681124","0.0-8.0-0.0-11.8","32","<p><img class= 'stimulus' src='images/baseline/Skyscraper 2.jpg'></img></p>","null","","1550933275284","","","","","","",""
"null","","html-keyboard-response","475","2681224","0.0-8.0-0.0-12.8","32","<p><img class= 'stimulus' src='images/baseline/02960v.jpg'></img></p>","null","","1550933275383","12","","","","","",""
"null","","html-keyboard-response","476","2681324","0.0-8.0-0.0-13.8","32","<p><img class= 'stimulus' src='images/baseline/agriculture-cereal-clouds-175389.jpg'></img></p>","null","","1550933275483","","","","","","",""
"null","","html-keyboard-response","477","2681424","0.0-8.0-0.0-14.8","32","<p><img class= 'stimulus' src='images/target/pexels-photo-236294.jpeg'></img></p>","null","","1550933275582","14","","","","","",""
"null","","html-keyboard-response","478","2681524","0.0-8.0-0.0-15.8","32","<p><img class= 'stimulus' src='images/baseline/building12.jpg'></img></p>","null","","1550933275683","","","","","","",""
"null","","html-keyboard-response","479","2681624","0.0-8.0-0.0-16.8","32","<p><img class= 'stimulus' src='images/baseline/field 1.jpg'></img></p>","null","","1550933275782","","","","","","",""
"null","","html-keyboard-response","480","2681740","0.0-8.0-0.0-17.8","32","<p><img class= 'stimulus' src='images/baseline/field 2.jpg'></img></p>","null","","1550933275883","","","","","","",""
"2571.1999999997206","","html-button-response","481","2685317","0.0-8.0-0.0-18.8","32","<div class = ""response_question"">WAS THE IMAGE ROTATED...</div>","","3","","","6","8","neg","right","test","true"
"2046.2999999998137","","html-button-response","482","2687365","0.0-8.0-0.0-0.9","32","","","0","","","","","","","",""
"null","","html-keyboard-response","483","2687442","0.0-8.0-0.0-1.9","32","<p><img class= 'stimulus' src='images/baseline/03114v.jpg'></img></p>","null","","1550933281600","","","","","","",""
"null","","html-keyboard-response","484","2687541","0.0-8.0-0.0-2.9","32","<p><img class= 'stimulus' src='images/baseline/autumn-landscape-with-lake-fall-trees-mountains.jpg'></img></p>","null","","1550933281700","","","","","","",""
"null","","html-keyboard-response","485","2687642","0.0-8.0-0.0-3.9","32","<p><img class= 'stimulus' src='images/baseline/02962v.jpg'></img></p>","null","","1550933281800","","","","","","",""
"null","","html-keyboard-response","486","2687741","0.0-8.0-0.0-4.9","32","<p><img class= 'stimulus' src='images/baseline/landscape35.jpg'></img></p>","null","","1550933281901","4","","","","","",""
"null","","html-keyboard-response","487","2687841","0.0-8.0-0.0-5.9","32","<p><img class= 'stimulus' src='images/baseline/house6.jpg'></img></p>","null","","1550933281999","","","","","","",""
"null","","html-keyboard-response","488","2687940","0.0-8.0-0.0-6.9","32","<p><img class= 'stimulus' src='images/neutral/zebras.jpg'></img></p>","null","","1550933282100","6","","","","","",""
"null","","html-keyboard-response","489","2688041","0.0-8.0-0.0-7.9","32","<p><img class= 'stimulus' src='images/baseline/05264v.jpg'></img></p>","null","","1550933282200","","","","","","",""
"null","","html-keyboard-response","490","2688141","0.0-8.0-0.0-8.9","32","<p><img class= 'stimulus' src='images/baseline/farmhouse7.jpg'></img></p>","null","","1550933282300","8","","","","","",""
"null","","html-keyboard-response","491","2688240","0.0-8.0-0.0-9.9","32","<p><img class= 'stimulus' src='images/baseline/geese-flying-over-lake-at-dusk.jpg'></img></p>","null","","1550933282399","","","","","","",""
"null","","html-keyboard-response","492","2688340","0.0-8.0-0.0-10.9","32","<p><img class= 'stimulus' src='images/baseline/sunset-over-the-lake.jpg'></img></p>","null","","1550933282500","","","","","","",""
"null","","html-keyboard-response","493","2688441","0.0-8.0-0.0-11.9","32","<p><img class= 'stimulus' src='images/baseline/Cold 7.jpg'></img></p>","null","","1550933282599","","","","","","",""
"null","","html-keyboard-response","494","2688541","0.0-8.0-0.0-12.9","32","<p><img class= 'stimulus' src='images/baseline/landscape31.jpg'></img></p>","null","","1550933282700","12","","","","","",""
"null","","html-keyboard-response","495","2688641","0.0-8.0-0.0-13.9","32","<p><img class= 'stimulus' src='images/baseline/hills 3.jpg'></img></p>","null","","1550933282800","","","","","","",""
"null","","html-keyboard-response","496","2688741","0.0-8.0-0.0-14.9","32","<p><img class= 'stimulus left-rotate' src='images/target/cactus1.jpg'></img></p>","null","","1550933282900","14","","","","","",""
"null","","html-keyboard-response","497","2688842","0.0-8.0-0.0-15.9","32","<p><img class= 'stimulus' src='images/baseline/Beach 8.jpg'></img></p>","null","","1550933283000","","","","","","",""
"null","","html-keyboard-response","498","2688942","0.0-8.0-0.0-16.9","32","<p><img class= 'stimulus' src='images/baseline/05139v.jpg'></img></p>","null","","1550933283099","","","","","","",""
"null","","html-keyboard-response","499","2689057","0.0-8.0-0.0-17.9","32","<p><img class= 'stimulus' src='images/baseline/Skyscraper 1.jpg'></img></p>","null","","1550933283199","","","","","","",""
"2455.100000000093","","html-button-response","500","2692514","0.0-8.0-0.0-18.9","32","<div class = ""response_question"">WAS THE IMAGE ROTATED...</div>","","0","","","6","8","neu","left","test","true"
"3926.5","","html-button-response","501","2696443","0.0-8.0-0.0-0.10","32","","","0","","","","","","","",""
"null","","html-keyboard-response","502","2696522","0.0-8.0-0.0-1.10","32","<p><img class= 'stimulus' src='images/baseline/Street 5.jpg'></img></p>","null","","1550933290680","","","","","","",""
"null","","html-keyboard-response","503","2696622","0.0-8.0-0.0-2.10","32","<p><img class= 'stimulus' src='images/baseline/03201v.jpg'></img></p>","null","","1550933290781","","","","","","",""
"null","","html-keyboard-response","504","2696723","0.0-8.0-0.0-3.10","32","<p><img class= 'stimulus' src='images/baseline/road 1(1).jpg'></img></p>","null","","1550933290881","","","","","","",""
"null","","html-keyboard-response","505","2696822","0.0-8.0-0.0-4.10","32","<p><img class= 'stimulus' src='images/baseline/pexels-photo-894312.jpeg'></img></p>","null","","1550933290981","4","","","","","",""
"null","","html-keyboard-response","506","2696922","0.0-8.0-0.0-5.10","32","<p><img class= 'stimulus' src='images/baseline/farmhouse6.jpg'></img></p>","null","","1550933291080","","","","","","",""
"null","","html-keyboard-response","507","2697022","0.0-8.0-0.0-6.10","32","<p><img class= 'stimulus' src='images/negative/Gun 7.jpg'></img></p>","null","","1550933291180","6","","","","","",""
