"rt","responses","trial_type","trial_index","time_elapsed","internal_node_id","participant_id","stimulus","key_press","button_pressed","stim_onset","sequence_position","distractor_position","target_lag","distractor_type","target_orientation","phase","correct"
"26728.399999999965","{""Q0"":""COGS219_2019_09""}","survey-text","0","26734","0.0-0.0","COGS219_2019_09","","","","","","","","","","",""
"2242842.300000001","","html-keyboard-response","1","2269586","0.0-1.0","COGS219_2019_09","Welcome to the experiment.","67","","","","","","","","",""
"38310.79999999935","","html-button-response","2","2307902","0.0-2.0","COGS219_2019_09","<p>Several images will be presented sequentially.        Each image will only be on the screen for about 100 milliseconds.</p>        <p> One of the images may be rotated 90 degrees right or left.        Watch for this image and remember if it is rotated right or left.</p>               <p>Images of people and animals will appear, and sometimes they will be unpleasant.        These will never be the rotated target image.</p>","","0","","","","","","","",""
"2198.2999999998137","","html-button-response","3","2310102","0.0-3.0","COGS219_2019_09","<p><img class=""stimulus left-rotate"" src=""images/target/tree1.jpg""></img></p><p>This is an example of an image rotated to the left.</p>","","0","","","","","","","",""
"1126.9000000013039","","html-button-response","4","2311230","0.0-4.0","COGS219_2019_09","<p><img class=""stimulus"" src=""images/target/Wild-West-South-West-Usa-Landscape-America-1663497.jpg""></img></p><p>This is an example of an image rotated to the right.</p>","","0","","","","","","","",""
"9823.10000000149","","html-button-response","5","2321053","0.0-5.0","COGS219_2019_09","<p>We will now begin a short practice session.</p>         <p>A + symbol will appear in the middle of the screen. Please fix your gaze on the center of the +, and then click the mouse button to begin the image sequence.</p>         <p>Please avoid blinking or eye movements while the images are on the screen.</p>        <p>The image sequence will start relatively slow. After a few sequences, it will speed up.</p>","","0","","","","","","","",""
"8398.599999998696","","html-button-response","6","2329453","0.0-6.0-0.0","COGS219_2019_09","","","0","","","","","","","",""
"null","","html-keyboard-response","7","2329639","0.0-6.0-1.0","COGS219_2019_09","<p><img class= 'stimulus' src='images/baseline/landscape12.jpg'></img></p>","null","","1549744674335","","","","","","",""
"null","","html-keyboard-response","8","2329839","0.0-6.0-2.0","COGS219_2019_09","<p><img class= 'stimulus' src='images/baseline/Lake 16.jpg'></img></p>","null","","1549744674534","","","","","","",""
"null","","html-keyboard-response","9","2330040","0.0-6.0-3.0","COGS219_2019_09","<p><img class= 'stimulus' src='images/baseline/02960v.jpg'></img></p>","null","","1549744674734","","","","","","",""
"null","","html-keyboard-response","10","2330240","0.0-6.0-4.0","COGS219_2019_09","<p><img class= 'stimulus' src='images/baseline/02988v.jpg'></img></p>","null","","1549744674934","4","","","","","",""
"null","","html-keyboard-response","11","2330439","0.0-6.0-5.0","COGS219_2019_09","<p><img class= 'stimulus' src='images/baseline/04014v.jpg'></img></p>","null","","1549744675134","","","","","","",""
"null","","html-keyboard-response","12","2330639","0.0-6.0-6.0","COGS219_2019_09","<p><img class= 'stimulus' src='images/baseline/kokkari-1523011968Xfr.jpg'></img></p>","null","","1549744675336","6","","","","","",""
"null","","html-keyboard-response","13","2330839","0.0-6.0-7.0","COGS219_2019_09","<p><img class= 'stimulus' src='images/baseline/road.jpg'></img></p>","null","","1549744675534","","","","","","",""
"null","","html-keyboard-response","14","2331039","0.0-6.0-8.0","COGS219_2019_09","<p><img class= 'stimulus' src='images/baseline/landscape11.jpg'></img></p>","null","","1549744675735","8","","","","","",""
"null","","html-keyboard-response","15","2331240","0.0-6.0-9.0","COGS219_2019_09","<p><img class= 'stimulus' src='images/baseline/04098v.jpg'></img></p>","null","","1549744675935","","","","","","",""
"null","","html-keyboard-response","16","2331439","0.0-6.0-10.0","COGS219_2019_09","<p><img class= 'stimulus' src='images/baseline/house10.jpg'></img></p>","null","","1549744676134","","","","","","",""
"null","","html-keyboard-response","17","2331639","0.0-6.0-11.0","COGS219_2019_09","<p><img class= 'stimulus' src='images/baseline/architecture_modern_architecture_852928.jpg'></img></p>","null","","1549744676336","","","","","","",""
"null","","html-keyboard-response","18","2331839","0.0-6.0-12.0","COGS219_2019_09","<p><img class= 'stimulus' src='images/baseline/Grass 6.jpg'></img></p>","null","","1549744676534","12","","","","","",""
"null","","html-keyboard-response","19","2332039","0.0-6.0-13.0","COGS219_2019_09","<p><img class= 'stimulus' src='images/baseline/foreclosed_home.jpg'></img></p>","null","","1549744676734","","","","","","",""
"null","","html-keyboard-response","20","2332239","0.0-6.0-14.0","COGS219_2019_09","<p><img class= 'stimulus left-rotate' src='images/target/oak-1913194_640.jpg'></img></p>","null","","1549744676934","14","","","","","",""
"null","","html-keyboard-response","21","2332440","0.0-6.0-15.0","COGS219_2019_09","<p><img class= 'stimulus' src='images/baseline/Sidewalk 4.jpg'></img></p>","null","","1549744677135","","","","","","",""
"null","","html-keyboard-response","22","2332639","0.0-6.0-16.0","COGS219_2019_09","<p><img class= 'stimulus' src='images/baseline/03056v.jpg'></img></p>","null","","1549744677334","","","","","","",""
"null","","html-keyboard-response","23","2332856","0.0-6.0-17.0","COGS219_2019_09","<p><img class= 'stimulus' src='images/baseline/building5.jpg'></img></p>","null","","1549744677534","","","","","","",""
"12319.799999999348","","html-button-response","24","2346182","0.0-6.0-18.0","COGS219_2019_09","<div class = ""response_question"">WAS THE IMAGE ROTATED...</div>","","1","","","6","8","bas","left","practice","true"
"3694.1999999997206","","html-button-response","25","2349878","0.0-6.0-0.1","COGS219_2019_09","","","0","","","","","","","",""
"null","","html-keyboard-response","26","2350056","0.0-6.0-1.1","COGS219_2019_09","<p><img class= 'stimulus' src='images/baseline/empire-state-building.jpg'></img></p>","null","","1549744694751","","","","","","",""
"null","","html-keyboard-response","27","2350258","0.0-6.0-2.1","COGS219_2019_09","<p><img class= 'stimulus' src='images/baseline/building2.jpg'></img></p>","null","","1549744694951","","","","","","",""
"null","","html-keyboard-response","28","2350456","0.0-6.0-3.1","COGS219_2019_09","<p><img class= 'stimulus' src='images/baseline/road 1(1).jpg'></img></p>","null","","1549744695152","","","","","","",""
"null","","html-keyboard-response","29","2350655","0.0-6.0-4.1","COGS219_2019_09","<p><img class= 'stimulus' src='images/baseline/Lake 4.jpg'></img></p>","null","","1549744695353","4","","","","","",""
"null","","html-keyboard-response","30","2350856","0.0-6.0-5.1","COGS219_2019_09","<p><img class= 'stimulus' src='images/baseline/city-silhouette-at-sunset-871291580819Esw.jpg'></img></p>","null","","1549744695550","","","","","","",""
"null","","html-keyboard-response","31","2351056","0.0-6.0-6.1","COGS219_2019_09","<p><img class= 'stimulus' src='images/target/pexels-photo-1534411.jpeg'></img></p>","null","","1549744695752","6","","","","","",""
"null","","html-keyboard-response","32","2351256","0.0-6.0-7.1","COGS219_2019_09","<p><img class= 'stimulus' src='images/baseline/05242v.jpg'></img></p>","null","","1549744695953","","","","","","",""
"null","","html-keyboard-response","33","2351455","0.0-6.0-8.1","COGS219_2019_09","<p><img class= 'stimulus' src='images/baseline/Street 1.jpg'></img></p>","null","","1549744696153","8","","","","","",""
"null","","html-keyboard-response","34","2351656","0.0-6.0-9.1","COGS219_2019_09","<p><img class= 'stimulus' src='images/baseline/hills 3.jpg'></img></p>","null","","1549744696351","","","","","","",""
"null","","html-keyboard-response","35","2351856","0.0-6.0-10.1","COGS219_2019_09","<p><img class= 'stimulus' src='images/baseline/03162v.jpg'></img></p>","null","","1549744696552","","","","","","",""
"null","","html-keyboard-response","36","2352056","0.0-6.0-11.1","COGS219_2019_09","<p><img class= 'stimulus' src='images/baseline/architecture-956332_1280.jpg'></img></p>","null","","1549744696751","","","","","","",""
"null","","html-keyboard-response","37","2352256","0.0-6.0-12.1","COGS219_2019_09","<p><img class= 'stimulus' src='images/baseline/Street 3.jpg'></img></p>","null","","1549744696952","12","","","","","",""
"null","","html-keyboard-response","38","2352456","0.0-6.0-13.1","COGS219_2019_09","<p><img class= 'stimulus' src='images/baseline/05161v.jpg'></img></p>","null","","1549744697152","","","","","","",""
"null","","html-keyboard-response","39","2352655","0.0-6.0-14.1","COGS219_2019_09","<p><img class= 'stimulus' src='images/baseline/03220v.jpg'></img></p>","null","","1549744697352","14","","","","","",""
"null","","html-keyboard-response","40","2352856","0.0-6.0-15.1","COGS219_2019_09","<p><img class= 'stimulus' src='images/baseline/Street 4.jpg'></img></p>","null","","1549744697553","","","","","","",""
"null","","html-keyboard-response","41","2353056","0.0-6.0-16.1","COGS219_2019_09","<p><img class= 'stimulus' src='images/baseline/landscape19.jpg'></img></p>","null","","1549744697753","","","","","","",""
"null","","html-keyboard-response","42","2353273","0.0-6.0-17.1","COGS219_2019_09","<p><img class= 'stimulus' src='images/baseline/Lake 14.jpg'></img></p>","null","","1549744697952","","","","","","",""
"1111.5999999982305","","html-button-response","43","2355390","0.0-6.0-18.1","COGS219_2019_09","<div class = ""response_question"">WAS THE IMAGE ROTATED...</div>","","3","","","4","2","bas","right","practice","true"
"1454.700000000652","","html-button-response","44","2356847","0.0-6.0-0.2","COGS219_2019_09","","","0","","","","","","","",""
"null","","html-keyboard-response","45","2357023","0.0-6.0-1.2","COGS219_2019_09","<p><img class= 'stimulus' src='images/baseline/Linden,_paysage.jpg'></img></p>","null","","1549744701718","","","","","","",""
"null","","html-keyboard-response","46","2357223","0.0-6.0-2.2","COGS219_2019_09","<p><img class= 'stimulus' src='images/baseline/03201v.jpg'></img></p>","null","","1549744701917","","","","","","",""
"null","","html-keyboard-response","47","2357423","0.0-6.0-3.2","COGS219_2019_09","<p><img class= 'stimulus' src='images/baseline/03217v.jpg'></img></p>","null","","1549744702117","","","","","","",""
"null","","html-keyboard-response","48","2357623","0.0-6.0-4.2","COGS219_2019_09","<p><img class= 'stimulus' src='images/baseline/building12.jpg'></img></p>","null","","1549744702318","4","","","","","",""
"null","","html-keyboard-response","49","2357823","0.0-6.0-5.2","COGS219_2019_09","<p><img class= 'stimulus' src='images/baseline/02962v.jpg'></img></p>","null","","1549744702519","","","","","","",""
"null","","html-keyboard-response","50","2358023","0.0-6.0-6.2","COGS219_2019_09","<p><img class= 'stimulus left-rotate' src='images/target/transamerica-pyramid-530061_640.jpg'></img></p>","null","","1549744702720","6","","","","","",""
"null","","html-keyboard-response","51","2358223","0.0-6.0-7.2","COGS219_2019_09","<p><img class= 'stimulus' src='images/baseline/Peyto_Lake-Banff_NP-Canada.jpg'></img></p>","null","","1549744702919","","","","","","",""
"null","","html-keyboard-response","52","2358423","0.0-6.0-8.2","COGS219_2019_09","<p><img class= 'stimulus' src='images/baseline/pexels-photo-1287089.jpeg'></img></p>","null","","1549744703117","8","","","","","",""
"null","","html-keyboard-response","53","2358624","0.0-6.0-9.2","COGS219_2019_09","<p><img class= 'stimulus' src='images/baseline/valley 2.jpg'></img></p>","null","","1549744703318","","","","","","",""
"null","","html-keyboard-response","54","2358823","0.0-6.0-10.2","COGS219_2019_09","<p><img class= 'stimulus' src='images/baseline/Beach 2.jpg'></img></p>","null","","1549744703519","","","","","","",""
"null","","html-keyboard-response","55","2359022","0.0-6.0-11.2","COGS219_2019_09","<p><img class= 'stimulus' src='images/baseline/02947v.jpg'></img></p>","null","","1549744703718","","","","","","",""
"null","","html-keyboard-response","56","2359222","0.0-6.0-12.2","COGS219_2019_09","<p><img class= 'stimulus' src='images/baseline/03114v.jpg'></img></p>","null","","1549744703920","12","","","","","",""
"null","","html-keyboard-response","57","2359423","0.0-6.0-13.2","COGS219_2019_09","<p><img class= 'stimulus' src='images/baseline/05252v.jpg'></img></p>","null","","1549744704118","","","","","","",""
"null","","html-keyboard-response","58","2359623","0.0-6.0-14.2","COGS219_2019_09","<p><img class= 'stimulus' src='images/baseline/farmhouse2.jpg'></img></p>","null","","1549744704317","14","","","","","",""
"null","","html-keyboard-response","59","2359823","0.0-6.0-15.2","COGS219_2019_09","<p><img class= 'stimulus' src='images/baseline/landscape17.jpg'></img></p>","null","","1549744704518","","","","","","",""
"null","","html-keyboard-response","60","2360022","0.0-6.0-16.2","COGS219_2019_09","<p><img class= 'stimulus' src='images/baseline/chicago-skyline-at-night-1476869511p8U.jpg'></img></p>","null","","1549744704719","","","","","","",""
"null","","html-keyboard-response","61","2360239","0.0-6.0-17.2","COGS219_2019_09","<p><img class= 'stimulus' src='images/baseline/landscape14.jpg'></img></p>","null","","1549744704920","","","","","","",""
"886.0000000004657","","html-button-response","62","2362134","0.0-6.0-18.2","COGS219_2019_09","<div class = ""response_question"">WAS THE IMAGE ROTATED...</div>","","0","","","4","2","bas","left","practice","true"
"2190.5000000009313","","html-button-response","63","2364315","0.0-6.0-0.3","COGS219_2019_09","","","0","","","","","","","",""
"null","","html-keyboard-response","64","2364495","0.0-6.0-1.3","COGS219_2019_09","<p><img class= 'stimulus' src='images/baseline/04130v.jpg'></img></p>","null","","1549744709190","","","","","","",""
"null","","html-keyboard-response","65","2364695","0.0-6.0-2.3","COGS219_2019_09","<p><img class= 'stimulus' src='images/baseline/Lake 15.jpg'></img></p>","null","","1549744709391","","","","","","",""
"null","","html-keyboard-response","66","2364896","0.0-6.0-3.3","COGS219_2019_09","<p><img class= 'stimulus' src='images/baseline/cyrillic.jpg'></img></p>","null","","1549744709592","","","","","","",""
"null","","html-keyboard-response","67","2365095","0.0-6.0-4.3","COGS219_2019_09","<p><img class= 'stimulus' src='images/baseline/Bahia_Onelli_Parque_Nacional_Los_Glaciares_Patagonia_Argentina_Luca_Galuzzi_2005.jpg'></img></p>","null","","1549744709790","4","","","","","",""
"null","","html-keyboard-response","68","2365295","0.0-6.0-5.3","COGS219_2019_09","<p><img class= 'stimulus' src='images/baseline/03204v.jpg'></img></p>","null","","1549744709992","","","","","","",""
"null","","html-keyboard-response","69","2365496","0.0-6.0-6.3","COGS219_2019_09","<p><img class= 'stimulus' src='images/baseline/cranes 1.jpg'></img></p>","null","","1549744710190","6","","","","","",""
"null","","html-keyboard-response","70","2365695","0.0-6.0-7.3","COGS219_2019_09","<p><img class= 'stimulus' src='images/baseline/pexels-photo-1837621.jpeg'></img></p>","null","","1549744710390","","","","","","",""
"null","","html-keyboard-response","71","2365896","0.0-6.0-8.3","COGS219_2019_09","<p><img class= 'stimulus' src='images/baseline/05292v.jpg'></img></p>","null","","1549744710590","8","","","","","",""
"null","","html-keyboard-response","72","2366095","0.0-6.0-9.3","COGS219_2019_09","<p><img class= 'stimulus' src='images/baseline/farmhouse8.jpg'></img></p>","null","","1549744710791","","","","","","",""
"null","","html-keyboard-response","73","2366295","0.0-6.0-10.3","COGS219_2019_09","<p><img class= 'stimulus' src='images/baseline/04064v.jpg'></img></p>","null","","1549744710992","","","","","","",""
"null","","html-keyboard-response","74","2366495","0.0-6.0-11.3","COGS219_2019_09","<p><img class= 'stimulus' src='images/baseline/03045v.jpg'></img></p>","null","","1549744711192","","","","","","",""
"null","","html-keyboard-response","75","2366695","0.0-6.0-12.3","COGS219_2019_09","<p><img class= 'stimulus left-rotate' src='images/target/lone-tree.png'></img></p>","null","","1549744711390","12","","","","","",""
"null","","html-keyboard-response","76","2366895","0.0-6.0-13.3","COGS219_2019_09","<p><img class= 'stimulus' src='images/baseline/Freudenberg_sg_Switzerland.jpg'></img></p>","null","","1549744711592","","","","","","",""
"null","","html-keyboard-response","77","2367095","0.0-6.0-14.3","COGS219_2019_09","<p><img class= 'stimulus' src='images/baseline/02977v.jpg'></img></p>","null","","1549744711790","14","","","","","",""
"null","","html-keyboard-response","78","2367295","0.0-6.0-15.3","COGS219_2019_09","<p><img class= 'stimulus' src='images/baseline/04021v.jpg'></img></p>","null","","1549744711990","","","","","","",""
"null","","html-keyboard-response","79","2367495","0.0-6.0-16.3","COGS219_2019_09","<p><img class= 'stimulus' src='images/baseline/04222v.jpg'></img></p>","null","","1549744712192","","","","","","",""
"null","","html-keyboard-response","80","2367713","0.0-6.0-17.3","COGS219_2019_09","<p><img class= 'stimulus' src='images/baseline/field 4.jpg'></img></p>","null","","1549744712390","","","","","","",""
"1398.3999999999069","","html-button-response","81","2370115","0.0-6.0-18.3","COGS219_2019_09","<div class = ""response_question"">WAS THE IMAGE ROTATED...</div>","","0","","","4","8","bas","left","practice","true"
"1006.2999999993481","","html-button-response","82","2371122","0.0-6.0-0.4","COGS219_2019_09","","","0","","","","","","","",""
"null","","html-keyboard-response","83","2371262","0.0-6.0-1.4","COGS219_2019_09","<p><img class= 'stimulus' src='images/baseline/Sailing 3.jpg'></img></p>","null","","1549744716007","","","","","","",""
"null","","html-keyboard-response","84","2371413","0.0-6.0-2.4","COGS219_2019_09","<p><img class= 'stimulus' src='images/baseline/vintage-art-deco-storefront.jpg'></img></p>","null","","1549744716158","","","","","","",""
"null","","html-keyboard-response","85","2371562","0.0-6.0-3.4","COGS219_2019_09","<p><img class= 'stimulus' src='images/baseline/03063v.jpg'></img></p>","null","","1549744716309","","","","","","",""
"null","","html-keyboard-response","86","2371712","0.0-6.0-4.4","COGS219_2019_09","<p><img class= 'stimulus' src='images/baseline/house3.jpg'></img></p>","null","","1549744716457","4","","","","","",""
"null","","html-keyboard-response","87","2371863","0.0-6.0-5.4","COGS219_2019_09","<p><img class= 'stimulus' src='images/baseline/04162v.jpg'></img></p>","null","","1549744716609","","","","","","",""
"null","","html-keyboard-response","88","2372013","0.0-6.0-6.4","COGS219_2019_09","<p><img class= 'stimulus' src='images/baseline/05158v.jpg'></img></p>","null","","1549744716759","6","","","","","",""
"null","","html-keyboard-response","89","2372162","0.0-6.0-7.4","COGS219_2019_09","<p><img class= 'stimulus' src='images/baseline/landscape40.jpg'></img></p>","null","","1549744716907","","","","","","",""
"null","","html-keyboard-response","90","2372312","0.0-6.0-8.4","COGS219_2019_09","<p><img class= 'stimulus left-rotate' src='images/target/tree-197536_640.jpg'></img></p>","null","","1549744717058","8","","","","","",""
"null","","html-keyboard-response","91","2372462","0.0-6.0-9.4","COGS219_2019_09","<p><img class= 'stimulus' src='images/baseline/Desert_View_Indian_Wells.jpg'></img></p>","null","","1549744717207","","","","","","",""
"null","","html-keyboard-response","92","2372612","0.0-6.0-10.4","COGS219_2019_09","<p><img class= 'stimulus' src='images/baseline/04060v.jpg'></img></p>","null","","1549744717358","","","","","","",""
"null","","html-keyboard-response","93","2372763","0.0-6.0-11.4","COGS219_2019_09","<p><img class= 'stimulus' src='images/baseline/landscape31.jpg'></img></p>","null","","1549744717507","","","","","","",""
"null","","html-keyboard-response","94","2372913","0.0-6.0-12.4","COGS219_2019_09","<p><img class= 'stimulus' src='images/baseline/Lake 3.jpg'></img></p>","null","","1549744717657","12","","","","","",""
"null","","html-keyboard-response","95","2373061","0.0-6.0-13.4","COGS219_2019_09","<p><img class= 'stimulus' src='images/baseline/landscape22.jpg'></img></p>","null","","1549744717808","","","","","","",""
"null","","html-keyboard-response","96","2373213","0.0-6.0-14.4","COGS219_2019_09","<p><img class= 'stimulus' src='images/baseline/building8.jpg'></img></p>","null","","1549744717959","14","","","","","",""
"null","","html-keyboard-response","97","2373361","0.0-6.0-15.4","COGS219_2019_09","<p><img class= 'stimulus' src='images/baseline/hiking-trail.jpg'></img></p>","null","","1549744718108","","","","","","",""
"null","","html-keyboard-response","98","2373512","0.0-6.0-16.4","COGS219_2019_09","<p><img class= 'stimulus' src='images/baseline/Camping 10.jpg'></img></p>","null","","1549744718257","","","","","","",""
"null","","html-keyboard-response","99","2373679","0.0-6.0-17.4","COGS219_2019_09","<p><img class= 'stimulus' src='images/baseline/landscape23.jpg'></img></p>","null","","1549744718407","","","","","","",""
"905.0999999996275","","html-button-response","100","2375587","0.0-6.0-18.4","COGS219_2019_09","<div class = ""response_question"">WAS THE IMAGE ROTATED...</div>","","0","","","6","2","bas","left","practice","true"
"1246.6000000000931","","html-button-response","101","2376835","0.0-6.0-0.5","COGS219_2019_09","","","0","","","","","","","",""
"null","","html-keyboard-response","102","2376962","0.0-6.0-1.5","COGS219_2019_09","<p><img class= 'stimulus' src='images/baseline/05303v.jpg'></img></p>","null","","1549744721708","","","","","","",""
"null","","html-keyboard-response","103","2377112","0.0-6.0-2.5","COGS219_2019_09","<p><img class= 'stimulus' src='images/baseline/05179v.jpg'></img></p>","null","","1549744721857","","","","","","",""
"null","","html-keyboard-response","104","2377263","0.0-6.0-3.5","COGS219_2019_09","<p><img class= 'stimulus' src='images/baseline/pexels-photo-1840893.jpeg'></img></p>","null","","1549744722007","","","","","","",""
"null","","html-keyboard-response","105","2377412","0.0-6.0-4.5","COGS219_2019_09","<p><img class= 'stimulus' src='images/baseline/horse_statue.jpg'></img></p>","null","","1549744722158","4","","","","","",""
"null","","html-keyboard-response","106","2377562","0.0-6.0-5.5","COGS219_2019_09","<p><img class= 'stimulus' src='images/baseline/Lake 8.jpg'></img></p>","null","","1549744722309","","","","","","",""
"null","","html-keyboard-response","107","2377712","0.0-6.0-6.5","COGS219_2019_09","<p><img class= 'stimulus' src='images/baseline/pexels-photo-541101.jpeg'></img></p>","null","","1549744722459","6","","","","","",""
"null","","html-keyboard-response","108","2377862","0.0-6.0-7.5","COGS219_2019_09","<p><img class= 'stimulus' src='images/baseline/pexels-photo-210617.jpeg'></img></p>","null","","1549744722608","","","","","","",""
"null","","html-keyboard-response","109","2378013","0.0-6.0-8.5","COGS219_2019_09","<p><img class= 'stimulus' src='images/baseline/04300v.jpg'></img></p>","null","","1549744722757","8","","","","","",""
"null","","html-keyboard-response","110","2378162","0.0-6.0-9.5","COGS219_2019_09","<p><img class= 'stimulus' src='images/baseline/Cold 7.jpg'></img></p>","null","","1549744722907","","","","","","",""
"null","","html-keyboard-response","111","2378313","0.0-6.0-10.5","COGS219_2019_09","<p><img class= 'stimulus' src='images/baseline/sunny-landscape-with-dry-brush-and-mountain-background.jpg'></img></p>","null","","1549744723057","","","","","","",""
"null","","html-keyboard-response","112","2378461","0.0-6.0-11.5","COGS219_2019_09","<p><img class= 'stimulus' src='images/baseline/05280v.jpg'></img></p>","null","","1549744723209","","","","","","",""
"null","","html-keyboard-response","113","2378612","0.0-6.0-12.5","COGS219_2019_09","<p><img class= 'stimulus' src='images/target/cactus1.jpg'></img></p>","null","","1549744723357","12","","","","","",""
"null","","html-keyboard-response","114","2378762","0.0-6.0-13.5","COGS219_2019_09","<p><img class= 'stimulus' src='images/baseline/farmhouse7.jpg'></img></p>","null","","1549744723509","","","","","","",""
"null","","html-keyboard-response","115","2378913","0.0-6.0-14.5","COGS219_2019_09","<p><img class= 'stimulus' src='images/baseline/house11.jpg'></img></p>","null","","1549744723657","14","","","","","",""
"null","","html-keyboard-response","116","2379062","0.0-6.0-15.5","COGS219_2019_09","<p><img class= 'stimulus' src='images/baseline/pexels-photo-259280.jpeg'></img></p>","null","","1549744723807","","","","","","",""
"null","","html-keyboard-response","117","2379212","0.0-6.0-16.5","COGS219_2019_09","<p><img class= 'stimulus' src='images/baseline/bird-flying-at-sunset.jpg'></img></p>","null","","1549744723957","","","","","","",""
"null","","html-keyboard-response","118","2379379","0.0-6.0-17.5","COGS219_2019_09","<p><img class= 'stimulus' src='images/baseline/church-silhouette-8712964986014Kb.jpg'></img></p>","null","","1549744724107","","","","","","",""
"811.0000000018626","","html-button-response","119","2381204","0.0-6.0-18.5","COGS219_2019_09","<div class = ""response_question"">WAS THE IMAGE ROTATED...</div>","","3","","","4","8","bas","right","practice","true"
"7789.999999998603","","html-button-response","120","2388995","0.0-6.0-0.6","COGS219_2019_09","","","0","","","","","","","",""
"null","","html-keyboard-response","121","2389129","0.0-6.0-1.6","COGS219_2019_09","<p><img class= 'stimulus' src='images/baseline/pexels-photo-894312.jpeg'></img></p>","null","","1549744733875","","","","","","",""
"null","","html-keyboard-response","122","2389279","0.0-6.0-2.6","COGS219_2019_09","<p><img class= 'stimulus' src='images/baseline/04284v.jpg'></img></p>","null","","1549744734025","","","","","","",""
"null","","html-keyboard-response","123","2389429","0.0-6.0-3.6","COGS219_2019_09","<p><img class= 'stimulus' src='images/baseline/05279v.jpg'></img></p>","null","","1549744734176","","","","","","",""
"null","","html-keyboard-response","124","2389578","0.0-6.0-4.6","COGS219_2019_09","<p><img class= 'stimulus' src='images/baseline/Lake 5.jpg'></img></p>","null","","1549744734326","4","","","","","",""
"null","","html-keyboard-response","125","2389729","0.0-6.0-5.6","COGS219_2019_09","<p><img class= 'stimulus' src='images/baseline/04063v.jpg'></img></p>","null","","1549744734474","","","","","","",""
"null","","html-keyboard-response","126","2389879","0.0-6.0-6.6","COGS219_2019_09","<p><img class= 'stimulus' src='images/baseline/pexels-photo-280222.jpeg'></img></p>","null","","1549744734625","6","","","","","",""
"null","","html-keyboard-response","127","2390029","0.0-6.0-7.6","COGS219_2019_09","<p><img class= 'stimulus' src='images/baseline/landscape38.jpg'></img></p>","null","","1549744734775","","","","","","",""
"null","","html-keyboard-response","128","2390179","0.0-6.0-8.6","COGS219_2019_09","<p><img class= 'stimulus' src='images/target/tree spring.jpeg'></img></p>","null","","1549744734925","8","","","","","",""
"null","","html-keyboard-response","129","2390329","0.0-6.0-9.6","COGS219_2019_09","<p><img class= 'stimulus' src='images/baseline/farmhouse4.jpg'></img></p>","null","","1549744735075","","","","","","",""
"null","","html-keyboard-response","130","2390480","0.0-6.0-10.6","COGS219_2019_09","<p><img class= 'stimulus' src='images/baseline/Road 1.jpg'></img></p>","null","","1549744735226","","","","","","",""
"null","","html-keyboard-response","131","2390628","0.0-6.0-11.6","COGS219_2019_09","<p><img class= 'stimulus' src='images/baseline/Beach 8.jpg'></img></p>","null","","1549744735376","","","","","","",""
"null","","html-keyboard-response","132","2390779","0.0-6.0-12.6","COGS219_2019_09","<p><img class= 'stimulus' src='images/baseline/pexels-photo-221125.jpeg'></img></p>","null","","1549744735525","12","","","","","",""
"null","","html-keyboard-response","133","2390929","0.0-6.0-13.6","COGS219_2019_09","<p><img class= 'stimulus' src='images/baseline/04229v.jpg'></img></p>","null","","1549744735674","","","","","","",""
"null","","html-keyboard-response","134","2391079","0.0-6.0-14.6","COGS219_2019_09","<p><img class= 'stimulus' src='images/baseline/03212v.jpg'></img></p>","null","","1549744735824","14","","","","","",""
"null","","html-keyboard-response","135","2391229","0.0-6.0-15.6","COGS219_2019_09","<p><img class= 'stimulus' src='images/baseline/house1.jpg'></img></p>","null","","1549744735975","","","","","","",""
"null","","html-keyboard-response","136","2391379","0.0-6.0-16.6","COGS219_2019_09","<p><img class= 'stimulus' src='images/baseline/04196v.jpg'></img></p>","null","","1549744736124","","","","","","",""
"null","","html-keyboard-response","137","2391546","0.0-6.0-17.6","COGS219_2019_09","<p><img class= 'stimulus' src='images/baseline/pexels-photo-59321.jpeg'></img></p>","null","","1549744736276","","","","","","",""
"702.4000000003725","","html-button-response","138","2393251","0.0-6.0-18.6","COGS219_2019_09","<div class = ""response_question"">WAS THE IMAGE ROTATED...</div>","","3","","","6","2","bas","right","practice","true"
"1022.1000000005588","","html-button-response","139","2394275","0.0-6.0-0.7","COGS219_2019_09","","","0","","","","","","","",""
"null","","html-keyboard-response","140","2394413","0.0-6.0-1.7","COGS219_2019_09","<p><img class= 'stimulus' src='images/baseline/farmhouse9.jpg'></img></p>","null","","1549744739157","","","","","","",""
"null","","html-keyboard-response","141","2394563","0.0-6.0-2.7","COGS219_2019_09","<p><img class= 'stimulus' src='images/baseline/pexels-photo-1261728.jpeg'></img></p>","null","","1549744739308","","","","","","",""
"null","","html-keyboard-response","142","2394713","0.0-6.0-3.7","COGS219_2019_09","<p><img class= 'stimulus' src='images/baseline/dirt-road-or-trail-through-park.jpg'></img></p>","null","","1549744739458","","","","","","",""
"null","","html-keyboard-response","143","2394863","0.0-6.0-4.7","COGS219_2019_09","<p><img class= 'stimulus' src='images/baseline/hills 1.jpg'></img></p>","null","","1549744739607","4","","","","","",""
"null","","html-keyboard-response","144","2395012","0.0-6.0-5.7","COGS219_2019_09","<p><img class= 'stimulus' src='images/baseline/landscape34.jpg'></img></p>","null","","1549744739758","","","","","","",""
"null","","html-keyboard-response","145","2395163","0.0-6.0-6.7","COGS219_2019_09","<p><img class= 'stimulus' src='images/baseline/landscape36.jpg'></img></p>","null","","1549744739909","6","","","","","",""
"null","","html-keyboard-response","146","2395312","0.0-6.0-7.7","COGS219_2019_09","<p><img class= 'stimulus' src='images/baseline/Bridge 1.jpg'></img></p>","null","","1549744740059","","","","","","",""
"null","","html-keyboard-response","147","2395462","0.0-6.0-8.7","COGS219_2019_09","<p><img class= 'stimulus' src='images/baseline/landscape16.jpg'></img></p>","null","","1549744740207","8","","","","","",""
"null","","html-keyboard-response","148","2395612","0.0-6.0-9.7","COGS219_2019_09","<p><img class= 'stimulus' src='images/baseline/Sunset 4.jpg'></img></p>","null","","1549744740357","","","","","","",""
"null","","html-keyboard-response","149","2395762","0.0-6.0-10.7","COGS219_2019_09","<p><img class= 'stimulus' src='images/baseline/agriculture-countryside-crop-259280.jpg'></img></p>","null","","1549744740508","","","","","","",""
"null","","html-keyboard-response","150","2395912","0.0-6.0-11.7","COGS219_2019_09","<p><img class= 'stimulus' src='images/baseline/landscape1.jpg'></img></p>","null","","1549744740659","","","","","","",""
"null","","html-keyboard-response","151","2396062","0.0-6.0-12.7","COGS219_2019_09","<p><img class= 'stimulus' src='images/baseline/landscape15.jpg'></img></p>","null","","1549744740807","12","","","","","",""
"null","","html-keyboard-response","152","2396213","0.0-6.0-13.7","COGS219_2019_09","<p><img class= 'stimulus' src='images/baseline/pexels-photo-534164.jpeg'></img></p>","null","","1549744740959","","","","","","",""
"null","","html-keyboard-response","153","2396362","0.0-6.0-14.7","COGS219_2019_09","<p><img class= 'stimulus' src='images/target/italy-building-1206128_1280.jpg'></img></p>","null","","1549744741109","14","","","","","",""
"null","","html-keyboard-response","154","2396513","0.0-6.0-15.7","COGS219_2019_09","<p><img class= 'stimulus' src='images/baseline/farmhouse1.jpg'></img></p>","null","","1549744741257","","","","","","",""
"null","","html-keyboard-response","155","2396662","0.0-6.0-16.7","COGS219_2019_09","<p><img class= 'stimulus' src='images/baseline/03098v.jpg'></img></p>","null","","1549744741407","","","","","","",""
"null","","html-keyboard-response","156","2396829","0.0-6.0-17.7","COGS219_2019_09","<p><img class= 'stimulus' src='images/baseline/Nature 1.jpg'></img></p>","null","","1549744741557","","","","","","",""
"749.1000000005588","","html-button-response","157","2398587","0.0-6.0-18.7","COGS219_2019_09","<div class = ""response_question"">WAS THE IMAGE ROTATED...</div>","","3","","","6","8","bas","right","practice","true"
"830.1999999983236","","html-button-response","158","2399419","0.0-6.0-0.8","COGS219_2019_09","","","0","","","","","","","",""
"null","","html-keyboard-response","159","2399495","0.0-6.0-1.8","COGS219_2019_09","<p><img class= 'stimulus' src='images/baseline/04086v.jpg'></img></p>","null","","1549744744291","","","","","","",""
"null","","html-keyboard-response","160","2399596","0.0-6.0-2.8","COGS219_2019_09","<p><img class= 'stimulus' src='images/baseline/pexels-photo-568236.jpeg'></img></p>","null","","1549744744392","","","","","","",""
"null","","html-keyboard-response","161","2399695","0.0-6.0-3.8","COGS219_2019_09","<p><img class= 'stimulus' src='images/baseline/landscape3.jpg'></img></p>","null","","1549744744492","","","","","","",""
"null","","html-keyboard-response","162","2399796","0.0-6.0-4.8","COGS219_2019_09","<p><img class= 'stimulus' src='images/baseline/03148v.jpg'></img></p>","null","","1549744744592","4","","","","","",""
"null","","html-keyboard-response","163","2399896","0.0-6.0-5.8","COGS219_2019_09","<p><img class= 'stimulus' src='images/baseline/05247v.jpg'></img></p>","null","","1549744744691","","","","","","",""
"null","","html-keyboard-response","164","2399996","0.0-6.0-6.8","COGS219_2019_09","<p><img class= 'stimulus left-rotate' src='images/target/chicago-673558_640.jpg'></img></p>","null","","1549744744791","6","","","","","",""
"null","","html-keyboard-response","165","2400096","0.0-6.0-7.8","COGS219_2019_09","<p><img class= 'stimulus' src='images/baseline/Beach 3.jpg'></img></p>","null","","1549744744892","","","","","","",""
"null","","html-keyboard-response","166","2400196","0.0-6.0-8.8","COGS219_2019_09","<p><img class= 'stimulus' src='images/baseline/Nature 2.jpg'></img></p>","null","","1549744744992","8","","","","","",""
"null","","html-keyboard-response","167","2400296","0.0-6.0-9.8","COGS219_2019_09","<p><img class= 'stimulus' src='images/baseline/lookout_tower.jpg'></img></p>","null","","1549744745091","","","","","","",""
"null","","html-keyboard-response","168","2400396","0.0-6.0-10.8","COGS219_2019_09","<p><img class= 'stimulus' src='images/baseline/05203v.jpg'></img></p>","null","","1549744745190","","","","","","",""
"null","","html-keyboard-response","169","2400496","0.0-6.0-11.8","COGS219_2019_09","<p><img class= 'stimulus' src='images/baseline/03041v.jpg'></img></p>","null","","1549744745292","","","","","","",""
"null","","html-keyboard-response","170","2400596","0.0-6.0-12.8","COGS219_2019_09","<p><img class= 'stimulus' src='images/baseline/04031v.jpg'></img></p>","null","","1549744745392","12","","","","","",""
"null","","html-keyboard-response","171","2400696","0.0-6.0-13.8","COGS219_2019_09","<p><img class= 'stimulus' src='images/baseline/Aletschgletscher-Eggishorn.jpg'></img></p>","null","","1549744745492","","","","","","",""
"null","","html-keyboard-response","172","2400796","0.0-6.0-14.8","COGS219_2019_09","<p><img class= 'stimulus' src='images/baseline/trees 23.jpg'></img></p>","null","","1549744745592","14","","","","","",""
"null","","html-keyboard-response","173","2400896","0.0-6.0-15.8","COGS219_2019_09","<p><img class= 'stimulus' src='images/baseline/__08_-_ITALY_-_Forli_under_snow_-_winter_landscape_of_city_(christmas).jpg'></img></p>","null","","1549744745693","","","","","","",""
"null","","html-keyboard-response","174","2400995","0.0-6.0-16.8","COGS219_2019_09","<p><img class= 'stimulus' src='images/baseline/red-rocks-park.jpg'></img></p>","null","","1549744745790","","","","","","",""
"null","","html-keyboard-response","175","2401113","0.0-6.0-17.8","COGS219_2019_09","<p><img class= 'stimulus' src='images/baseline/lone-old-cottonwood-tree.jpg'></img></p>","null","","1549744745891","","","","","","",""
"558.3000000007451","","html-button-response","176","2402675","0.0-6.0-18.8","COGS219_2019_09","<div class = ""response_question"">WAS THE IMAGE ROTATED...</div>","","0","","","4","2","bas","left","practice","true"
"1126.200000000652","","html-button-response","177","2403803","0.0-6.0-0.9","COGS219_2019_09","","","0","","","","","","","",""
"null","","html-keyboard-response","178","2403879","0.0-6.0-1.9","COGS219_2019_09","<p><img class= 'stimulus' src='images/baseline/05167v.jpg'></img></p>","null","","1549744748674","","","","","","",""
"null","","html-keyboard-response","179","2403979","0.0-6.0-2.9","COGS219_2019_09","<p><img class= 'stimulus' src='images/baseline/04179v.jpg'></img></p>","null","","1549744748774","","","","","","",""
"null","","html-keyboard-response","180","2404079","0.0-6.0-3.9","COGS219_2019_09","<p><img class= 'stimulus' src='images/baseline/tennis-court-net-buried-in-snow.jpg'></img></p>","null","","1549744748875","","","","","","",""
"null","","html-keyboard-response","181","2404179","0.0-6.0-4.9","COGS219_2019_09","<p><img class= 'stimulus' src='images/baseline/landscape29.jpg'></img></p>","null","","1549744748975","4","","","","","",""
"null","","html-keyboard-response","182","2404279","0.0-6.0-5.9","COGS219_2019_09","<p><img class= 'stimulus' src='images/baseline/river 1.jpg'></img></p>","null","","1549744749074","","","","","","",""
"null","","html-keyboard-response","183","2404378","0.0-6.0-6.9","COGS219_2019_09","<p><img class= 'stimulus' src='images/baseline/autumn-landscape-with-lake-fall-trees-mountains.jpg'></img></p>","null","","1549744749175","6","","","","","",""
"null","","html-keyboard-response","184","2404479","0.0-6.0-7.9","COGS219_2019_09","<p><img class= 'stimulus' src='images/baseline/04062v.jpg'></img></p>","null","","1549744749274","","","","","","",""
"null","","html-keyboard-response","185","2404579","0.0-6.0-8.9","COGS219_2019_09","<p><img class= 'stimulus' src='images/baseline/Sunset 6.jpg'></img></p>","null","","1549744749375","8","","","","","",""
"null","","html-keyboard-response","186","2404679","0.0-6.0-9.9","COGS219_2019_09","<p><img class= 'stimulus' src='images/baseline/agriculture-bright-clouds-440731.jpg'></img></p>","null","","1549744749476","","","","","","",""
"null","","html-keyboard-response","187","2404779","0.0-6.0-10.9","COGS219_2019_09","<p><img class= 'stimulus' src='images/baseline/05255v.jpg'></img></p>","null","","1549744749574","","","","","","",""
"null","","html-keyboard-response","188","2404879","0.0-6.0-11.9","COGS219_2019_09","<p><img class= 'stimulus' src='images/baseline/grand-teton-mountains.jpg'></img></p>","null","","1549744749674","","","","","","",""
"null","","html-keyboard-response","189","2404979","0.0-6.0-12.9","COGS219_2019_09","<p><img class= 'stimulus left-rotate' src='images/target/skyscraper-3855012_640.jpg'></img></p>","null","","1549744749774","12","","","","","",""
"null","","html-keyboard-response","190","2405079","0.0-6.0-13.9","COGS219_2019_09","<p><img class= 'stimulus' src='images/baseline/Waterfall 1.jpg'></img></p>","null","","1549744749874","","","","","","",""
"null","","html-keyboard-response","191","2405179","0.0-6.0-14.9","COGS219_2019_09","<p><img class= 'stimulus' src='images/baseline/valley 1.jpg'></img></p>","null","","1549744749975","14","","","","","",""
"null","","html-keyboard-response","192","2405280","0.0-6.0-15.9","COGS219_2019_09","<p><img class= 'stimulus' src='images/baseline/99_-_Machu_Picchu_-_Juin_2009.edit3.jpg'></img></p>","null","","1549744750074","","","","","","",""
"null","","html-keyboard-response","193","2405379","0.0-6.0-16.9","COGS219_2019_09","<p><img class= 'stimulus' src='images/baseline/Sunset 5.jpg'></img></p>","null","","1549744750176","","","","","","",""
"null","","html-keyboard-response","194","2405496","0.0-6.0-17.9","COGS219_2019_09","<p><img class= 'stimulus' src='images/baseline/building4.jpg'></img></p>","null","","1549744750275","","","","","","",""
"645.0999999996275","","html-button-response","195","2407155","0.0-6.0-18.9","COGS219_2019_09","<div class = ""response_question"">WAS THE IMAGE ROTATED...</div>","","1","","","4","8","bas","left","practice","true"
"1574.3000000002794","","html-button-response","196","2408731","0.0-6.0-0.10","COGS219_2019_09","","","0","","","","","","","",""
"null","","html-keyboard-response","197","2408812","0.0-6.0-1.10","COGS219_2019_09","<p><img class= 'stimulus' src='images/baseline/red rocks from afar.jpg'></img></p>","null","","1549744753608","","","","","","",""
"null","","html-keyboard-response","198","2408912","0.0-6.0-2.10","COGS219_2019_09","<p><img class= 'stimulus' src='images/baseline/landscape8.jpg'></img></p>","null","","1549744753708","","","","","","",""
"null","","html-keyboard-response","199","2409012","0.0-6.0-3.10","COGS219_2019_09","<p><img class= 'stimulus' src='images/baseline/05186v.jpg'></img></p>","null","","1549744753807","","","","","","",""
"null","","html-keyboard-response","200","2409113","0.0-6.0-4.10","COGS219_2019_09","<p><img class= 'stimulus' src='images/baseline/landscape35.jpg'></img></p>","null","","1549744753908","4","","","","","",""
"null","","html-keyboard-response","201","2409212","0.0-6.0-5.10","COGS219_2019_09","<p><img class= 'stimulus' src='images/baseline/landscape37.jpg'></img></p>","null","","1549744754007","","","","","","",""
"null","","html-keyboard-response","202","2409313","0.0-6.0-6.10","COGS219_2019_09","<p><img class= 'stimulus' src='images/baseline/pexels-photo-440731.jpeg'></img></p>","null","","1549744754107","6","","","","","",""
"null","","html-keyboard-response","203","2409413","0.0-6.0-7.10","COGS219_2019_09","<p><img class= 'stimulus' src='images/baseline/building16.jpg'></img></p>","null","","1549744754209","","","","","","",""
"null","","html-keyboard-response","204","2409512","0.0-6.0-8.10","COGS219_2019_09","<p><img class= 'stimulus' src='images/baseline/building3.jpg'></img></p>","null","","1549744754309","8","","","","","",""
"null","","html-keyboard-response","205","2409613","0.0-6.0-9.10","COGS219_2019_09","<p><img class= 'stimulus' src='images/baseline/pexels-photo-750108.jpeg'></img></p>","null","","1549744754409","","","","","","",""
"null","","html-keyboard-response","206","2409712","0.0-6.0-10.10","COGS219_2019_09","<p><img class= 'stimulus' src='images/baseline/05145v.jpg'></img></p>","null","","1549744754510","","","","","","",""
"null","","html-keyboard-response","207","2409812","0.0-6.0-11.10","COGS219_2019_09","<p><img class= 'stimulus' src='images/baseline/02945v.jpg'></img></p>","null","","1549744754609","","","","","","",""
"null","","html-keyboard-response","208","2409912","0.0-6.0-12.10","COGS219_2019_09","<p><img class= 'stimulus' src='images/target/buildin.png'></img></p>","null","","1549744754707","12","","","","","",""
"null","","html-keyboard-response","209","2410012","0.0-6.0-13.10","COGS219_2019_09","<p><img class= 'stimulus' src='images/baseline/geese-flying-over-lake-at-dusk.jpg'></img></p>","null","","1549744754808","","","","","","",""
"null","","html-keyboard-response","210","2410112","0.0-6.0-14.10","COGS219_2019_09","<p><img class= 'stimulus' src='images/baseline/Lake 13.jpg'></img></p>","null","","1549744754907","14","","","","","",""
"null","","html-keyboard-response","211","2410212","0.0-6.0-15.10","COGS219_2019_09","<p><img class= 'stimulus' src='images/baseline/Paysage_karabagh_02.jpg'></img></p>","null","","1549744755007","","","","","","",""
"null","","html-keyboard-response","212","2410313","0.0-6.0-16.10","COGS219_2019_09","<p><img class= 'stimulus' src='images/baseline/Lake 7.jpg'></img></p>","null","","1549744755108","","","","","","",""
"null","","html-keyboard-response","213","2410430","0.0-6.0-17.10","COGS219_2019_09","<p><img class= 'stimulus' src='images/baseline/house8.jpg'></img></p>","null","","1549744755208","","","","","","",""
"514.1000000005588","","html-button-response","214","2411948","0.0-6.0-18.10","COGS219_2019_09","<div class = ""response_question"">WAS THE IMAGE ROTATED...</div>","","4","","","4","8","bas","right","practice","true"
"726.3000000002794","","html-button-response","215","2412675","0.0-6.0-0.11","COGS219_2019_09","","","0","","","","","","","",""
"null","","html-keyboard-response","216","2412762","0.0-6.0-1.11","COGS219_2019_09","<p><img class= 'stimulus' src='images/baseline/05264v.jpg'></img></p>","null","","1549744757560","","","","","","",""
"null","","html-keyboard-response","217","2412862","0.0-6.0-2.11","COGS219_2019_09","<p><img class= 'stimulus' src='images/baseline/05189v.jpg'></img></p>","null","","1549744757658","","","","","","",""
"null","","html-keyboard-response","218","2412964","0.0-6.0-3.11","COGS219_2019_09","<p><img class= 'stimulus' src='images/baseline/02982v.jpg'></img></p>","null","","1549744757758","","","","","","",""
"null","","html-keyboard-response","219","2413062","0.0-6.0-4.11","COGS219_2019_09","<p><img class= 'stimulus' src='images/baseline/Paysage_enneige_02.jpg'></img></p>","null","","1549744757858","4","","","","","",""
"null","","html-keyboard-response","220","2413162","0.0-6.0-5.11","COGS219_2019_09","<p><img class= 'stimulus' src='images/baseline/snowy tree.jpg'></img></p>","null","","1549744757958","","","","","","",""
"null","","html-keyboard-response","221","2413263","0.0-6.0-6.11","COGS219_2019_09","<p><img class= 'stimulus' src='images/baseline/lake 2.jpg'></img></p>","null","","1549744758058","6","","","","","",""
"null","","html-keyboard-response","222","2413362","0.0-6.0-7.11","COGS219_2019_09","<p><img class= 'stimulus' src='images/baseline/04117v.jpg'></img></p>","null","","1549744758159","","","","","","",""
"null","","html-keyboard-response","223","2413463","0.0-6.0-8.11","COGS219_2019_09","<p><img class= 'stimulus' src='images/target/tree1.jpg'></img></p>","null","","1549744758259","8","","","","","",""
"null","","html-keyboard-response","224","2413563","0.0-6.0-9.11","COGS219_2019_09","<p><img class= 'stimulus' src='images/baseline/Street 2.jpg'></img></p>","null","","1549744758359","","","","","","",""
"null","","html-keyboard-response","225","2413663","0.0-6.0-10.11","COGS219_2019_09","<p><img class= 'stimulus' src='images/baseline/landscape2.jpg'></img></p>","null","","1549744758459","","","","","","",""
"null","","html-keyboard-response","226","2413762","0.0-6.0-11.11","COGS219_2019_09","<p><img class= 'stimulus' src='images/baseline/building6.jpg'></img></p>","null","","1549744758559","","","","","","",""
"null","","html-keyboard-response","227","2413863","0.0-6.0-12.11","COGS219_2019_09","<p><img class= 'stimulus' src='images/baseline/Sky 1.jpg'></img></p>","null","","1549744758659","12","","","","","",""
"null","","html-keyboard-response","228","2413963","0.0-6.0-13.11","COGS219_2019_09","<p><img class= 'stimulus' src='images/baseline/Lake 9.jpg'></img></p>","null","","1549744758757","","","","","","",""
"null","","html-keyboard-response","229","2414063","0.0-6.0-14.11","COGS219_2019_09","<p><img class= 'stimulus' src='images/baseline/building9.jpg'></img></p>","null","","1549744758857","14","","","","","",""
"null","","html-keyboard-response","230","2414162","0.0-6.0-15.11","COGS219_2019_09","<p><img class= 'stimulus' src='images/baseline/seoul-410266_1920.jpg'></img></p>","null","","1549744758958","","","","","","",""
"null","","html-keyboard-response","231","2414262","0.0-6.0-16.11","COGS219_2019_09","<p><img class= 'stimulus' src='images/baseline/05240v.jpg'></img></p>","null","","1549744759058","","","","","","",""
"null","","html-keyboard-response","232","2414380","0.0-6.0-17.11","COGS219_2019_09","<p><img class= 'stimulus' src='images/baseline/05139v.jpg'></img></p>","null","","1549744759158","","","","","","",""
"491.8000000016764","","html-button-response","233","2415875","0.0-6.0-18.11","COGS219_2019_09","<div class = ""response_question"">WAS THE IMAGE ROTATED...</div>","","4","","","6","2","bas","right","practice","true"
"1198.5000000004657","","html-button-response","234","2417074","0.0-6.0-0.12","COGS219_2019_09","","","0","","","","","","","",""
"null","","html-keyboard-response","235","2417163","0.0-6.0-1.12","COGS219_2019_09","<p><img class= 'stimulus' src='images/baseline/field 2.jpg'></img></p>","null","","1549744761959","","","","","","",""
"null","","html-keyboard-response","236","2417262","0.0-6.0-2.12","COGS219_2019_09","<p><img class= 'stimulus' src='images/baseline/04158v.jpg'></img></p>","null","","1549744762058","","","","","","",""
"null","","html-keyboard-response","237","2417362","0.0-6.0-3.12","COGS219_2019_09","<p><img class= 'stimulus' src='images/baseline/pexels-photo-808465.jpeg'></img></p>","null","","1549744762158","","","","","","",""
"null","","html-keyboard-response","238","2417462","0.0-6.0-4.12","COGS219_2019_09","<p><img class= 'stimulus' src='images/baseline/Niinsaare_jarv.jpg'></img></p>","null","","1549744762258","4","","","","","",""
"null","","html-keyboard-response","239","2417562","0.0-6.0-5.12","COGS219_2019_09","<p><img class= 'stimulus' src='images/baseline/autumn-in-red-rocks-park.jpg'></img></p>","null","","1549744762358","","","","","","",""
"null","","html-keyboard-response","240","2417663","0.0-6.0-6.12","COGS219_2019_09","<p><img class= 'stimulus' src='images/baseline/Skyscraper 2.jpg'></img></p>","null","","1549744762457","6","","","","","",""
"null","","html-keyboard-response","241","2417763","0.0-6.0-7.12","COGS219_2019_09","<p><img class= 'stimulus' src='images/baseline/house7.jpg'></img></p>","null","","1549744762558","","","","","","",""
"null","","html-keyboard-response","242","2417863","0.0-6.0-8.12","COGS219_2019_09","<p><img class= 'stimulus' src='images/baseline/03075v.jpg'></img></p>","null","","1549744762659","8","","","","","",""
"null","","html-keyboard-response","243","2417964","0.0-6.0-9.12","COGS219_2019_09","<p><img class= 'stimulus' src='images/baseline/04201v.jpg'></img></p>","null","","1549744762758","","","","","","",""
"null","","html-keyboard-response","244","2418063","0.0-6.0-10.12","COGS219_2019_09","<p><img class= 'stimulus' src='images/baseline/meadow-with-mountain-in-background.jpg'></img></p>","null","","1549744762859","","","","","","",""
"null","","html-keyboard-response","245","2418162","0.0-6.0-11.12","COGS219_2019_09","<p><img class= 'stimulus' src='images/baseline/farmhouse11.jpg'></img></p>","null","","1549744762957","","","","","","",""
"null","","html-keyboard-response","246","2418263","0.0-6.0-12.12","COGS219_2019_09","<p><img class= 'stimulus' src='images/baseline/scenic-mountain-landscape.jpg'></img></p>","null","","1549744763059","12","","","","","",""
"null","","html-keyboard-response","247","2418362","0.0-6.0-13.12","COGS219_2019_09","<p><img class= 'stimulus' src='images/baseline/hills 4.jpg'></img></p>","null","","1549744763159","","","","","","",""
"null","","html-keyboard-response","248","2418462","0.0-6.0-14.12","COGS219_2019_09","<p><img class= 'stimulus' src='images/target/landscape3.jpg'></img></p>","null","","1549744763258","14","","","","","",""
"null","","html-keyboard-response","249","2418562","0.0-6.0-15.12","COGS219_2019_09","<p><img class= 'stimulus' src='images/baseline/Skyscraper 1.jpg'></img></p>","null","","1549744763358","","","","","","",""
"null","","html-keyboard-response","250","2418663","0.0-6.0-16.12","COGS219_2019_09","<p><img class= 'stimulus' src='images/baseline/Dirt 2.jpg'></img></p>","null","","1549744763458","","","","","","",""
"null","","html-keyboard-response","251","2418780","0.0-6.0-17.12","COGS219_2019_09","<p><img class= 'stimulus' src='images/baseline/sun-through-winter-tree-branches1.jpg'></img></p>","null","","1549744763558","","","","","","",""
"569.0000000009313","","html-button-response","252","2420355","0.0-6.0-18.12","COGS219_2019_09","<div class = ""response_question"">WAS THE IMAGE ROTATED...</div>","","3","","","6","8","bas","right","practice","true"
"726.2000000006519","","html-button-response","253","2421083","0.0-6.0-0.13","COGS219_2019_09","","","0","","","","","","","",""
"null","","html-keyboard-response","254","2421163","0.0-6.0-1.13","COGS219_2019_09","<p><img class= 'stimulus' src='images/baseline/house6.jpg'></img></p>","null","","1549744765958","","","","","","",""
"null","","html-keyboard-response","255","2421263","0.0-6.0-2.13","COGS219_2019_09","<p><img class= 'stimulus' src='images/baseline/04040v.jpg'></img></p>","null","","1549744766059","","","","","","",""
"null","","html-keyboard-response","256","2421363","0.0-6.0-3.13","COGS219_2019_09","<p><img class= 'stimulus' src='images/baseline/farmhouse3.jpg'></img></p>","null","","1549744766160","","","","","","",""
"null","","html-keyboard-response","257","2421462","0.0-6.0-4.13","COGS219_2019_09","<p><img class= 'stimulus' src='images/baseline/04010v.jpg'></img></p>","null","","1549744766259","4","","","","","",""
"null","","html-keyboard-response","258","2421563","0.0-6.0-5.13","COGS219_2019_09","<p><img class= 'stimulus' src='images/baseline/landscape7.jpg'></img></p>","null","","1549744766357","","","","","","",""
"null","","html-keyboard-response","259","2421663","0.0-6.0-6.13","COGS219_2019_09","<p><img class= 'stimulus' src='images/baseline/03112v.jpg'></img></p>","null","","1549744766458","6","","","","","",""
"null","","html-keyboard-response","260","2421762","0.0-6.0-7.13","COGS219_2019_09","<p><img class= 'stimulus' src='images/baseline/04085v.jpg'></img></p>","null","","1549744766559","","","","","","",""
"null","","html-keyboard-response","261","2421863","0.0-6.0-8.13","COGS219_2019_09","<p><img class= 'stimulus' src='images/baseline/architecture-1314416_1920.jpg'></img></p>","null","","1549744766658","8","","","","","",""
"null","","html-keyboard-response","262","2421963","0.0-6.0-9.13","COGS219_2019_09","<p><img class= 'stimulus' src='images/baseline/03066v.jpg'></img></p>","null","","1549744766757","","","","","","",""
"null","","html-keyboard-response","263","2422063","0.0-6.0-10.13","COGS219_2019_09","<p><img class= 'stimulus' src='images/baseline/landscape4.jpg'></img></p>","null","","1549744766858","","","","","","",""
"null","","html-keyboard-response","264","2422162","0.0-6.0-11.13","COGS219_2019_09","<p><img class= 'stimulus' src='images/baseline/lake3.jpg'></img></p>","null","","1549744766959","","","","","","",""
"null","","html-keyboard-response","265","2422262","0.0-6.0-12.13","COGS219_2019_09","<p><img class= 'stimulus' src='images/baseline/farmhouse6.jpg'></img></p>","null","","1549744767059","12","","","","","",""
"null","","html-keyboard-response","266","2422363","0.0-6.0-13.13","COGS219_2019_09","<p><img class= 'stimulus' src='images/baseline/town-square-in-wroclaw-1539098440MZy.jpg'></img></p>","null","","1549744767158","","","","","","",""
"null","","html-keyboard-response","267","2422462","0.0-6.0-14.13","COGS219_2019_09","<p><img class= 'stimulus left-rotate' src='images/target/sand-3339890_640.jpg'></img></p>","null","","1549744767258","14","","","","","",""
"null","","html-keyboard-response","268","2422562","0.0-6.0-15.13","COGS219_2019_09","<p><img class= 'stimulus' src='images/baseline/pexels-photo-427676.jpeg'></img></p>","null","","1549744767359","","","","","","",""
"null","","html-keyboard-response","269","2422664","0.0-6.0-16.13","COGS219_2019_09","<p><img class= 'stimulus' src='images/baseline/landscape33.jpg'></img></p>","null","","1549744767457","","","","","","",""
"null","","html-keyboard-response","270","2422779","0.0-6.0-17.13","COGS219_2019_09","<p><img class= 'stimulus' src='images/baseline/lake 1.jpg'></img></p>","null","","1549744767558","","","","","","",""
"631.3000000012107","","html-button-response","271","2424429","0.0-6.0-18.13","COGS219_2019_09","<div class = ""response_question"">WAS THE IMAGE ROTATED...</div>","","0","","","6","8","bas","left","practice","true"
"814.4000000013039","","html-button-response","272","2425244","0.0-6.0-0.14","COGS219_2019_09","","","0","","","","","","","",""
"null","","html-keyboard-response","273","2425331","0.0-6.0-1.14","COGS219_2019_09","<p><img class= 'stimulus' src='images/baseline/Skijump 1.jpg'></img></p>","null","","1549744770126","","","","","","",""
"null","","html-keyboard-response","274","2425431","0.0-6.0-2.14","COGS219_2019_09","<p><img class= 'stimulus' src='images/baseline/flooded-bridge.jpg'></img></p>","null","","1549744770226","","","","","","",""
"null","","html-keyboard-response","275","2425531","0.0-6.0-3.14","COGS219_2019_09","<p><img class= 'stimulus' src='images/baseline/04193v.jpg'></img></p>","null","","1549744770326","","","","","","",""
"null","","html-keyboard-response","276","2425631","0.0-6.0-4.14","COGS219_2019_09","<p><img class= 'stimulus' src='images/baseline/Street 5.jpg'></img></p>","null","","1549744770426","4","","","","","",""
"null","","html-keyboard-response","277","2425731","0.0-6.0-5.14","COGS219_2019_09","<p><img class= 'stimulus' src='images/baseline/02971v.jpg'></img></p>","null","","1549744770527","","","","","","",""
"null","","html-keyboard-response","278","2425832","0.0-6.0-6.14","COGS219_2019_09","<p><img class= 'stimulus' src='images/target/pexels-photo-1123982.jpeg'></img></p>","null","","1549744770628","6","","","","","",""
"null","","html-keyboard-response","279","2425932","0.0-6.0-7.14","COGS219_2019_09","<p><img class= 'stimulus' src='images/baseline/landscape13.jpg'></img></p>","null","","1549744770727","","","","","","",""
"null","","html-keyboard-response","280","2426031","0.0-6.0-8.14","COGS219_2019_09","<p><img class= 'stimulus' src='images/baseline/Dock 1.jpg'></img></p>","null","","1549744770828","8","","","","","",""
"null","","html-keyboard-response","281","2426131","0.0-6.0-9.14","COGS219_2019_09","<p><img class= 'stimulus' src='images/baseline/Kocherbaumwald-01.jpg'></img></p>","null","","1549744770927","","","","","","",""
"null","","html-keyboard-response","282","2426230","0.0-6.0-10.14","COGS219_2019_09","<p><img class= 'stimulus' src='images/baseline/field 1.jpg'></img></p>","null","","1549744771028","","","","","","",""
"null","","html-keyboard-response","283","2426331","0.0-6.0-11.14","COGS219_2019_09","<p><img class= 'stimulus' src='images/baseline/pexels-photo-351264.jpeg'></img></p>","null","","1549744771128","","","","","","",""
"null","","html-keyboard-response","284","2426431","0.0-6.0-12.14","COGS219_2019_09","<p><img class= 'stimulus' src='images/baseline/05198v.jpg'></img></p>","null","","1549744771226","12","","","","","",""
"null","","html-keyboard-response","285","2426531","0.0-6.0-13.14","COGS219_2019_09","<p><img class= 'stimulus' src='images/baseline/05131v.jpg'></img></p>","null","","1549744771326","","","","","","",""
"null","","html-keyboard-response","286","2426631","0.0-6.0-14.14","COGS219_2019_09","<p><img class= 'stimulus' src='images/baseline/pexels-photo-1048039.jpeg'></img></p>","null","","1549744771427","14","","","","","",""
"null","","html-keyboard-response","287","2426731","0.0-6.0-15.14","COGS219_2019_09","<p><img class= 'stimulus' src='images/baseline/building_at_national_conservation.jpg'></img></p>","null","","1549744771526","","","","","","",""
"null","","html-keyboard-response","288","2426831","0.0-6.0-16.14","COGS219_2019_09","<p><img class= 'stimulus' src='images/baseline/Sunset 3.jpg'></img></p>","null","","1549744771626","","","","","","",""
"null","","html-keyboard-response","289","2426948","0.0-6.0-17.14","COGS219_2019_09","<p><img class= 'stimulus' src='images/baseline/field 3.jpg'></img></p>","null","","1549744771727","","","","","","",""
"509","","html-button-response","290","2428462","0.0-6.0-18.14","COGS219_2019_09","<div class = ""response_question"">WAS THE IMAGE ROTATED...</div>","","3","","","4","2","bas","right","practice","true"
"725.9000000013039","","html-button-response","291","2429189","0.0-6.0-0.15","COGS219_2019_09","","","0","","","","","","","",""
"null","","html-keyboard-response","292","2429265","0.0-6.0-1.15","COGS219_2019_09","<p><img class= 'stimulus' src='images/baseline/03180v.jpg'></img></p>","null","","1549744774060","","","","","","",""
"null","","html-keyboard-response","293","2429365","0.0-6.0-2.15","COGS219_2019_09","<p><img class= 'stimulus' src='images/baseline/agriculture-cereal-clouds-175389.jpg'></img></p>","null","","1549744774159","","","","","","",""
"null","","html-keyboard-response","294","2429465","0.0-6.0-3.15","COGS219_2019_09","<p><img class= 'stimulus' src='images/baseline/house2.jpg'></img></p>","null","","1549744774259","","","","","","",""
"null","","html-keyboard-response","295","2429565","0.0-6.0-4.15","COGS219_2019_09","<p><img class= 'stimulus' src='images/baseline/landscape6.jpg'></img></p>","null","","1549744774360","4","","","","","",""
"null","","html-keyboard-response","296","2429664","0.0-6.0-5.15","COGS219_2019_09","<p><img class= 'stimulus' src='images/baseline/pexels-photo-1054289.jpeg'></img></p>","null","","1549744774460","","","","","","",""
"null","","html-keyboard-response","297","2429765","0.0-6.0-6.15","COGS219_2019_09","<p><img class= 'stimulus' src='images/baseline/4k-wallpaper-agriculture-clouds-842711.jpg'></img></p>","null","","1549744774560","6","","","","","",""
"null","","html-keyboard-response","298","2429865","0.0-6.0-7.15","COGS219_2019_09","<p><img class= 'stimulus' src='images/baseline/Path 1.jpg'></img></p>","null","","1549744774661","","","","","","",""
"null","","html-keyboard-response","299","2429965","0.0-6.0-8.15","COGS219_2019_09","<p><img class= 'stimulus left-rotate' src='images/target/cactus2.jpg'></img></p>","null","","1549744774760","8","","","","","",""
"null","","html-keyboard-response","300","2430064","0.0-6.0-9.15","COGS219_2019_09","<p><img class= 'stimulus' src='images/baseline/sunset-over-the-lake.jpg'></img></p>","null","","1549744774860","","","","","","",""
"null","","html-keyboard-response","301","2430165","0.0-6.0-10.15","COGS219_2019_09","<p><img class= 'stimulus' src='images/baseline/landscape39.jpg'></img></p>","null","","1549744774960","","","","","","",""
"null","","html-keyboard-response","302","2430265","0.0-6.0-11.15","COGS219_2019_09","<p><img class= 'stimulus' src='images/baseline/Happy pose 3.jpg'></img></p>","null","","1549744775061","","","","","","",""
"null","","html-keyboard-response","303","2430364","0.0-6.0-12.15","COGS219_2019_09","<p><img class= 'stimulus' src='images/baseline/pexels-photo-459203.jpeg'></img></p>","null","","1549744775161","12","","","","","",""
"null","","html-keyboard-response","304","2430465","0.0-6.0-13.15","COGS219_2019_09","<p><img class= 'stimulus' src='images/baseline/pexels-photo-414491.jpeg'></img></p>","null","","1549744775260","","","","","","",""
"null","","html-keyboard-response","305","2430564","0.0-6.0-14.15","COGS219_2019_09","<p><img class= 'stimulus' src='images/baseline/02962v.jpg'></img></p>","null","","1549744775360","14","","","","","",""
"null","","html-keyboard-response","306","2430664","0.0-6.0-15.15","COGS219_2019_09","<p><img class= 'stimulus' src='images/baseline/Cold 7.jpg'></img></p>","null","","1549744775460","","","","","","",""
"null","","html-keyboard-response","307","2430764","0.0-6.0-16.15","COGS219_2019_09","<p><img class= 'stimulus' src='images/baseline/Sunset 4.jpg'></img></p>","null","","1549744775559","","","","","","",""
"null","","html-keyboard-response","308","2430882","0.0-6.0-17.15","COGS219_2019_09","<p><img class= 'stimulus' src='images/baseline/lookout_tower.jpg'></img></p>","null","","1549744775661","","","","","","",""
"642.0000000018626","","html-button-response","309","2432541","0.0-6.0-18.15","COGS219_2019_09","<div class = ""response_question"">WAS THE IMAGE ROTATED...</div>","","0","","","6","2","bas","left","practice","true"
"101190.59999999963","","html-button-response","310","2533741","0.0-7.0","COGS219_2019_09","<p>You have now completed the practice phase. We will now begin the real trials.         This is a reminder that you will be searching for a rotated image among the series of upright images.</p>         <p>Remember, please do not blink or move your eyes while the images are on the screen.</p>         <p>At the end of the experiment, the experimenter will be able to show you how accurate you were.</p>","","0","","","","","","","",""
"5278.699999998789","","html-button-response","311","2539022","0.0-8.0-0.0-0.0","COGS219_2019_09","","","0","","","","","","","",""
"null","","html-keyboard-response","312","2539108","0.0-8.0-0.0-1.0","COGS219_2019_09","<p><img class= 'stimulus' src='images/baseline/landscape11.jpg'></img></p>","null","","1549744883904","","","","","","",""
"null","","html-keyboard-response","313","2539208","0.0-8.0-0.0-2.0","COGS219_2019_09","<p><img class= 'stimulus' src='images/baseline/farmhouse1.jpg'></img></p>","null","","1549744884004","","","","","","",""
"null","","html-keyboard-response","314","2539310","0.0-8.0-0.0-3.0","COGS219_2019_09","<p><img class= 'stimulus' src='images/baseline/field 2.jpg'></img></p>","null","","1549744884105","","","","","","",""
"null","","html-keyboard-response","315","2539408","0.0-8.0-0.0-4.0","COGS219_2019_09","<p><img class= 'stimulus' src='images/baseline/03045v.jpg'></img></p>","null","","1549744884203","4","","","","","",""
"null","","html-keyboard-response","316","2539508","0.0-8.0-0.0-5.0","COGS219_2019_09","<p><img class= 'stimulus' src='images/baseline/Beach 8.jpg'></img></p>","null","","1549744884304","","","","","","",""
"null","","html-keyboard-response","317","2539607","0.0-8.0-0.0-6.0","COGS219_2019_09","<p><img class= 'stimulus' src='images/baseline/landscape3.jpg'></img></p>","null","","1549744884405","6","","","","","",""
"null","","html-keyboard-response","318","2539708","0.0-8.0-0.0-7.0","COGS219_2019_09","<p><img class= 'stimulus' src='images/baseline/pexels-photo-894312.jpeg'></img></p>","null","","1549744884504","","","","","","",""
"null","","html-keyboard-response","319","2539808","0.0-8.0-0.0-8.0","COGS219_2019_09","<p><img class= 'stimulus left-rotate' src='images/target/building19.jpg'></img></p>","null","","1549744884602","8","","","","","",""
"null","","html-keyboard-response","320","2539908","0.0-8.0-0.0-9.0","COGS219_2019_09","<p><img class= 'stimulus' src='images/baseline/river 1.jpg'></img></p>","null","","1549744884703","","","","","","",""
"null","","html-keyboard-response","321","2540007","0.0-8.0-0.0-10.0","COGS219_2019_09","<p><img class= 'stimulus' src='images/baseline/dirt-road-or-trail-through-park.jpg'></img></p>","null","","1549744884803","","","","","","",""
"null","","html-keyboard-response","322","2540108","0.0-8.0-0.0-11.0","COGS219_2019_09","<p><img class= 'stimulus' src='images/baseline/Lake 4.jpg'></img></p>","null","","1549744884903","","","","","","",""
"null","","html-keyboard-response","323","2540208","0.0-8.0-0.0-12.0","COGS219_2019_09","<p><img class= 'stimulus' src='images/baseline/02977v.jpg'></img></p>","null","","1549744885002","12","","","","","",""
"null","","html-keyboard-response","324","2540308","0.0-8.0-0.0-13.0","COGS219_2019_09","<p><img class= 'stimulus' src='images/baseline/church-silhouette-8712964986014Kb.jpg'></img></p>","null","","1549744885103","","","","","","",""
"null","","html-keyboard-response","325","2540409","0.0-8.0-0.0-14.0","COGS219_2019_09","<p><img class= 'stimulus' src='images/baseline/05247v.jpg'></img></p>","null","","1549744885204","14","","","","","",""
"null","","html-keyboard-response","326","2540507","0.0-8.0-0.0-15.0","COGS219_2019_09","<p><img class= 'stimulus' src='images/baseline/Lake 8.jpg'></img></p>","null","","1549744885304","","","","","","",""
"null","","html-keyboard-response","327","2540608","0.0-8.0-0.0-16.0","COGS219_2019_09","<p><img class= 'stimulus' src='images/baseline/Skyscraper 2.jpg'></img></p>","null","","1549744885405","","","","","","",""
"null","","html-keyboard-response","328","2540725","0.0-8.0-0.0-17.0","COGS219_2019_09","<p><img class= 'stimulus' src='images/baseline/landscape6.jpg'></img></p>","null","","1549744885505","","","","","","",""
"2347.6999999983236","","html-button-response","329","2544078","0.0-8.0-0.0-18.0","COGS219_2019_09","<div class = ""response_question"">WAS THE IMAGE ROTATED...</div>","","0","","","6","2","bas","left","test","true"
"1542.4000000003725","","html-button-response","330","2545622","0.0-8.0-0.0-0.1","COGS219_2019_09","","","0","","","","","","","",""
"null","","html-keyboard-response","331","2545708","0.0-8.0-0.0-1.1","COGS219_2019_09","<p><img class= 'stimulus' src='images/baseline/Lake 16.jpg'></img></p>","null","","1549744890503","","","","","","",""
"null","","html-keyboard-response","332","2545808","0.0-8.0-0.0-2.1","COGS219_2019_09","<p><img class= 'stimulus' src='images/baseline/Sailing 3.jpg'></img></p>","null","","1549744890603","","","","","","",""
"null","","html-keyboard-response","333","2545908","0.0-8.0-0.0-3.1","COGS219_2019_09","<p><img class= 'stimulus' src='images/baseline/02988v.jpg'></img></p>","null","","1549744890703","","","","","","",""
"null","","html-keyboard-response","334","2546008","0.0-8.0-0.0-4.1","COGS219_2019_09","<p><img class= 'stimulus' src='images/baseline/03098v.jpg'></img></p>","null","","1549744890803","4","","","","","",""
"null","","html-keyboard-response","335","2546108","0.0-8.0-0.0-5.1","COGS219_2019_09","<p><img class= 'stimulus' src='images/baseline/Sky 1.jpg'></img></p>","null","","1549744890904","","","","","","",""
"null","","html-keyboard-response","336","2546208","0.0-8.0-0.0-6.1","COGS219_2019_09","<p><img class= 'stimulus' src='images/baseline/pexels-photo-1287089.jpeg'></img></p>","null","","1549744891003","6","","","","","",""
"null","","html-keyboard-response","337","2546308","0.0-8.0-0.0-7.1","COGS219_2019_09","<p><img class= 'stimulus' src='images/baseline/house10.jpg'></img></p>","null","","1549744891105","","","","","","",""
"null","","html-keyboard-response","338","2546409","0.0-8.0-0.0-8.1","COGS219_2019_09","<p><img class= 'stimulus' src='images/baseline/04300v.jpg'></img></p>","null","","1549744891203","8","","","","","",""
"null","","html-keyboard-response","339","2546509","0.0-8.0-0.0-9.1","COGS219_2019_09","<p><img class= 'stimulus' src='images/baseline/seoul-410266_1920.jpg'></img></p>","null","","1549744891304","","","","","","",""
"null","","html-keyboard-response","340","2546607","0.0-8.0-0.0-10.1","COGS219_2019_09","<p><img class= 'stimulus' src='images/baseline/05186v.jpg'></img></p>","null","","1549744891404","","","","","","",""
"null","","html-keyboard-response","341","2546708","0.0-8.0-0.0-11.1","COGS219_2019_09","<p><img class= 'stimulus' src='images/baseline/05198v.jpg'></img></p>","null","","1549744891503","","","","","","",""
"null","","html-keyboard-response","342","2546808","0.0-8.0-0.0-12.1","COGS219_2019_09","<p><img class= 'stimulus' src='images/baseline/landscape19.jpg'></img></p>","null","","1549744891603","12","","","","","",""
"null","","html-keyboard-response","343","2546908","0.0-8.0-0.0-13.1","COGS219_2019_09","<p><img class= 'stimulus' src='images/baseline/Path 1.jpg'></img></p>","null","","1549744891703","","","","","","",""
"null","","html-keyboard-response","344","2547008","0.0-8.0-0.0-14.1","COGS219_2019_09","<p><img class= 'stimulus' src='images/baseline/04021v.jpg'></img></p>","null","","1549744891803","14","","","","","",""
"null","","html-keyboard-response","345","2547108","0.0-8.0-0.0-15.1","COGS219_2019_09","<p><img class= 'stimulus' src='images/baseline/house2.jpg'></img></p>","null","","1549744891904","","","","","","",""
"null","","html-keyboard-response","346","2547209","0.0-8.0-0.0-16.1","COGS219_2019_09","<p><img class= 'stimulus' src='images/baseline/house7.jpg'></img></p>","null","","1549744892005","","","","","","",""
"null","","html-keyboard-response","347","2547324","0.0-8.0-0.0-17.1","COGS219_2019_09","<p><img class= 'stimulus' src='images/baseline/05280v.jpg'></img></p>","null","","1549744892104","","","","","","",""
"1492.3000000002794","","html-button-response","348","2549822","0.0-8.0-0.0-18.1","COGS219_2019_09","<div class = ""response_question"">WAS THE IMAGE ROTATED...</div>","","5","","","null","null","null","null","test","null"
"1526.3999999985099","","html-button-response","349","2551350","0.0-8.0-0.0-0.2","COGS219_2019_09","","","0","","","","","","","",""
"null","","html-keyboard-response","350","2551425","0.0-8.0-0.0-1.2","COGS219_2019_09","<p><img class= 'stimulus' src='images/baseline/vintage-art-deco-storefront.jpg'></img></p>","null","","1549744896220","","","","","","",""
"null","","html-keyboard-response","351","2551525","0.0-8.0-0.0-2.2","COGS219_2019_09","<p><img class= 'stimulus' src='images/baseline/Linden,_paysage.jpg'></img></p>","null","","1549744896321","","","","","","",""
"null","","html-keyboard-response","352","2551624","0.0-8.0-0.0-3.2","COGS219_2019_09","<p><img class= 'stimulus' src='images/baseline/pexels-photo-1054289.jpeg'></img></p>","null","","1549744896421","","","","","","",""
"null","","html-keyboard-response","353","2551726","0.0-8.0-0.0-4.2","COGS219_2019_09","<p><img class= 'stimulus' src='images/negative/Shark 7.jpg'></img></p>","null","","1549744896520","4","","","","","",""
"null","","html-keyboard-response","354","2551825","0.0-8.0-0.0-5.2","COGS219_2019_09","<p><img class= 'stimulus' src='images/baseline/05179v.jpg'></img></p>","null","","1549744896621","","","","","","",""
"null","","html-keyboard-response","355","2551925","0.0-8.0-0.0-6.2","COGS219_2019_09","<p><img class= 'stimulus' src='images/baseline/landscape17.jpg'></img></p>","null","","1549744896720","6","","","","","",""
"null","","html-keyboard-response","356","2552025","0.0-8.0-0.0-7.2","COGS219_2019_09","<p><img class= 'stimulus' src='images/baseline/Street 2.jpg'></img></p>","null","","1549744896820","","","","","","",""
"null","","html-keyboard-response","357","2552125","0.0-8.0-0.0-8.2","COGS219_2019_09","<p><img class= 'stimulus' src='images/baseline/__08_-_ITALY_-_Forli_under_snow_-_winter_landscape_of_city_(christmas).jpg'></img></p>","null","","1549744896919","8","","","","","",""
"null","","html-keyboard-response","358","2552224","0.0-8.0-0.0-9.2","COGS219_2019_09","<p><img class= 'stimulus' src='images/baseline/99_-_Machu_Picchu_-_Juin_2009.edit3.jpg'></img></p>","null","","1549744897020","","","","","","",""
"null","","html-keyboard-response","359","2552324","0.0-8.0-0.0-10.2","COGS219_2019_09","<p><img class= 'stimulus' src='images/baseline/flooded-bridge.jpg'></img></p>","null","","1549744897120","","","","","","",""
"null","","html-keyboard-response","360","2552424","0.0-8.0-0.0-11.2","COGS219_2019_09","<p><img class= 'stimulus' src='images/baseline/pexels-photo-1837621.jpeg'></img></p>","null","","1549744897221","","","","","","",""
"null","","html-keyboard-response","361","2552524","0.0-8.0-0.0-12.2","COGS219_2019_09","<p><img class= 'stimulus left-rotate' src='images/target/mexico_tower_latin_american.jpg'></img></p>","null","","1549744897321","12","","","","","",""
"null","","html-keyboard-response","362","2552625","0.0-8.0-0.0-13.2","COGS219_2019_09","<p><img class= 'stimulus' src='images/baseline/landscape22.jpg'></img></p>","null","","1549744897422","","","","","","",""
"null","","html-keyboard-response","363","2552724","0.0-8.0-0.0-14.2","COGS219_2019_09","<p><img class= 'stimulus' src='images/baseline/landscape31.jpg'></img></p>","null","","1549744897521","14","","","","","",""
"null","","html-keyboard-response","364","2552825","0.0-8.0-0.0-15.2","COGS219_2019_09","<p><img class= 'stimulus' src='images/baseline/landscape7.jpg'></img></p>","null","","1549744897621","","","","","","",""
"null","","html-keyboard-response","365","2552925","0.0-8.0-0.0-16.2","COGS219_2019_09","<p><img class= 'stimulus' src='images/baseline/building8.jpg'></img></p>","null","","1549744897720","","","","","","",""
"null","","html-keyboard-response","366","2553041","0.0-8.0-0.0-17.2","COGS219_2019_09","<p><img class= 'stimulus' src='images/baseline/Camping 10.jpg'></img></p>","null","","1549744897822","","","","","","",""
"951.1999999992549","","html-button-response","367","2554997","0.0-8.0-0.0-18.2","COGS219_2019_09","<div class = ""response_question"">WAS THE IMAGE ROTATED...</div>","","0","","","4","8","neg","left","test","true"
"1966.0000000004657","","html-button-response","368","2556966","0.0-8.0-0.0-0.3","COGS219_2019_09","","","0","","","","","","","",""
"null","","html-keyboard-response","369","2557041","0.0-8.0-0.0-1.3","COGS219_2019_09","<p><img class= 'stimulus' src='images/baseline/05292v.jpg'></img></p>","null","","1549744901837","","","","","","",""
"null","","html-keyboard-response","370","2557142","0.0-8.0-0.0-2.3","COGS219_2019_09","<p><img class= 'stimulus' src='images/baseline/valley 2.jpg'></img></p>","null","","1549744901938","","","","","","",""
"null","","html-keyboard-response","371","2557241","0.0-8.0-0.0-3.3","COGS219_2019_09","<p><img class= 'stimulus' src='images/baseline/landscape8.jpg'></img></p>","null","","1549744902037","","","","","","",""
"null","","html-keyboard-response","372","2557341","0.0-8.0-0.0-4.3","COGS219_2019_09","<p><img class= 'stimulus' src='images/neutral/Bear 1.jpg'></img></p>","null","","1549744902137","4","","","","","",""
"null","","html-keyboard-response","373","2557441","0.0-8.0-0.0-5.3","COGS219_2019_09","<p><img class= 'stimulus' src='images/baseline/Street 3.jpg'></img></p>","null","","1549744902236","","","","","","",""
"null","","html-keyboard-response","374","2557541","0.0-8.0-0.0-6.3","COGS219_2019_09","<p><img class= 'stimulus' src='images/baseline/Happy pose 3.jpg'></img></p>","null","","1549744902338","6","","","","","",""
"null","","html-keyboard-response","375","2557641","0.0-8.0-0.0-7.3","COGS219_2019_09","<p><img class= 'stimulus' src='images/baseline/Beach 2.jpg'></img></p>","null","","1549744902436","","","","","","",""
"null","","html-keyboard-response","376","2557742","0.0-8.0-0.0-8.3","COGS219_2019_09","<p><img class= 'stimulus' src='images/baseline/Skyscraper 1.jpg'></img></p>","null","","1549744902536","8","","","","","",""
"null","","html-keyboard-response","377","2557842","0.0-8.0-0.0-9.3","COGS219_2019_09","<p><img class= 'stimulus' src='images/baseline/field 1.jpg'></img></p>","null","","1549744902638","","","","","","",""
"null","","html-keyboard-response","378","2557941","0.0-8.0-0.0-10.3","COGS219_2019_09","<p><img class= 'stimulus' src='images/baseline/02982v.jpg'></img></p>","null","","1549744902737","","","","","","",""
"null","","html-keyboard-response","379","2558042","0.0-8.0-0.0-11.3","COGS219_2019_09","<p><img class= 'stimulus' src='images/baseline/Waterfall 1.jpg'></img></p>","null","","1549744902837","","","","","","",""
"null","","html-keyboard-response","380","2558141","0.0-8.0-0.0-12.3","COGS219_2019_09","<p><img class= 'stimulus left-rotate' src='images/target/building15.jpg'></img></p>","null","","1549744902937","12","","","","","",""
"null","","html-keyboard-response","381","2558242","0.0-8.0-0.0-13.3","COGS219_2019_09","<p><img class= 'stimulus' src='images/baseline/Desert_View_Indian_Wells.jpg'></img></p>","null","","1549744903037","","","","","","",""
"null","","html-keyboard-response","382","2558342","0.0-8.0-0.0-14.3","COGS219_2019_09","<p><img class= 'stimulus' src='images/baseline/pexels-photo-427676.jpeg'></img></p>","null","","1549744903137","14","","","","","",""
"null","","html-keyboard-response","383","2558441","0.0-8.0-0.0-15.3","COGS219_2019_09","<p><img class= 'stimulus' src='images/baseline/Lake 9.jpg'></img></p>","null","","1549744903238","","","","","","",""
"null","","html-keyboard-response","384","2558541","0.0-8.0-0.0-16.3","COGS219_2019_09","<p><img class= 'stimulus' src='images/baseline/04130v.jpg'></img></p>","null","","1549744903336","","","","","","",""
"null","","html-keyboard-response","385","2558658","0.0-8.0-0.0-17.3","COGS219_2019_09","<p><img class= 'stimulus' src='images/baseline/cranes 1.jpg'></img></p>","null","","1549744903436","","","","","","",""
"710.1000000000931","","html-button-response","386","2560374","0.0-8.0-0.0-18.3","COGS219_2019_09","<div class = ""response_question"">WAS THE IMAGE ROTATED...</div>","","0","","","4","8","neu","left","test","true"
"774.1000000005588","","html-button-response","387","2561149","0.0-8.0-0.0-0.4","COGS219_2019_09","","","0","","","","","","","",""
"null","","html-keyboard-response","388","2561225","0.0-8.0-0.0-1.4","COGS219_2019_09","<p><img class= 'stimulus' src='images/baseline/04085v.jpg'></img></p>","null","","1549744906020","","","","","","",""
"null","","html-keyboard-response","389","2561325","0.0-8.0-0.0-2.4","COGS219_2019_09","<p><img class= 'stimulus' src='images/baseline/kokkari-1523011968Xfr.jpg'></img></p>","null","","1549744906120","","","","","","",""
"null","","html-keyboard-response","390","2561425","0.0-8.0-0.0-3.4","COGS219_2019_09","<p><img class= 'stimulus' src='images/baseline/bird-flying-at-sunset.jpg'></img></p>","null","","1549744906219","","","","","","",""
"null","","html-keyboard-response","391","2561525","0.0-8.0-0.0-4.4","COGS219_2019_09","<p><img class= 'stimulus' src='images/negative/Wolf 2.jpg'></img></p>","null","","1549744906320","4","","","","","",""
"null","","html-keyboard-response","392","2561625","0.0-8.0-0.0-5.4","COGS219_2019_09","<p><img class= 'stimulus' src='images/baseline/Street 5.jpg'></img></p>","null","","1549744906420","","","","","","",""
"null","","html-keyboard-response","393","2561724","0.0-8.0-0.0-6.4","COGS219_2019_09","<p><img class= 'stimulus' src='images/target/buildin2.png'></img></p>","null","","1549744906521","6","","","","","",""
"null","","html-keyboard-response","394","2561825","0.0-8.0-0.0-7.4","COGS219_2019_09","<p><img class= 'stimulus' src='images/baseline/Lake 15.jpg'></img></p>","null","","1549744906621","","","","","","",""
"null","","html-keyboard-response","395","2561926","0.0-8.0-0.0-8.4","COGS219_2019_09","<p><img class= 'stimulus' src='images/baseline/agriculture-bright-clouds-440731.jpg'></img></p>","null","","1549744906721","8","","","","","",""
"null","","html-keyboard-response","396","2562025","0.0-8.0-0.0-9.4","COGS219_2019_09","<p><img class= 'stimulus' src='images/baseline/03162v.jpg'></img></p>","null","","1549744906822","","","","","","",""
"null","","html-keyboard-response","397","2562124","0.0-8.0-0.0-10.4","COGS219_2019_09","<p><img class= 'stimulus' src='images/baseline/Aletschgletscher-Eggishorn.jpg'></img></p>","null","","1549744906921","","","","","","",""
"null","","html-keyboard-response","398","2562225","0.0-8.0-0.0-11.4","COGS219_2019_09","<p><img class= 'stimulus' src='images/baseline/pexels-photo-414491.jpeg'></img></p>","null","","1549744907020","","","","","","",""
"null","","html-keyboard-response","399","2562325","0.0-8.0-0.0-12.4","COGS219_2019_09","<p><img class= 'stimulus' src='images/baseline/architecture_modern_architecture_852928.jpg'></img></p>","null","","1549744907121","12","","","","","",""
"null","","html-keyboard-response","400","2562425","0.0-8.0-0.0-13.4","COGS219_2019_09","<p><img class= 'stimulus' src='images/baseline/Bridge 1.jpg'></img></p>","null","","1549744907220","","","","","","",""
"null","","html-keyboard-response","401","2562526","0.0-8.0-0.0-14.4","COGS219_2019_09","<p><img class= 'stimulus' src='images/baseline/landscape12.jpg'></img></p>","null","","1549744907320","14","","","","","",""
"null","","html-keyboard-response","402","2562626","0.0-8.0-0.0-15.4","COGS219_2019_09","<p><img class= 'stimulus' src='images/baseline/Street 1.jpg'></img></p>","null","","1549744907422","","","","","","",""
"null","","html-keyboard-response","403","2562726","0.0-8.0-0.0-16.4","COGS219_2019_09","<p><img class= 'stimulus' src='images/baseline/lake3.jpg'></img></p>","null","","1549744907521","","","","","","",""
"null","","html-keyboard-response","404","2562841","0.0-8.0-0.0-17.4","COGS219_2019_09","<p><img class= 'stimulus' src='images/baseline/farmhouse6.jpg'></img></p>","null","","1549744907622","","","","","","",""
"1131.500000001397","","html-button-response","405","2564990","0.0-8.0-0.0-18.4","COGS219_2019_09","<div class = ""response_question"">WAS THE IMAGE ROTATED...</div>","","5","","","4","2","neg","right","test","false"
"2830","","html-button-response","406","2567822","0.0-8.0-0.0-0.5","COGS219_2019_09","","","0","","","","","","","",""
"null","","html-keyboard-response","407","2567908","0.0-8.0-0.0-1.5","COGS219_2019_09","<p><img class= 'stimulus' src='images/baseline/geese-flying-over-lake-at-dusk.jpg'></img></p>","null","","1549744912704","","","","","","",""
"null","","html-keyboard-response","408","2568009","0.0-8.0-0.0-2.5","COGS219_2019_09","<p><img class= 'stimulus' src='images/baseline/landscape15.jpg'></img></p>","null","","1549744912804","","","","","","",""
"null","","html-keyboard-response","409","2568109","0.0-8.0-0.0-3.5","COGS219_2019_09","<p><img class= 'stimulus' src='images/baseline/05203v.jpg'></img></p>","null","","1549744912904","","","","","","",""
"null","","html-keyboard-response","410","2568209","0.0-8.0-0.0-4.5","COGS219_2019_09","<p><img class= 'stimulus' src='images/neutral/Pig 1.jpg'></img></p>","null","","1549744913005","4","","","","","",""
"null","","html-keyboard-response","411","2568310","0.0-8.0-0.0-5.5","COGS219_2019_09","<p><img class= 'stimulus' src='images/baseline/autumn-in-red-rocks-park.jpg'></img></p>","null","","1549744913104","","","","","","",""
"null","","html-keyboard-response","412","2568409","0.0-8.0-0.0-6.5","COGS219_2019_09","<p><img class= 'stimulus' src='images/target/tree-in-desert-landscape.jpg'></img></p>","null","","1549744913205","6","","","","","",""
"null","","html-keyboard-response","413","2568509","0.0-8.0-0.0-7.5","COGS219_2019_09","<p><img class= 'stimulus' src='images/baseline/Lake 14.jpg'></img></p>","null","","1549744913304","","","","","","",""
"null","","html-keyboard-response","414","2568609","0.0-8.0-0.0-8.5","COGS219_2019_09","<p><img class= 'stimulus' src='images/baseline/scenic-mountain-landscape.jpg'></img></p>","null","","1549744913406","8","","","","","",""
"null","","html-keyboard-response","415","2568709","0.0-8.0-0.0-9.5","COGS219_2019_09","<p><img class= 'stimulus' src='images/baseline/04162v.jpg'></img></p>","null","","1549744913504","","","","","","",""
"null","","html-keyboard-response","416","2568808","0.0-8.0-0.0-10.5","COGS219_2019_09","<p><img class= 'stimulus' src='images/baseline/04158v.jpg'></img></p>","null","","1549744913604","","","","","","",""
"null","","html-keyboard-response","417","2568910","0.0-8.0-0.0-11.5","COGS219_2019_09","<p><img class= 'stimulus' src='images/baseline/Peyto_Lake-Banff_NP-Canada.jpg'></img></p>","null","","1549744913705","","","","","","",""
"null","","html-keyboard-response","418","2569009","0.0-8.0-0.0-12.5","COGS219_2019_09","<p><img class= 'stimulus' src='images/baseline/valley 1.jpg'></img></p>","null","","1549744913805","12","","","","","",""
"null","","html-keyboard-response","419","2569108","0.0-8.0-0.0-13.5","COGS219_2019_09","<p><img class= 'stimulus' src='images/baseline/landscape33.jpg'></img></p>","null","","1549744913905","","","","","","",""
"null","","html-keyboard-response","420","2569208","0.0-8.0-0.0-14.5","COGS219_2019_09","<p><img class= 'stimulus' src='images/baseline/03212v.jpg'></img></p>","null","","1549744914003","14","","","","","",""
"null","","html-keyboard-response","421","2569309","0.0-8.0-0.0-15.5","COGS219_2019_09","<p><img class= 'stimulus' src='images/baseline/landscape36.jpg'></img></p>","null","","1549744914104","","","","","","",""
"null","","html-keyboard-response","422","2569409","0.0-8.0-0.0-16.5","COGS219_2019_09","<p><img class= 'stimulus' src='images/baseline/building_at_national_conservation.jpg'></img></p>","null","","1549744914204","","","","","","",""
"null","","html-keyboard-response","423","2569525","0.0-8.0-0.0-17.5","COGS219_2019_09","<p><img class= 'stimulus' src='images/baseline/04117v.jpg'></img></p>","null","","1549744914305","","","","","","",""
"1584.1000000000931","","html-button-response","424","2572119","0.0-8.0-0.0-18.5","COGS219_2019_09","<div class = ""response_question"">WAS THE IMAGE ROTATED...</div>","","2","","","4","2","neu","right","test","false"
"4030.2999999988824","","html-button-response","425","2576150","0.0-8.0-0.0-0.6","COGS219_2019_09","","","0","","","","","","","",""
"null","","html-keyboard-response","426","2576226","0.0-8.0-0.0-1.6","COGS219_2019_09","<p><img class= 'stimulus' src='images/baseline/farmhouse2.jpg'></img></p>","null","","1549744921021","","","","","","",""
"null","","html-keyboard-response","427","2576326","0.0-8.0-0.0-2.6","COGS219_2019_09","<p><img class= 'stimulus' src='images/baseline/04064v.jpg'></img></p>","null","","1549744921121","","","","","","",""
"null","","html-keyboard-response","428","2576426","0.0-8.0-0.0-3.6","COGS219_2019_09","<p><img class= 'stimulus' src='images/baseline/cyrillic.jpg'></img></p>","null","","1549744921221","","","","","","",""
"null","","html-keyboard-response","429","2576525","0.0-8.0-0.0-4.6","COGS219_2019_09","<p><img class= 'stimulus' src='images/baseline/grand-teton-mountains.jpg'></img></p>","null","","1549744921322","4","","","","","",""
"null","","html-keyboard-response","430","2576625","0.0-8.0-0.0-5.6","COGS219_2019_09","<p><img class= 'stimulus' src='images/baseline/Lake 3.jpg'></img></p>","null","","1549744921422","","","","","","",""
"null","","html-keyboard-response","431","2576725","0.0-8.0-0.0-6.6","COGS219_2019_09","<p><img class= 'stimulus' src='images/neutral/Yoga 3.jpg'></img></p>","null","","1549744921522","6","","","","","",""
"null","","html-keyboard-response","432","2576826","0.0-8.0-0.0-7.6","COGS219_2019_09","<p><img class= 'stimulus' src='images/baseline/chicago-skyline-at-night-1476869511p8U.jpg'></img></p>","null","","1549744921622","","","","","","",""
"null","","html-keyboard-response","433","2576925","0.0-8.0-0.0-8.6","COGS219_2019_09","<p><img class= 'stimulus left-rotate' src='images/target/dubai-1113262_640.jpg'></img></p>","null","","1549744921722","8","","","","","",""
"null","","html-keyboard-response","434","2577025","0.0-8.0-0.0-9.6","COGS219_2019_09","<p><img class= 'stimulus' src='images/baseline/building12.jpg'></img></p>","null","","1549744921822","","","","","","",""
"null","","html-keyboard-response","435","2577126","0.0-8.0-0.0-10.6","COGS219_2019_09","<p><img class= 'stimulus' src='images/baseline/05242v.jpg'></img></p>","null","","1549744921920","","","","","","",""
"null","","html-keyboard-response","436","2577226","0.0-8.0-0.0-11.6","COGS219_2019_09","<p><img class= 'stimulus' src='images/baseline/05145v.jpg'></img></p>","null","","1549744922020","","","","","","",""
"null","","html-keyboard-response","437","2577326","0.0-8.0-0.0-12.6","COGS219_2019_09","<p><img class= 'stimulus' src='images/baseline/Sidewalk 4.jpg'></img></p>","null","","1549744922121","12","","","","","",""
"null","","html-keyboard-response","438","2577427","0.0-8.0-0.0-13.6","COGS219_2019_09","<p><img class= 'stimulus' src='images/baseline/04098v.jpg'></img></p>","null","","1549744922220","","","","","","",""
"null","","html-keyboard-response","439","2577525","0.0-8.0-0.0-14.6","COGS219_2019_09","<p><img class= 'stimulus' src='images/baseline/05255v.jpg'></img></p>","null","","1549744922321","14","","","","","",""
"null","","html-keyboard-response","440","2577626","0.0-8.0-0.0-15.6","COGS219_2019_09","<p><img class= 'stimulus' src='images/baseline/building16.jpg'></img></p>","null","","1549744922421","","","","","","",""
"null","","html-keyboard-response","441","2577725","0.0-8.0-0.0-16.6","COGS219_2019_09","<p><img class= 'stimulus' src='images/baseline/04062v.jpg'></img></p>","null","","1549744922522","","","","","","",""
"null","","html-keyboard-response","442","2577842","0.0-8.0-0.0-17.6","COGS219_2019_09","<p><img class= 'stimulus' src='images/baseline/04060v.jpg'></img></p>","null","","1549744922622","","","","","","",""
"788.5000000009313","","html-button-response","443","2579647","0.0-8.0-0.0-18.6","COGS219_2019_09","<div class = ""response_question"">WAS THE IMAGE ROTATED...</div>","","1","","","6","2","neu","left","test","true"
"1598.4000000003725","","html-button-response","444","2581246","0.0-8.0-0.0-0.7","COGS219_2019_09","","","0","","","","","","","",""
"null","","html-keyboard-response","445","2581326","0.0-8.0-0.0-1.7","COGS219_2019_09","<p><img class= 'stimulus' src='images/baseline/town-square-in-wroclaw-1539098440MZy.jpg'></img></p>","null","","1549744926120","","","","","","",""
"null","","html-keyboard-response","446","2581426","0.0-8.0-0.0-2.7","COGS219_2019_09","<p><img class= 'stimulus' src='images/baseline/city-silhouette-at-sunset-871291580819Esw.jpg'></img></p>","null","","1549744926221","","","","","","",""
"null","","html-keyboard-response","447","2581526","0.0-8.0-0.0-3.7","COGS219_2019_09","<p><img class= 'stimulus' src='images/baseline/03220v.jpg'></img></p>","null","","1549744926321","","","","","","",""
"null","","html-keyboard-response","448","2581625","0.0-8.0-0.0-4.7","COGS219_2019_09","<p><img class= 'stimulus' src='images/baseline/road 1(1).jpg'></img></p>","null","","1549744926421","4","","","","","",""
"null","","html-keyboard-response","449","2581726","0.0-8.0-0.0-5.7","COGS219_2019_09","<p><img class= 'stimulus' src='images/baseline/farmhouse3.jpg'></img></p>","null","","1549744926521","","","","","","",""
"null","","html-keyboard-response","450","2581826","0.0-8.0-0.0-6.7","COGS219_2019_09","<p><img class= 'stimulus left-rotate' src='images/target/lookout_tower.jpg'></img></p>","null","","1549744926620","6","","","","","",""
"null","","html-keyboard-response","451","2581925","0.0-8.0-0.0-7.7","COGS219_2019_09","<p><img class= 'stimulus' src='images/baseline/farmhouse9.jpg'></img></p>","null","","1549744926722","","","","","","",""
"null","","html-keyboard-response","452","2582026","0.0-8.0-0.0-8.7","COGS219_2019_09","<p><img class= 'stimulus' src='images/baseline/04196v.jpg'></img></p>","null","","1549744926822","8","","","","","",""
"null","","html-keyboard-response","453","2582125","0.0-8.0-0.0-9.7","COGS219_2019_09","<p><img class= 'stimulus' src='images/baseline/Lake 13.jpg'></img></p>","null","","1549744926922","","","","","","",""
"null","","html-keyboard-response","454","2582225","0.0-8.0-0.0-10.7","COGS219_2019_09","<p><img class= 'stimulus' src='images/baseline/red-rocks-park.jpg'></img></p>","null","","1549744927021","","","","","","",""
"null","","html-keyboard-response","455","2582326","0.0-8.0-0.0-11.7","COGS219_2019_09","<p><img class= 'stimulus' src='images/baseline/landscape14.jpg'></img></p>","null","","1549744927120","","","","","","",""
"null","","html-keyboard-response","456","2582426","0.0-8.0-0.0-12.7","COGS219_2019_09","<p><img class= 'stimulus' src='images/baseline/04179v.jpg'></img></p>","null","","1549744927220","12","","","","","",""
"null","","html-keyboard-response","457","2582526","0.0-8.0-0.0-13.7","COGS219_2019_09","<p><img class= 'stimulus' src='images/baseline/Kocherbaumwald-01.jpg'></img></p>","null","","1549744927320","","","","","","",""
"null","","html-keyboard-response","458","2582626","0.0-8.0-0.0-14.7","COGS219_2019_09","<p><img class= 'stimulus' src='images/baseline/03063v.jpg'></img></p>","null","","1549744927420","14","","","","","",""
"null","","html-keyboard-response","459","2582726","0.0-8.0-0.0-15.7","COGS219_2019_09","<p><img class= 'stimulus' src='images/baseline/Street 4.jpg'></img></p>","null","","1549744927522","","","","","","",""
"null","","html-keyboard-response","460","2582825","0.0-8.0-0.0-16.7","COGS219_2019_09","<p><img class= 'stimulus' src='images/baseline/Sunset 3.jpg'></img></p>","null","","1549744927622","","","","","","",""
"null","","html-keyboard-response","461","2582942","0.0-8.0-0.0-17.7","COGS219_2019_09","<p><img class= 'stimulus' src='images/baseline/03056v.jpg'></img></p>","null","","1549744927722","","","","","","",""
"1259.2999999998137","","html-button-response","462","2585206","0.0-8.0-0.0-18.7","COGS219_2019_09","<div class = ""response_question"">WAS THE IMAGE ROTATED...</div>","","4","","","4","2","bas","left","test","false"
"1094.4000000003725","","html-button-response","463","2586302","0.0-8.0-0.0-0.8","COGS219_2019_09","","","0","","","","","","","",""
"null","","html-keyboard-response","464","2586375","0.0-8.0-0.0-1.8","COGS219_2019_09","<p><img class= 'stimulus' src='images/baseline/pexels-photo-459203.jpeg'></img></p>","null","","1549744931170","","","","","","",""
"null","","html-keyboard-response","465","2586476","0.0-8.0-0.0-2.8","COGS219_2019_09","<p><img class= 'stimulus' src='images/baseline/4k-wallpaper-agriculture-clouds-842711.jpg'></img></p>","null","","1549744931271","","","","","","",""
"null","","html-keyboard-response","466","2586575","0.0-8.0-0.0-3.8","COGS219_2019_09","<p><img class= 'stimulus' src='images/baseline/03148v.jpg'></img></p>","null","","1549744931371","","","","","","",""
"null","","html-keyboard-response","467","2586676","0.0-8.0-0.0-4.8","COGS219_2019_09","<p><img class= 'stimulus' src='images/baseline/building9.jpg'></img></p>","null","","1549744931471","4","","","","","",""
"null","","html-keyboard-response","468","2586776","0.0-8.0-0.0-5.8","COGS219_2019_09","<p><img class= 'stimulus' src='images/baseline/05161v.jpg'></img></p>","null","","1549744931571","","","","","","",""
"null","","html-keyboard-response","469","2586876","0.0-8.0-0.0-6.8","COGS219_2019_09","<p><img class= 'stimulus' src='images/baseline/04222v.jpg'></img></p>","null","","1549744931671","6","","","","","",""
"null","","html-keyboard-response","470","2586975","0.0-8.0-0.0-7.8","COGS219_2019_09","<p><img class= 'stimulus' src='images/baseline/05252v.jpg'></img></p>","null","","1549744931772","","","","","","",""
"null","","html-keyboard-response","471","2587077","0.0-8.0-0.0-8.8","COGS219_2019_09","<p><img class= 'stimulus' src='images/baseline/landscape40.jpg'></img></p>","null","","1549744931873","8","","","","","",""
"null","","html-keyboard-response","472","2587175","0.0-8.0-0.0-9.8","COGS219_2019_09","<p><img class= 'stimulus' src='images/baseline/05279v.jpg'></img></p>","null","","1549744931972","","","","","","",""
"null","","html-keyboard-response","473","2587275","0.0-8.0-0.0-10.8","COGS219_2019_09","<p><img class= 'stimulus' src='images/baseline/landscape16.jpg'></img></p>","null","","1549744932073","","","","","","",""
"null","","html-keyboard-response","474","2587376","0.0-8.0-0.0-11.8","COGS219_2019_09","<p><img class= 'stimulus' src='images/baseline/03112v.jpg'></img></p>","null","","1549744932170","","","","","","",""
"null","","html-keyboard-response","475","2587476","0.0-8.0-0.0-12.8","COGS219_2019_09","<p><img class= 'stimulus' src='images/baseline/landscape35.jpg'></img></p>","null","","1549744932272","12","","","","","",""
