"rt","responses","trial_type","trial_index","time_elapsed","internal_node_id","participant_id","stimulus","key_press","button_pressed","stim_onset","sequence_position","distractor_position","target_lag","distractor_type","target_orientation","phase","correct"
"17103.99999999936","{""Q0"":""23""}","survey-text","0","17108","0.0-0.0","23","","","","","","","","","","",""
"2566018","","html-keyboard-response","1","2583135","0.0-1.0","23","Welcome to the experiment.","67","","","","","","","","",""
"18788.199999999255","","html-button-response","2","2601932","0.0-2.0","23","<p>Several images will be presented sequentially.        Each image will only be on the screen for about 100 milliseconds.</p>        <p> One of the images may be rotated 90 degrees right or left.        Watch for this image and remember if it is rotated right or left.</p>               <p>Images of people and animals will appear, and sometimes they will be unpleasant.        These will never be the rotated target image.</p>","","0","","","","","","","",""
"4974.200000000186","","html-button-response","3","2606908","0.0-3.0","23","<p><img class=""stimulus left-rotate"" src=""images/target/Tree-Landscape-Winter-Nature-Winter-Trees-Snow-2117951.jpg""></img></p><p>This is an example of an image rotated to the left.</p>","","0","","","","","","","",""
"1398.6000000005588","","html-button-response","4","2608307","0.0-4.0","23","<p><img class=""stimulus"" src=""images/target/shotstash_0036-1-1100x734.jpg""></img></p><p>This is an example of an image rotated to the right.</p>","","0","","","","","","","",""
"10007.099999999162","","html-button-response","5","2618316","0.0-5.0","23","<p>We will now begin a short practice session.</p>         <p>A + symbol will appear in the middle of the screen. Please fix your gaze on the center of the +, and then click the mouse button to begin the image sequence.</p>         <p>Please avoid blinking or eye movements while the images are on the screen.</p>        <p>The image sequence will start relatively slow. After a few sequences, it will speed up.</p>","","0","","","","","","","",""
"14014.499999997672","","html-button-response","6","2632332","0.0-6.0-0.0","23","","","0","","","","","","","",""
"null","","html-keyboard-response","7","2632515","0.0-6.0-1.0","23","<p><img class= 'stimulus' src='images/baseline/05264v.jpg'></img></p>","null","","1550539993138","","","","","","",""
"null","","html-keyboard-response","8","2632716","0.0-6.0-2.0","23","<p><img class= 'stimulus' src='images/baseline/lookout_tower.jpg'></img></p>","null","","1550539993338","","","","","","",""
"null","","html-keyboard-response","9","2632917","0.0-6.0-3.0","23","<p><img class= 'stimulus' src='images/baseline/city-silhouette-at-sunset-871291580819Esw.jpg'></img></p>","null","","1550539993540","","","","","","",""
"null","","html-keyboard-response","10","2633117","0.0-6.0-4.0","23","<p><img class= 'stimulus' src='images/baseline/landscape2.jpg'></img></p>","null","","1550539993739","4","","","","","",""
"null","","html-keyboard-response","11","2633316","0.0-6.0-5.0","23","<p><img class= 'stimulus' src='images/baseline/Dirt 2.jpg'></img></p>","null","","1550539993938","","","","","","",""
"null","","html-keyboard-response","12","2633517","0.0-6.0-6.0","23","<p><img class= 'stimulus' src='images/baseline/landscape8.jpg'></img></p>","null","","1550539994138","6","","","","","",""
"null","","html-keyboard-response","13","2633716","0.0-6.0-7.0","23","<p><img class= 'stimulus' src='images/baseline/05158v.jpg'></img></p>","null","","1550539994339","","","","","","",""
"null","","html-keyboard-response","14","2633915","0.0-6.0-8.0","23","<p><img class= 'stimulus' src='images/baseline/pexels-photo-210617.jpeg'></img></p>","null","","1550539994538","8","","","","","",""
"null","","html-keyboard-response","15","2634116","0.0-6.0-9.0","23","<p><img class= 'stimulus' src='images/baseline/empire-state-building.jpg'></img></p>","null","","1550539994739","","","","","","",""
"null","","html-keyboard-response","16","2634317","0.0-6.0-10.0","23","<p><img class= 'stimulus' src='images/baseline/house8.jpg'></img></p>","null","","1550539994938","","","","","","",""
"null","","html-keyboard-response","17","2634516","0.0-6.0-11.0","23","<p><img class= 'stimulus' src='images/baseline/Sunset 6.jpg'></img></p>","null","","1550539995139","","","","","","",""
"null","","html-keyboard-response","18","2634717","0.0-6.0-12.0","23","<p><img class= 'stimulus' src='images/baseline/05198v.jpg'></img></p>","null","","1550539995339","12","","","","","",""
"null","","html-keyboard-response","19","2634917","0.0-6.0-13.0","23","<p><img class= 'stimulus' src='images/baseline/Kocherbaumwald-01.jpg'></img></p>","null","","1550539995540","","","","","","",""
"null","","html-keyboard-response","20","2635117","0.0-6.0-14.0","23","<p><img class= 'stimulus left-rotate' src='images/target/pexels-photo-210683.jpeg'></img></p>","null","","1550539995739","14","","","","","",""
"null","","html-keyboard-response","21","2635317","0.0-6.0-15.0","23","<p><img class= 'stimulus' src='images/baseline/landscape23.jpg'></img></p>","null","","1550539995940","","","","","","",""
"null","","html-keyboard-response","22","2635517","0.0-6.0-16.0","23","<p><img class= 'stimulus' src='images/baseline/pexels-photo-459203.jpeg'></img></p>","null","","1550539996139","","","","","","",""
"null","","html-keyboard-response","23","2635734","0.0-6.0-17.0","23","<p><img class= 'stimulus' src='images/baseline/Sky 1.jpg'></img></p>","null","","1550539996340","","","","","","",""
"6576.000000000931","","html-button-response","24","2643316","0.0-6.0-18.0","23","<div class = ""response_question"">WAS THE IMAGE ROTATED...</div>","","2","","","6","8","bas","left","practice","false"
"3405.5000000009313","","html-button-response","25","2646724","0.0-6.0-0.1","23","","","0","","","","","","","",""
"null","","html-keyboard-response","26","2646916","0.0-6.0-1.1","23","<p><img class= 'stimulus' src='images/baseline/building3.jpg'></img></p>","null","","1550540007539","","","","","","",""
"null","","html-keyboard-response","27","2647116","0.0-6.0-2.1","23","<p><img class= 'stimulus' src='images/baseline/landscape31.jpg'></img></p>","null","","1550540007739","","","","","","",""
"null","","html-keyboard-response","28","2647316","0.0-6.0-3.1","23","<p><img class= 'stimulus' src='images/baseline/Road 1.jpg'></img></p>","null","","1550540007940","","","","","","",""
"null","","html-keyboard-response","29","2647517","0.0-6.0-4.1","23","<p><img class= 'stimulus' src='images/baseline/landscape22.jpg'></img></p>","null","","1550540008138","4","","","","","",""
"null","","html-keyboard-response","30","2647717","0.0-6.0-5.1","23","<p><img class= 'stimulus' src='images/baseline/architecture_modern_architecture_852928.jpg'></img></p>","null","","1550540008338","","","","","","",""
"null","","html-keyboard-response","31","2647916","0.0-6.0-6.1","23","<p><img class= 'stimulus' src='images/baseline/05252v.jpg'></img></p>","null","","1550540008539","6","","","","","",""
"null","","html-keyboard-response","32","2648116","0.0-6.0-7.1","23","<p><img class= 'stimulus' src='images/baseline/valley 1.jpg'></img></p>","null","","1550540008739","","","","","","",""
"null","","html-keyboard-response","33","2648317","0.0-6.0-8.1","23","<p><img class= 'stimulus' src='images/baseline/pexels-photo-1287089.jpeg'></img></p>","null","","1550540008939","8","","","","","",""
"null","","html-keyboard-response","34","2648516","0.0-6.0-9.1","23","<p><img class= 'stimulus' src='images/baseline/landscape13.jpg'></img></p>","null","","1550540009140","","","","","","",""
"null","","html-keyboard-response","35","2648717","0.0-6.0-10.1","23","<p><img class= 'stimulus' src='images/baseline/church-silhouette-8712964986014Kb.jpg'></img></p>","null","","1550540009340","","","","","","",""
"null","","html-keyboard-response","36","2648918","0.0-6.0-11.1","23","<p><img class= 'stimulus' src='images/baseline/red rocks from afar.jpg'></img></p>","null","","1550540009539","","","","","","",""
"null","","html-keyboard-response","37","2649117","0.0-6.0-12.1","23","<p><img class= 'stimulus' src='images/baseline/Aletschgletscher-Eggishorn.jpg'></img></p>","null","","1550540009739","12","","","","","",""
"null","","html-keyboard-response","38","2649317","0.0-6.0-13.1","23","<p><img class= 'stimulus' src='images/baseline/Skyscraper 1.jpg'></img></p>","null","","1550540009939","","","","","","",""
"null","","html-keyboard-response","39","2649517","0.0-6.0-14.1","23","<p><img class= 'stimulus' src='images/target/building15.jpg'></img></p>","null","","1550540010139","14","","","","","",""
"null","","html-keyboard-response","40","2649717","0.0-6.0-15.1","23","<p><img class= 'stimulus' src='images/baseline/farmhouse3.jpg'></img></p>","null","","1550540010339","","","","","","",""
"null","","html-keyboard-response","41","2649917","0.0-6.0-16.1","23","<p><img class= 'stimulus' src='images/baseline/04117v.jpg'></img></p>","null","","1550540010539","","","","","","",""
"null","","html-keyboard-response","42","2650134","0.0-6.0-17.1","23","<p><img class= 'stimulus' src='images/baseline/Waterfall 1.jpg'></img></p>","null","","1550540010738","","","","","","",""
"2129.199999999255","","html-button-response","43","2653268","0.0-6.0-18.1","23","<div class = ""response_question"">WAS THE IMAGE ROTATED...</div>","","3","","","6","8","bas","right","practice","true"
"2118.300000002142","","html-button-response","44","2655388","0.0-6.0-0.2","23","","","0","","","","","","","",""
"null","","html-keyboard-response","45","2655567","0.0-6.0-1.2","23","<p><img class= 'stimulus' src='images/baseline/Street 5.jpg'></img></p>","null","","1550540016190","","","","","","",""
"null","","html-keyboard-response","46","2655767","0.0-6.0-2.2","23","<p><img class= 'stimulus' src='images/baseline/landscape19.jpg'></img></p>","null","","1550540016389","","","","","","",""
"null","","html-keyboard-response","47","2655967","0.0-6.0-3.2","23","<p><img class= 'stimulus' src='images/baseline/pexels-photo-1261728.jpeg'></img></p>","null","","1550540016589","","","","","","",""
"null","","html-keyboard-response","48","2656167","0.0-6.0-4.2","23","<p><img class= 'stimulus' src='images/baseline/landscape3.jpg'></img></p>","null","","1550540016789","4","","","","","",""
"null","","html-keyboard-response","49","2656368","0.0-6.0-5.2","23","<p><img class= 'stimulus' src='images/baseline/pexels-photo-750108.jpeg'></img></p>","null","","1550540016991","","","","","","",""
"null","","html-keyboard-response","50","2656567","0.0-6.0-6.2","23","<p><img class= 'stimulus' src='images/baseline/05240v.jpg'></img></p>","null","","1550540017190","6","","","","","",""
"null","","html-keyboard-response","51","2656768","0.0-6.0-7.2","23","<p><img class= 'stimulus' src='images/baseline/landscape1.jpg'></img></p>","null","","1550540017391","","","","","","",""
"null","","html-keyboard-response","52","2656968","0.0-6.0-8.2","23","<p><img class= 'stimulus left-rotate' src='images/target/sand-3339890_640.jpg'></img></p>","null","","1550540017590","8","","","","","",""
"null","","html-keyboard-response","53","2657168","0.0-6.0-9.2","23","<p><img class= 'stimulus' src='images/baseline/05161v.jpg'></img></p>","null","","1550540017791","","","","","","",""
"null","","html-keyboard-response","54","2657368","0.0-6.0-10.2","23","<p><img class= 'stimulus' src='images/baseline/Beach 3.jpg'></img></p>","null","","1550540017992","","","","","","",""
"null","","html-keyboard-response","55","2657570","0.0-6.0-11.2","23","<p><img class= 'stimulus' src='images/baseline/foreclosed_home.jpg'></img></p>","null","","1550540018192","","","","","","",""
"null","","html-keyboard-response","56","2657769","0.0-6.0-12.2","23","<p><img class= 'stimulus' src='images/baseline/kokkari-1523011968Xfr.jpg'></img></p>","null","","1550540018390","12","","","","","",""
"null","","html-keyboard-response","57","2657969","0.0-6.0-13.2","23","<p><img class= 'stimulus' src='images/baseline/04193v.jpg'></img></p>","null","","1550540018591","","","","","","",""
"null","","html-keyboard-response","58","2658169","0.0-6.0-14.2","23","<p><img class= 'stimulus' src='images/baseline/grand-teton-mountains.jpg'></img></p>","null","","1550540018791","14","","","","","",""
"null","","html-keyboard-response","59","2658369","0.0-6.0-15.2","23","<p><img class= 'stimulus' src='images/baseline/farmhouse1.jpg'></img></p>","null","","1550540018991","","","","","","",""
"null","","html-keyboard-response","60","2658568","0.0-6.0-16.2","23","<p><img class= 'stimulus' src='images/baseline/04300v.jpg'></img></p>","null","","1550540019192","","","","","","",""
"null","","html-keyboard-response","61","2658785","0.0-6.0-17.2","23","<p><img class= 'stimulus' src='images/baseline/horse_statue.jpg'></img></p>","null","","1550540019391","","","","","","",""
"2668.39999999851","","html-button-response","62","2662460","0.0-6.0-18.2","23","<div class = ""response_question"">WAS THE IMAGE ROTATED...</div>","","2","","","6","2","bas","left","practice","false"
"1646.3999999980442","","html-button-response","63","2664107","0.0-6.0-0.3","23","","","0","","","","","","","",""
"null","","html-keyboard-response","64","2664284","0.0-6.0-1.3","23","<p><img class= 'stimulus' src='images/baseline/tennis-court-net-buried-in-snow.jpg'></img></p>","null","","1550540024908","","","","","","",""
"null","","html-keyboard-response","65","2664484","0.0-6.0-2.3","23","<p><img class= 'stimulus' src='images/baseline/Freudenberg_sg_Switzerland.jpg'></img></p>","null","","1550540025106","","","","","","",""
"null","","html-keyboard-response","66","2664685","0.0-6.0-3.3","23","<p><img class= 'stimulus' src='images/baseline/pexels-photo-414491.jpeg'></img></p>","null","","1550540025307","","","","","","",""
"null","","html-keyboard-response","67","2664884","0.0-6.0-4.3","23","<p><img class= 'stimulus' src='images/baseline/Sunset 3.jpg'></img></p>","null","","1550540025508","4","","","","","",""
"null","","html-keyboard-response","68","2665084","0.0-6.0-5.3","23","<p><img class= 'stimulus' src='images/baseline/05179v.jpg'></img></p>","null","","1550540025706","","","","","","",""
"null","","html-keyboard-response","69","2665285","0.0-6.0-6.3","23","<p><img class= 'stimulus' src='images/baseline/04064v.jpg'></img></p>","null","","1550540025907","6","","","","","",""
"null","","html-keyboard-response","70","2665484","0.0-6.0-7.3","23","<p><img class= 'stimulus' src='images/baseline/hills 4.jpg'></img></p>","null","","1550540026107","","","","","","",""
"null","","html-keyboard-response","71","2665687","0.0-6.0-8.3","23","<p><img class= 'stimulus' src='images/baseline/house10.jpg'></img></p>","null","","1550540026307","8","","","","","",""
"null","","html-keyboard-response","72","2665885","0.0-6.0-9.3","23","<p><img class= 'stimulus' src='images/baseline/pexels-photo-1840893.jpeg'></img></p>","null","","1550540026509","","","","","","",""
"null","","html-keyboard-response","73","2666085","0.0-6.0-10.3","23","<p><img class= 'stimulus' src='images/baseline/05255v.jpg'></img></p>","null","","1550540026709","","","","","","",""
"null","","html-keyboard-response","74","2666285","0.0-6.0-11.3","23","<p><img class= 'stimulus' src='images/baseline/sun-through-winter-tree-branches1.jpg'></img></p>","null","","1550540026908","","","","","","",""
"null","","html-keyboard-response","75","2666485","0.0-6.0-12.3","23","<p><img class= 'stimulus' src='images/target/palm-trees-1209125_640.jpg'></img></p>","null","","1550540027108","12","","","","","",""
"null","","html-keyboard-response","76","2666685","0.0-6.0-13.3","23","<p><img class= 'stimulus' src='images/baseline/farmhouse4.jpg'></img></p>","null","","1550540027309","","","","","","",""
"null","","html-keyboard-response","77","2666885","0.0-6.0-14.3","23","<p><img class= 'stimulus' src='images/baseline/Happy pose 3.jpg'></img></p>","null","","1550540027507","14","","","","","",""
"null","","html-keyboard-response","78","2667085","0.0-6.0-15.3","23","<p><img class= 'stimulus' src='images/baseline/02988v.jpg'></img></p>","null","","1550540027708","","","","","","",""
"null","","html-keyboard-response","79","2667286","0.0-6.0-16.3","23","<p><img class= 'stimulus' src='images/baseline/Grass 6.jpg'></img></p>","null","","1550540027907","","","","","","",""
"null","","html-keyboard-response","80","2667502","0.0-6.0-17.3","23","<p><img class= 'stimulus' src='images/baseline/field 2.jpg'></img></p>","null","","1550540028108","","","","","","",""
"1702.3999999985099","","html-button-response","81","2670212","0.0-6.0-18.3","23","<div class = ""response_question"">WAS THE IMAGE ROTATED...</div>","","3","","","4","8","bas","right","practice","true"
"2126.2999999998137","","html-button-response","82","2672340","0.0-6.0-0.4","23","","","0","","","","","","","",""
"null","","html-keyboard-response","83","2672468","0.0-6.0-1.4","23","<p><img class= 'stimulus' src='images/baseline/05279v.jpg'></img></p>","null","","1550540033139","","","","","","",""
"null","","html-keyboard-response","84","2672617","0.0-6.0-2.4","23","<p><img class= 'stimulus' src='images/baseline/03112v.jpg'></img></p>","null","","1550540033291","","","","","","",""
"null","","html-keyboard-response","85","2672767","0.0-6.0-3.4","23","<p><img class= 'stimulus' src='images/baseline/field 4.jpg'></img></p>","null","","1550540033439","","","","","","",""
"null","","html-keyboard-response","86","2672917","0.0-6.0-4.4","23","<p><img class= 'stimulus' src='images/baseline/landscape12.jpg'></img></p>","null","","1550540033590","4","","","","","",""
"null","","html-keyboard-response","87","2673067","0.0-6.0-5.4","23","<p><img class= 'stimulus' src='images/baseline/04031v.jpg'></img></p>","null","","1550540033739","","","","","","",""
"null","","html-keyboard-response","88","2673218","0.0-6.0-6.4","23","<p><img class= 'stimulus' src='images/baseline/building4.jpg'></img></p>","null","","1550540033890","6","","","","","",""
"null","","html-keyboard-response","89","2673367","0.0-6.0-7.4","23","<p><img class= 'stimulus' src='images/baseline/sunset-over-the-lake.jpg'></img></p>","null","","1550540034039","","","","","","",""
"null","","html-keyboard-response","90","2673517","0.0-6.0-8.4","23","<p><img class= 'stimulus' src='images/baseline/Linden,_paysage.jpg'></img></p>","null","","1550540034189","8","","","","","",""
"null","","html-keyboard-response","91","2673666","0.0-6.0-9.4","23","<p><img class= 'stimulus' src='images/baseline/road 1(1).jpg'></img></p>","null","","1550540034340","","","","","","",""
"null","","html-keyboard-response","92","2673817","0.0-6.0-10.4","23","<p><img class= 'stimulus' src='images/baseline/building8.jpg'></img></p>","null","","1550540034489","","","","","","",""
"null","","html-keyboard-response","93","2673968","0.0-6.0-11.4","23","<p><img class= 'stimulus' src='images/baseline/pexels-photo-440731.jpeg'></img></p>","null","","1550540034639","","","","","","",""
"null","","html-keyboard-response","94","2674117","0.0-6.0-12.4","23","<p><img class= 'stimulus left-rotate' src='images/target/coconut-3396945_640.jpg'></img></p>","null","","1550540034789","12","","","","","",""
"null","","html-keyboard-response","95","2674268","0.0-6.0-13.4","23","<p><img class= 'stimulus' src='images/baseline/04284v.jpg'></img></p>","null","","1550540034940","","","","","","",""
"null","","html-keyboard-response","96","2674417","0.0-6.0-14.4","23","<p><img class= 'stimulus' src='images/baseline/pexels-photo-259280.jpeg'></img></p>","null","","1550540035089","14","","","","","",""
"null","","html-keyboard-response","97","2674566","0.0-6.0-15.4","23","<p><img class= 'stimulus' src='images/baseline/pexels-photo-568236.jpeg'></img></p>","null","","1550540035239","","","","","","",""
"null","","html-keyboard-response","98","2674717","0.0-6.0-16.4","23","<p><img class= 'stimulus' src='images/baseline/05167v.jpg'></img></p>","null","","1550540035390","","","","","","",""
"null","","html-keyboard-response","99","2674883","0.0-6.0-17.4","23","<p><img class= 'stimulus' src='images/baseline/02982v.jpg'></img></p>","null","","1550540035539","","","","","","",""
"1537.700000000652","","html-button-response","100","2677435","0.0-6.0-18.4","23","<div class = ""response_question"">WAS THE IMAGE ROTATED...</div>","","0","","","4","8","bas","left","practice","true"
"2046.5999999977648","","html-button-response","101","2679483","0.0-6.0-0.5","23","","","0","","","","","","","",""
"null","","html-keyboard-response","102","2679617","0.0-6.0-1.5","23","<p><img class= 'stimulus' src='images/baseline/04086v.jpg'></img></p>","null","","1550540040289","","","","","","",""
"null","","html-keyboard-response","103","2679767","0.0-6.0-2.5","23","<p><img class= 'stimulus' src='images/baseline/autumn-landscape-with-lake-fall-trees-mountains.jpg'></img></p>","null","","1550540040439","","","","","","",""
"null","","html-keyboard-response","104","2679916","0.0-6.0-3.5","23","<p><img class= 'stimulus' src='images/baseline/03041v.jpg'></img></p>","null","","1550540040590","","","","","","",""
"null","","html-keyboard-response","105","2680066","0.0-6.0-4.5","23","<p><img class= 'stimulus' src='images/baseline/landscape15.jpg'></img></p>","null","","1550540040739","4","","","","","",""
"null","","html-keyboard-response","106","2680216","0.0-6.0-5.5","23","<p><img class= 'stimulus' src='images/baseline/hiking-trail.jpg'></img></p>","null","","1550540040890","","","","","","",""
"null","","html-keyboard-response","107","2680366","0.0-6.0-6.5","23","<p><img class= 'stimulus left-rotate' src='images/target/buildin5.jpg'></img></p>","null","","1550540041039","6","","","","","",""
"null","","html-keyboard-response","108","2680517","0.0-6.0-7.5","23","<p><img class= 'stimulus' src='images/baseline/agriculture-countryside-crop-259280.jpg'></img></p>","null","","1550540041188","","","","","","",""
"null","","html-keyboard-response","109","2680667","0.0-6.0-8.5","23","<p><img class= 'stimulus' src='images/baseline/building12.jpg'></img></p>","null","","1550540041339","8","","","","","",""
"null","","html-keyboard-response","110","2680817","0.0-6.0-9.5","23","<p><img class= 'stimulus' src='images/baseline/building_at_national_conservation.jpg'></img></p>","null","","1550540041489","","","","","","",""
"null","","html-keyboard-response","111","2680966","0.0-6.0-10.5","23","<p><img class= 'stimulus' src='images/baseline/pexels-photo-1054289.jpeg'></img></p>","null","","1550540041639","","","","","","",""
"null","","html-keyboard-response","112","2681117","0.0-6.0-11.5","23","<p><img class= 'stimulus' src='images/baseline/05303v.jpg'></img></p>","null","","1550540041790","","","","","","",""
"null","","html-keyboard-response","113","2681267","0.0-6.0-12.5","23","<p><img class= 'stimulus' src='images/baseline/Lake 8.jpg'></img></p>","null","","1550540041939","12","","","","","",""
"null","","html-keyboard-response","114","2681416","0.0-6.0-13.5","23","<p><img class= 'stimulus' src='images/baseline/hills 3.jpg'></img></p>","null","","1550540042088","","","","","","",""
"null","","html-keyboard-response","115","2681567","0.0-6.0-14.5","23","<p><img class= 'stimulus' src='images/baseline/Lake 7.jpg'></img></p>","null","","1550540042239","14","","","","","",""
"null","","html-keyboard-response","116","2681716","0.0-6.0-15.5","23","<p><img class= 'stimulus' src='images/baseline/02947v.jpg'></img></p>","null","","1550540042389","","","","","","",""
"null","","html-keyboard-response","117","2681866","0.0-6.0-16.5","23","<p><img class= 'stimulus' src='images/baseline/Sunset 5.jpg'></img></p>","null","","1550540042539","","","","","","",""
"null","","html-keyboard-response","118","2682033","0.0-6.0-17.5","23","<p><img class= 'stimulus' src='images/baseline/bird-flying-at-sunset.jpg'></img></p>","null","","1550540042689","","","","","","",""
"2293.000000001397","","html-button-response","119","2685332","0.0-6.0-18.5","23","<div class = ""response_question"">WAS THE IMAGE ROTATED...</div>","","0","","","4","2","bas","left","practice","true"
"1678.4999999981374","","html-button-response","120","2687011","0.0-6.0-0.6","23","","","0","","","","","","","",""
"null","","html-keyboard-response","121","2687150","0.0-6.0-1.6","23","<p><img class= 'stimulus' src='images/baseline/03201v.jpg'></img></p>","null","","1550540047822","","","","","","",""
"null","","html-keyboard-response","122","2687300","0.0-6.0-2.6","23","<p><img class= 'stimulus' src='images/baseline/Peyto_Lake-Banff_NP-Canada.jpg'></img></p>","null","","1550540047972","","","","","","",""
"null","","html-keyboard-response","123","2687450","0.0-6.0-3.6","23","<p><img class= 'stimulus' src='images/baseline/meadow-with-mountain-in-background.jpg'></img></p>","null","","1550540048122","","","","","","",""
"null","","html-keyboard-response","124","2687599","0.0-6.0-4.6","23","<p><img class= 'stimulus' src='images/baseline/house6.jpg'></img></p>","null","","1550540048273","4","","","","","",""
"null","","html-keyboard-response","125","2687750","0.0-6.0-5.6","23","<p><img class= 'stimulus' src='images/baseline/lake 1.jpg'></img></p>","null","","1550540048424","","","","","","",""
"null","","html-keyboard-response","126","2687900","0.0-6.0-6.6","23","<p><img class= 'stimulus' src='images/baseline/03148v.jpg'></img></p>","null","","1550540048572","6","","","","","",""
"null","","html-keyboard-response","127","2688050","0.0-6.0-7.6","23","<p><img class= 'stimulus' src='images/baseline/lone-old-cottonwood-tree.jpg'></img></p>","null","","1550540048723","","","","","","",""
"null","","html-keyboard-response","128","2688200","0.0-6.0-8.6","23","<p><img class= 'stimulus' src='images/target/italy-building-1206128_1280.jpg'></img></p>","null","","1550540048872","8","","","","","",""
"null","","html-keyboard-response","129","2688350","0.0-6.0-9.6","23","<p><img class= 'stimulus' src='images/baseline/03063v.jpg'></img></p>","null","","1550540049022","","","","","","",""
"null","","html-keyboard-response","130","2688499","0.0-6.0-10.6","23","<p><img class= 'stimulus' src='images/baseline/river 1.jpg'></img></p>","null","","1550540049172","","","","","","",""
"null","","html-keyboard-response","131","2688650","0.0-6.0-11.6","23","<p><img class= 'stimulus' src='images/baseline/building2.jpg'></img></p>","null","","1550540049323","","","","","","",""
"null","","html-keyboard-response","132","2688800","0.0-6.0-12.6","23","<p><img class= 'stimulus' src='images/baseline/03162v.jpg'></img></p>","null","","1550540049472","12","","","","","",""
"null","","html-keyboard-response","133","2688949","0.0-6.0-13.6","23","<p><img class= 'stimulus' src='images/baseline/landscape34.jpg'></img></p>","null","","1550540049622","","","","","","",""
"null","","html-keyboard-response","134","2689100","0.0-6.0-14.6","23","<p><img class= 'stimulus' src='images/baseline/03056v.jpg'></img></p>","null","","1550540049772","14","","","","","",""
"null","","html-keyboard-response","135","2689250","0.0-6.0-15.6","23","<p><img class= 'stimulus' src='images/baseline/03212v.jpg'></img></p>","null","","1550540049923","","","","","","",""
"null","","html-keyboard-response","136","2689400","0.0-6.0-16.6","23","<p><img class= 'stimulus' src='images/baseline/Camping 10.jpg'></img></p>","null","","1550540050072","","","","","","",""
"null","","html-keyboard-response","137","2689566","0.0-6.0-17.6","23","<p><img class= 'stimulus' src='images/baseline/Lake 13.jpg'></img></p>","null","","1550540050222","","","","","","",""
"2561.2000000001863","","html-button-response","138","2693140","0.0-6.0-18.6","23","<div class = ""response_question"">WAS THE IMAGE ROTATED...</div>","","3","","","6","2","bas","right","practice","true"
"2678.4999999981374","","html-button-response","139","2695819","0.0-6.0-0.7","23","","","0","","","","","","","",""
"null","","html-keyboard-response","140","2695950","0.0-6.0-1.7","23","<p><img class= 'stimulus' src='images/baseline/house7.jpg'></img></p>","null","","1550540056622","","","","","","",""
"null","","html-keyboard-response","141","2696100","0.0-6.0-2.7","23","<p><img class= 'stimulus' src='images/baseline/05247v.jpg'></img></p>","null","","1550540056773","","","","","","",""
"null","","html-keyboard-response","142","2696251","0.0-6.0-3.7","23","<p><img class= 'stimulus' src='images/baseline/Lake 5.jpg'></img></p>","null","","1550540056923","","","","","","",""
"null","","html-keyboard-response","143","2696400","0.0-6.0-4.7","23","<p><img class= 'stimulus' src='images/baseline/03066v.jpg'></img></p>","null","","1550540057072","4","","","","","",""
"null","","html-keyboard-response","144","2696549","0.0-6.0-5.7","23","<p><img class= 'stimulus' src='images/baseline/04222v.jpg'></img></p>","null","","1550540057222","","","","","","",""
"null","","html-keyboard-response","145","2696701","0.0-6.0-6.7","23","<p><img class= 'stimulus' src='images/target/pexels-photo-932328.jpeg'></img></p>","null","","1550540057373","6","","","","","",""
"null","","html-keyboard-response","146","2696850","0.0-6.0-7.7","23","<p><img class= 'stimulus' src='images/baseline/agriculture-cereal-clouds-175389.jpg'></img></p>","null","","1550540057522","","","","","","",""
"null","","html-keyboard-response","147","2697000","0.0-6.0-8.7","23","<p><img class= 'stimulus' src='images/baseline/05139v.jpg'></img></p>","null","","1550540057672","8","","","","","",""
"null","","html-keyboard-response","148","2697150","0.0-6.0-9.7","23","<p><img class= 'stimulus' src='images/baseline/02960v.jpg'></img></p>","null","","1550540057822","","","","","","",""
"null","","html-keyboard-response","149","2697301","0.0-6.0-10.7","23","<p><img class= 'stimulus' src='images/baseline/geese-flying-over-lake-at-dusk.jpg'></img></p>","null","","1550540057972","","","","","","",""
"null","","html-keyboard-response","150","2697451","0.0-6.0-11.7","23","<p><img class= 'stimulus' src='images/baseline/sunny-landscape-with-dry-brush-and-mountain-background.jpg'></img></p>","null","","1550540058122","","","","","","",""
"null","","html-keyboard-response","151","2697600","0.0-6.0-12.7","23","<p><img class= 'stimulus' src='images/baseline/vintage-art-deco-storefront.jpg'></img></p>","null","","1550540058272","12","","","","","",""
"null","","html-keyboard-response","152","2697751","0.0-6.0-13.7","23","<p><img class= 'stimulus' src='images/baseline/02977v.jpg'></img></p>","null","","1550540058422","","","","","","",""
"null","","html-keyboard-response","153","2697900","0.0-6.0-14.7","23","<p><img class= 'stimulus' src='images/baseline/landscape16.jpg'></img></p>","null","","1550540058572","14","","","","","",""
"null","","html-keyboard-response","154","2698050","0.0-6.0-15.7","23","<p><img class= 'stimulus' src='images/baseline/04040v.jpg'></img></p>","null","","1550540058722","","","","","","",""
"null","","html-keyboard-response","155","2698200","0.0-6.0-16.7","23","<p><img class= 'stimulus' src='images/baseline/04060v.jpg'></img></p>","null","","1550540058872","","","","","","",""
"null","","html-keyboard-response","156","2698366","0.0-6.0-17.7","23","<p><img class= 'stimulus' src='images/baseline/landscape37.jpg'></img></p>","null","","1550540059023","","","","","","",""
"1056.4000000013039","","html-button-response","157","2700428","0.0-6.0-18.7","23","<div class = ""response_question"">WAS THE IMAGE ROTATED...</div>","","3","","","4","2","bas","right","practice","true"
"1854.2000000015832","","html-button-response","158","2702283","0.0-6.0-0.8","23","","","0","","","","","","","",""
"null","","html-keyboard-response","159","2702366","0.0-6.0-1.8","23","<p><img class= 'stimulus' src='images/baseline/05280v.jpg'></img></p>","null","","1550540063090","","","","","","",""
"null","","html-keyboard-response","160","2702467","0.0-6.0-2.8","23","<p><img class= 'stimulus' src='images/baseline/field 1.jpg'></img></p>","null","","1550540063189","","","","","","",""
"null","","html-keyboard-response","161","2702567","0.0-6.0-3.8","23","<p><img class= 'stimulus' src='images/baseline/cranes 1.jpg'></img></p>","null","","1550540063289","","","","","","",""
"null","","html-keyboard-response","162","2702666","0.0-6.0-4.8","23","<p><img class= 'stimulus' src='images/baseline/Street 1.jpg'></img></p>","null","","1550540063389","4","","","","","",""
"null","","html-keyboard-response","163","2702767","0.0-6.0-5.8","23","<p><img class= 'stimulus' src='images/baseline/03114v.jpg'></img></p>","null","","1550540063489","","","","","","",""
"null","","html-keyboard-response","164","2702866","0.0-6.0-6.8","23","<p><img class= 'stimulus' src='images/baseline/house1.jpg'></img></p>","null","","1550540063589","6","","","","","",""
"null","","html-keyboard-response","165","2702967","0.0-6.0-7.8","23","<p><img class= 'stimulus' src='images/baseline/04085v.jpg'></img></p>","null","","1550540063689","","","","","","",""
"null","","html-keyboard-response","166","2703066","0.0-6.0-8.8","23","<p><img class= 'stimulus' src='images/baseline/house3.jpg'></img></p>","null","","1550540063789","8","","","","","",""
"null","","html-keyboard-response","167","2703167","0.0-6.0-9.8","23","<p><img class= 'stimulus' src='images/baseline/pexels-photo-541101.jpeg'></img></p>","null","","1550540063889","","","","","","",""
"null","","html-keyboard-response","168","2703268","0.0-6.0-10.8","23","<p><img class= 'stimulus' src='images/baseline/02945v.jpg'></img></p>","null","","1550540063988","","","","","","",""
"null","","html-keyboard-response","169","2703367","0.0-6.0-11.8","23","<p><img class= 'stimulus' src='images/baseline/landscape17.jpg'></img></p>","null","","1550540064089","","","","","","",""
"null","","html-keyboard-response","170","2703467","0.0-6.0-12.8","23","<p><img class= 'stimulus' src='images/target/landscape_1.jpg'></img></p>","null","","1550540064189","12","","","","","",""
"null","","html-keyboard-response","171","2703566","0.0-6.0-13.8","23","<p><img class= 'stimulus' src='images/baseline/house2.jpg'></img></p>","null","","1550540064288","","","","","","",""
"null","","html-keyboard-response","172","2703667","0.0-6.0-14.8","23","<p><img class= 'stimulus' src='images/baseline/flooded-bridge.jpg'></img></p>","null","","1550540064389","14","","","","","",""
"null","","html-keyboard-response","173","2703767","0.0-6.0-15.8","23","<p><img class= 'stimulus' src='images/baseline/Lake 3.jpg'></img></p>","null","","1550540064490","","","","","","",""
"null","","html-keyboard-response","174","2703866","0.0-6.0-16.8","23","<p><img class= 'stimulus' src='images/baseline/03098v.jpg'></img></p>","null","","1550540064590","","","","","","",""
"null","","html-keyboard-response","175","2703983","0.0-6.0-17.8","23","<p><img class= 'stimulus' src='images/baseline/building6.jpg'></img></p>","null","","1550540064689","","","","","","",""
"1743.4000000031665","","html-button-response","176","2706732","0.0-6.0-18.8","23","<div class = ""response_question"">WAS THE IMAGE ROTATED...</div>","","3","","","4","8","bas","right","practice","true"
"2894.1999999987893","","html-button-response","177","2709628","0.0-6.0-0.9","23","","","0","","","","","","","",""
"null","","html-keyboard-response","178","2709700","0.0-6.0-1.9","23","<p><img class= 'stimulus' src='images/baseline/03204v.jpg'></img></p>","null","","1550540070422","","","","","","",""
"null","","html-keyboard-response","179","2709801","0.0-6.0-2.9","23","<p><img class= 'stimulus' src='images/baseline/Paysage_karabagh_02.jpg'></img></p>","null","","1550540070522","","","","","","",""
"null","","html-keyboard-response","180","2709900","0.0-6.0-3.9","23","<p><img class= 'stimulus' src='images/baseline/seoul-410266_1920.jpg'></img></p>","null","","1550540070623","","","","","","",""
"null","","html-keyboard-response","181","2710000","0.0-6.0-4.9","23","<p><img class= 'stimulus' src='images/baseline/Path 1.jpg'></img></p>","null","","1550540070722","4","","","","","",""
"null","","html-keyboard-response","182","2710100","0.0-6.0-5.9","23","<p><img class= 'stimulus' src='images/baseline/03180v.jpg'></img></p>","null","","1550540070822","","","","","","",""
"null","","html-keyboard-response","183","2710201","0.0-6.0-6.9","23","<p><img class= 'stimulus left-rotate' src='images/target/buildin.png'></img></p>","null","","1550540070922","6","","","","","",""
"null","","html-keyboard-response","184","2710300","0.0-6.0-7.9","23","<p><img class= 'stimulus' src='images/baseline/building5.jpg'></img></p>","null","","1550540071023","","","","","","",""
"null","","html-keyboard-response","185","2710400","0.0-6.0-8.9","23","<p><img class= 'stimulus' src='images/baseline/farmhouse11.jpg'></img></p>","null","","1550540071123","8","","","","","",""
"null","","html-keyboard-response","186","2710501","0.0-6.0-9.9","23","<p><img class= 'stimulus' src='images/baseline/02962v.jpg'></img></p>","null","","1550540071223","","","","","","",""
"null","","html-keyboard-response","187","2710600","0.0-6.0-10.9","23","<p><img class= 'stimulus' src='images/baseline/Desert_View_Indian_Wells.jpg'></img></p>","null","","1550540071323","","","","","","",""
"null","","html-keyboard-response","188","2710700","0.0-6.0-11.9","23","<p><img class= 'stimulus' src='images/baseline/pexels-photo-1837621.jpeg'></img></p>","null","","1550540071423","","","","","","",""
"null","","html-keyboard-response","189","2710801","0.0-6.0-12.9","23","<p><img class= 'stimulus' src='images/baseline/Bridge 1.jpg'></img></p>","null","","1550540071523","12","","","","","",""
"null","","html-keyboard-response","190","2710900","0.0-6.0-13.9","23","<p><img class= 'stimulus' src='images/baseline/03217v.jpg'></img></p>","null","","1550540071622","","","","","","",""
"null","","html-keyboard-response","191","2711000","0.0-6.0-14.9","23","<p><img class= 'stimulus' src='images/baseline/Beach 8.jpg'></img></p>","null","","1550540071723","14","","","","","",""
"null","","html-keyboard-response","192","2711100","0.0-6.0-15.9","23","<p><img class= 'stimulus' src='images/baseline/farmhouse8.jpg'></img></p>","null","","1550540071823","","","","","","",""
"null","","html-keyboard-response","193","2711200","0.0-6.0-16.9","23","<p><img class= 'stimulus' src='images/baseline/Street 2.jpg'></img></p>","null","","1550540071923","","","","","","",""
"null","","html-keyboard-response","194","2711317","0.0-6.0-17.9","23","<p><img class= 'stimulus' src='images/baseline/red-rocks-park.jpg'></img></p>","null","","1550540072023","","","","","","",""
"1415.7000000011176","","html-button-response","195","2713747","0.0-6.0-18.9","23","<div class = ""response_question"">WAS THE IMAGE ROTATED...</div>","","0","","","4","2","bas","left","practice","true"
"2166.4999999990687","","html-button-response","196","2715915","0.0-6.0-0.10","23","","","0","","","","","","","",""
"null","","html-keyboard-response","197","2716001","0.0-6.0-1.10","23","<p><img class= 'stimulus' src='images/baseline/pexels-photo-59321.jpeg'></img></p>","null","","1550540076722","","","","","","",""
"null","","html-keyboard-response","198","2716100","0.0-6.0-2.10","23","<p><img class= 'stimulus' src='images/baseline/Nature 2.jpg'></img></p>","null","","1550540076824","","","","","","",""
"null","","html-keyboard-response","199","2716200","0.0-6.0-3.10","23","<p><img class= 'stimulus' src='images/baseline/pexels-photo-894312.jpeg'></img></p>","null","","1550540076923","","","","","","",""
"null","","html-keyboard-response","200","2716300","0.0-6.0-4.10","23","<p><img class= 'stimulus' src='images/baseline/dirt-road-or-trail-through-park.jpg'></img></p>","null","","1550540077022","4","","","","","",""
"null","","html-keyboard-response","201","2716400","0.0-6.0-5.10","23","<p><img class= 'stimulus' src='images/baseline/chicago-skyline-at-night-1476869511p8U.jpg'></img></p>","null","","1550540077122","","","","","","",""
"null","","html-keyboard-response","202","2716500","0.0-6.0-6.10","23","<p><img class= 'stimulus' src='images/baseline/architecture-956332_1280.jpg'></img></p>","null","","1550540077222","6","","","","","",""
"null","","html-keyboard-response","203","2716601","0.0-6.0-7.10","23","<p><img class= 'stimulus' src='images/baseline/Sailing 3.jpg'></img></p>","null","","1550540077323","","","","","","",""
"null","","html-keyboard-response","204","2716701","0.0-6.0-8.10","23","<p><img class= 'stimulus left-rotate' src='images/target/tree_1.jpg'></img></p>","null","","1550540077423","8","","","","","",""
"null","","html-keyboard-response","205","2716800","0.0-6.0-9.10","23","<p><img class= 'stimulus' src='images/baseline/03045v.jpg'></img></p>","null","","1550540077523","","","","","","",""
"null","","html-keyboard-response","206","2716900","0.0-6.0-10.10","23","<p><img class= 'stimulus' src='images/baseline/05131v.jpg'></img></p>","null","","1550540077622","","","","","","",""
"null","","html-keyboard-response","207","2717000","0.0-6.0-11.10","23","<p><img class= 'stimulus' src='images/baseline/05203v.jpg'></img></p>","null","","1550540077723","","","","","","",""
"null","","html-keyboard-response","208","2717101","0.0-6.0-12.10","23","<p><img class= 'stimulus' src='images/baseline/cyrillic.jpg'></img></p>","null","","1550540077823","12","","","","","",""
"null","","html-keyboard-response","209","2717200","0.0-6.0-13.10","23","<p><img class= 'stimulus' src='images/baseline/valley 2.jpg'></img></p>","null","","1550540077924","","","","","","",""
"null","","html-keyboard-response","210","2717300","0.0-6.0-14.10","23","<p><img class= 'stimulus' src='images/baseline/04014v.jpg'></img></p>","null","","1550540078023","14","","","","","",""
"null","","html-keyboard-response","211","2717400","0.0-6.0-15.10","23","<p><img class= 'stimulus' src='images/baseline/landscape6.jpg'></img></p>","null","","1550540078123","","","","","","",""
"null","","html-keyboard-response","212","2717500","0.0-6.0-16.10","23","<p><img class= 'stimulus' src='images/baseline/04098v.jpg'></img></p>","null","","1550540078223","","","","","","",""
"null","","html-keyboard-response","213","2717617","0.0-6.0-17.10","23","<p><img class= 'stimulus' src='images/baseline/building16.jpg'></img></p>","null","","1550540078324","","","","","","",""
"1351.5999999977648","","html-button-response","214","2719972","0.0-6.0-18.10","23","<div class = ""response_question"">WAS THE IMAGE ROTATED...</div>","","0","","","6","2","bas","left","practice","true"
"2614.600000000559","","html-button-response","215","2722588","0.0-6.0-0.11","23","","","0","","","","","","","",""
"null","","html-keyboard-response","216","2722667","0.0-6.0-1.11","23","<p><img class= 'stimulus' src='images/baseline/landscape36.jpg'></img></p>","null","","1550540083388","","","","","","",""
"null","","html-keyboard-response","217","2722767","0.0-6.0-2.11","23","<p><img class= 'stimulus' src='images/baseline/Lake 9.jpg'></img></p>","null","","1550540083489","","","","","","",""
"null","","html-keyboard-response","218","2722867","0.0-6.0-3.11","23","<p><img class= 'stimulus' src='images/baseline/landscape11.jpg'></img></p>","null","","1550540083589","","","","","","",""
"null","","html-keyboard-response","219","2722967","0.0-6.0-4.11","23","<p><img class= 'stimulus' src='images/baseline/99_-_Machu_Picchu_-_Juin_2009.edit3.jpg'></img></p>","null","","1550540083689","4","","","","","",""
"null","","html-keyboard-response","220","2723066","0.0-6.0-5.11","23","<p><img class= 'stimulus' src='images/baseline/Lake 14.jpg'></img></p>","null","","1550540083790","","","","","","",""
"null","","html-keyboard-response","221","2723167","0.0-6.0-6.11","23","<p><img class= 'stimulus' src='images/baseline/autumn-in-red-rocks-park.jpg'></img></p>","null","","1550540083889","6","","","","","",""
"null","","html-keyboard-response","222","2723268","0.0-6.0-7.11","23","<p><img class= 'stimulus' src='images/baseline/03220v.jpg'></img></p>","null","","1550540083990","","","","","","",""
"null","","html-keyboard-response","223","2723366","0.0-6.0-8.11","23","<p><img class= 'stimulus' src='images/baseline/Street 3.jpg'></img></p>","null","","1550540084090","8","","","","","",""
"null","","html-keyboard-response","224","2723467","0.0-6.0-9.11","23","<p><img class= 'stimulus' src='images/baseline/04196v.jpg'></img></p>","null","","1550540084189","","","","","","",""
"null","","html-keyboard-response","225","2723567","0.0-6.0-10.11","23","<p><img class= 'stimulus' src='images/baseline/05186v.jpg'></img></p>","null","","1550540084289","","","","","","",""
"null","","html-keyboard-response","226","2723667","0.0-6.0-11.11","23","<p><img class= 'stimulus' src='images/baseline/field 3.jpg'></img></p>","null","","1550540084390","","","","","","",""
"null","","html-keyboard-response","227","2723767","0.0-6.0-12.11","23","<p><img class= 'stimulus' src='images/baseline/Beach 2.jpg'></img></p>","null","","1550540084489","12","","","","","",""
"null","","html-keyboard-response","228","2723867","0.0-6.0-13.11","23","<p><img class= 'stimulus' src='images/baseline/05292v.jpg'></img></p>","null","","1550540084588","","","","","","",""
"null","","html-keyboard-response","229","2723967","0.0-6.0-14.11","23","<p><img class= 'stimulus' src='images/target/specphotops-563427-unsplash.jpg'></img></p>","null","","1550540084690","14","","","","","",""
"null","","html-keyboard-response","230","2724068","0.0-6.0-15.11","23","<p><img class= 'stimulus' src='images/baseline/04130v.jpg'></img></p>","null","","1550540084789","","","","","","",""
"null","","html-keyboard-response","231","2724167","0.0-6.0-16.11","23","<p><img class= 'stimulus' src='images/baseline/pexels-photo-351264.jpeg'></img></p>","null","","1550540084889","","","","","","",""
"null","","html-keyboard-response","232","2724283","0.0-6.0-17.11","23","<p><img class= 'stimulus' src='images/baseline/Lake 15.jpg'></img></p>","null","","1550540084989","","","","","","",""
"1210.8999999985099","","html-button-response","233","2726504","0.0-6.0-18.11","23","<div class = ""response_question"">WAS THE IMAGE ROTATED...</div>","","3","","","6","8","bas","right","practice","true"
"902.2999999979511","","html-button-response","234","2727408","0.0-6.0-0.12","23","","","0","","","","","","","",""
"null","","html-keyboard-response","235","2727480","0.0-6.0-1.12","23","<p><img class= 'stimulus' src='images/baseline/Skyscraper 2.jpg'></img></p>","null","","1550540088202","","","","","","",""
"null","","html-keyboard-response","236","2727580","0.0-6.0-2.12","23","<p><img class= 'stimulus' src='images/baseline/farmhouse7.jpg'></img></p>","null","","1550540088302","","","","","","",""
"null","","html-keyboard-response","237","2727680","0.0-6.0-3.12","23","<p><img class= 'stimulus' src='images/baseline/Dock 1.jpg'></img></p>","null","","1550540088402","","","","","","",""
"null","","html-keyboard-response","238","2727781","0.0-6.0-4.12","23","<p><img class= 'stimulus' src='images/baseline/landscape7.jpg'></img></p>","null","","1550540088502","4","","","","","",""
"null","","html-keyboard-response","239","2727880","0.0-6.0-5.12","23","<p><img class= 'stimulus' src='images/baseline/town-square-in-wroclaw-1539098440MZy.jpg'></img></p>","null","","1550540088603","","","","","","",""
"null","","html-keyboard-response","240","2727980","0.0-6.0-6.12","23","<p><img class= 'stimulus' src='images/baseline/lake3.jpg'></img></p>","null","","1550540088702","6","","","","","",""
"null","","html-keyboard-response","241","2728080","0.0-6.0-7.12","23","<p><img class= 'stimulus' src='images/baseline/Niinsaare_jarv.jpg'></img></p>","null","","1550540088802","","","","","","",""
"null","","html-keyboard-response","242","2728180","0.0-6.0-8.12","23","<p><img class= 'stimulus' src='images/baseline/landscape40.jpg'></img></p>","null","","1550540088902","8","","","","","",""
"null","","html-keyboard-response","243","2728280","0.0-6.0-9.12","23","<p><img class= 'stimulus' src='images/baseline/Skijump 1.jpg'></img></p>","null","","1550540089003","","","","","","",""
"null","","html-keyboard-response","244","2728380","0.0-6.0-10.12","23","<p><img class= 'stimulus' src='images/baseline/Lake 16.jpg'></img></p>","null","","1550540089101","","","","","","",""
"null","","html-keyboard-response","245","2728480","0.0-6.0-11.12","23","<p><img class= 'stimulus' src='images/baseline/Street 4.jpg'></img></p>","null","","1550540089202","","","","","","",""
"null","","html-keyboard-response","246","2728580","0.0-6.0-12.12","23","<p><img class= 'stimulus left-rotate' src='images/target/transamerica-pyramid-530061_640.jpg'></img></p>","null","","1550540089303","12","","","","","",""
"null","","html-keyboard-response","247","2728680","0.0-6.0-13.12","23","<p><img class= 'stimulus' src='images/baseline/landscape33.jpg'></img></p>","null","","1550540089402","","","","","","",""
"null","","html-keyboard-response","248","2728780","0.0-6.0-14.12","23","<p><img class= 'stimulus' src='images/baseline/Sunset 4.jpg'></img></p>","null","","1550540089502","14","","","","","",""
"null","","html-keyboard-response","249","2728879","0.0-6.0-15.12","23","<p><img class= 'stimulus' src='images/baseline/4k-wallpaper-agriculture-clouds-842711.jpg'></img></p>","null","","1550540089602","","","","","","",""
"null","","html-keyboard-response","250","2728980","0.0-6.0-16.12","23","<p><img class= 'stimulus' src='images/baseline/__08_-_ITALY_-_Forli_under_snow_-_winter_landscape_of_city_(christmas).jpg'></img></p>","null","","1550540089702","","","","","","",""
"null","","html-keyboard-response","251","2729097","0.0-6.0-17.12","23","<p><img class= 'stimulus' src='images/baseline/scenic-mountain-landscape.jpg'></img></p>","null","","1550540089802","","","","","","",""
"1026.3999999985099","","html-button-response","252","2731127","0.0-6.0-18.12","23","<div class = ""response_question"">WAS THE IMAGE ROTATED...</div>","","0","","","4","8","bas","left","practice","true"
"958.3999999994412","","html-button-response","253","2732087","0.0-6.0-0.13","23","","","0","","","","","","","",""
"null","","html-keyboard-response","254","2732162","0.0-6.0-1.13","23","<p><img class= 'stimulus' src='images/baseline/building9.jpg'></img></p>","null","","1550540092885","","","","","","",""
"null","","html-keyboard-response","255","2732263","0.0-6.0-2.13","23","<p><img class= 'stimulus' src='images/baseline/04158v.jpg'></img></p>","null","","1550540092985","","","","","","",""
"null","","html-keyboard-response","256","2732363","0.0-6.0-3.13","23","<p><img class= 'stimulus' src='images/baseline/landscape4.jpg'></img></p>","null","","1550540093086","","","","","","",""
"null","","html-keyboard-response","257","2732463","0.0-6.0-4.13","23","<p><img class= 'stimulus' src='images/baseline/landscape29.jpg'></img></p>","null","","1550540093186","4","","","","","",""
"null","","html-keyboard-response","258","2732563","0.0-6.0-5.13","23","<p><img class= 'stimulus' src='images/baseline/pexels-photo-221125.jpeg'></img></p>","null","","1550540093286","","","","","","",""
"null","","html-keyboard-response","259","2732663","0.0-6.0-6.13","23","<p><img class= 'stimulus' src='images/baseline/pexels-photo-1048039.jpeg'></img></p>","null","","1550540093386","6","","","","","",""
"null","","html-keyboard-response","260","2732764","0.0-6.0-7.13","23","<p><img class= 'stimulus' src='images/baseline/Sidewalk 4.jpg'></img></p>","null","","1550540093487","","","","","","",""
"null","","html-keyboard-response","261","2732863","0.0-6.0-8.13","23","<p><img class= 'stimulus' src='images/target/pexels-photo-1123982.jpeg'></img></p>","null","","1550540093585","8","","","","","",""
"null","","html-keyboard-response","262","2732963","0.0-6.0-9.13","23","<p><img class= 'stimulus' src='images/baseline/04021v.jpg'></img></p>","null","","1550540093686","","","","","","",""
"null","","html-keyboard-response","263","2733064","0.0-6.0-10.13","23","<p><img class= 'stimulus' src='images/baseline/04179v.jpg'></img></p>","null","","1550540093785","","","","","","",""
"null","","html-keyboard-response","264","2733162","0.0-6.0-11.13","23","<p><img class= 'stimulus' src='images/baseline/04063v.jpg'></img></p>","null","","1550540093886","","","","","","",""
"null","","html-keyboard-response","265","2733264","0.0-6.0-12.13","23","<p><img class= 'stimulus' src='images/baseline/farmhouse6.jpg'></img></p>","null","","1550540093987","12","","","","","",""
"null","","html-keyboard-response","266","2733363","0.0-6.0-13.13","23","<p><img class= 'stimulus' src='images/baseline/02971v.jpg'></img></p>","null","","1550540094085","","","","","","",""
"null","","html-keyboard-response","267","2733463","0.0-6.0-14.13","23","<p><img class= 'stimulus' src='images/baseline/lake 2.jpg'></img></p>","null","","1550540094186","14","","","","","",""
"null","","html-keyboard-response","268","2733563","0.0-6.0-15.13","23","<p><img class= 'stimulus' src='images/baseline/trees 23.jpg'></img></p>","null","","1550540094285","","","","","","",""
"null","","html-keyboard-response","269","2733663","0.0-6.0-16.13","23","<p><img class= 'stimulus' src='images/baseline/04010v.jpg'></img></p>","null","","1550540094385","","","","","","",""
"null","","html-keyboard-response","270","2733779","0.0-6.0-17.13","23","<p><img class= 'stimulus' src='images/baseline/farmhouse2.jpg'></img></p>","null","","1550540094486","","","","","","",""
"1269.5999999996275","","html-button-response","271","2736056","0.0-6.0-18.13","23","<div class = ""response_question"">WAS THE IMAGE ROTATED...</div>","","3","","","6","2","bas","right","practice","true"
"1982.5999999996275","","html-button-response","272","2738040","0.0-6.0-0.14","23","","","0","","","","","","","",""
"null","","html-keyboard-response","273","2738112","0.0-6.0-1.14","23","<p><img class= 'stimulus' src='images/baseline/landscape39.jpg'></img></p>","null","","1550540098835","","","","","","",""
"null","","html-keyboard-response","274","2738213","0.0-6.0-2.14","23","<p><img class= 'stimulus' src='images/baseline/architecture-1314416_1920.jpg'></img></p>","null","","1550540098937","","","","","","",""
"null","","html-keyboard-response","275","2738313","0.0-6.0-3.14","23","<p><img class= 'stimulus' src='images/baseline/snowy tree.jpg'></img></p>","null","","1550540099036","","","","","","",""
"null","","html-keyboard-response","276","2738413","0.0-6.0-4.14","23","<p><img class= 'stimulus' src='images/baseline/pexels-photo-534164.jpeg'></img></p>","null","","1550540099137","4","","","","","",""
"null","","html-keyboard-response","277","2738513","0.0-6.0-5.14","23","<p><img class= 'stimulus' src='images/baseline/04229v.jpg'></img></p>","null","","1550540099236","","","","","","",""
"null","","html-keyboard-response","278","2738613","0.0-6.0-6.14","23","<p><img class= 'stimulus' src='images/baseline/05242v.jpg'></img></p>","null","","1550540099336","6","","","","","",""
"null","","html-keyboard-response","279","2738713","0.0-6.0-7.14","23","<p><img class= 'stimulus' src='images/baseline/landscape35.jpg'></img></p>","null","","1550540099436","","","","","","",""
"null","","html-keyboard-response","280","2738815","0.0-6.0-8.14","23","<p><img class= 'stimulus' src='images/baseline/Paysage_enneige_02.jpg'></img></p>","null","","1550540099535","8","","","","","",""
"null","","html-keyboard-response","281","2738914","0.0-6.0-9.14","23","<p><img class= 'stimulus' src='images/baseline/Bahia_Onelli_Parque_Nacional_Los_Glaciares_Patagonia_Argentina_Luca_Galuzzi_2005.jpg'></img></p>","null","","1550540099635","","","","","","",""
"null","","html-keyboard-response","282","2739012","0.0-6.0-10.14","23","<p><img class= 'stimulus' src='images/baseline/farmhouse9.jpg'></img></p>","null","","1550540099736","","","","","","",""
"null","","html-keyboard-response","283","2739113","0.0-6.0-11.14","23","<p><img class= 'stimulus' src='images/baseline/04162v.jpg'></img></p>","null","","1550540099836","","","","","","",""
"null","","html-keyboard-response","284","2739214","0.0-6.0-12.14","23","<p><img class= 'stimulus' src='images/baseline/05145v.jpg'></img></p>","null","","1550540099936","12","","","","","",""
"null","","html-keyboard-response","285","2739313","0.0-6.0-13.14","23","<p><img class= 'stimulus' src='images/baseline/Cold 7.jpg'></img></p>","null","","1550540100036","","","","","","",""
"null","","html-keyboard-response","286","2739413","0.0-6.0-14.14","23","<p><img class= 'stimulus left-rotate' src='images/target/tree-740901_1280.jpg'></img></p>","null","","1550540100135","14","","","","","",""
"null","","html-keyboard-response","287","2739513","0.0-6.0-15.14","23","<p><img class= 'stimulus' src='images/baseline/landscape14.jpg'></img></p>","null","","1550540100235","","","","","","",""
"null","","html-keyboard-response","288","2739613","0.0-6.0-16.14","23","<p><img class= 'stimulus' src='images/baseline/04062v.jpg'></img></p>","null","","1550540100336","","","","","","",""
"null","","html-keyboard-response","289","2739730","0.0-6.0-17.14","23","<p><img class= 'stimulus' src='images/baseline/pexels-photo-808465.jpeg'></img></p>","null","","1550540100435","","","","","","",""
"1019.7999999984168","","html-button-response","290","2741752","0.0-6.0-18.14","23","<div class = ""response_question"">WAS THE IMAGE ROTATED...</div>","","0","","","6","8","bas","left","practice","true"
"886.9000000013039","","html-button-response","291","2742640","0.0-6.0-0.15","23","","","0","","","","","","","",""
"null","","html-keyboard-response","292","2742713","0.0-6.0-1.15","23","<p><img class= 'stimulus' src='images/baseline/road.jpg'></img></p>","null","","1550540103436","","","","","","",""
"null","","html-keyboard-response","293","2742814","0.0-6.0-2.15","23","<p><img class= 'stimulus' src='images/baseline/Nature 1.jpg'></img></p>","null","","1550540103535","","","","","","",""
"null","","html-keyboard-response","294","2742913","0.0-6.0-3.15","23","<p><img class= 'stimulus' src='images/baseline/hills 1.jpg'></img></p>","null","","1550540103636","","","","","","",""
"null","","html-keyboard-response","295","2743013","0.0-6.0-4.15","23","<p><img class= 'stimulus' src='images/baseline/pexels-photo-280222.jpeg'></img></p>","null","","1550540103736","4","","","","","",""
"null","","html-keyboard-response","296","2743114","0.0-6.0-5.15","23","<p><img class= 'stimulus' src='images/baseline/Lake 4.jpg'></img></p>","null","","1550540103835","","","","","","",""
"null","","html-keyboard-response","297","2743214","0.0-6.0-6.15","23","<p><img class= 'stimulus' src='images/target/landscape20.jpg'></img></p>","null","","1550540103935","6","","","","","",""
"null","","html-keyboard-response","298","2743313","0.0-6.0-7.15","23","<p><img class= 'stimulus' src='images/baseline/03075v.jpg'></img></p>","null","","1550540104036","","","","","","",""
"null","","html-keyboard-response","299","2743414","0.0-6.0-8.15","23","<p><img class= 'stimulus' src='images/baseline/05189v.jpg'></img></p>","null","","1550540104136","8","","","","","",""
"null","","html-keyboard-response","300","2743512","0.0-6.0-9.15","23","<p><img class= 'stimulus' src='images/baseline/agriculture-bright-clouds-440731.jpg'></img></p>","null","","1550540104235","","","","","","",""
"null","","html-keyboard-response","301","2743613","0.0-6.0-10.15","23","<p><img class= 'stimulus' src='images/baseline/house11.jpg'></img></p>","null","","1550540104337","","","","","","",""
"null","","html-keyboard-response","302","2743713","0.0-6.0-11.15","23","<p><img class= 'stimulus' src='images/baseline/landscape38.jpg'></img></p>","null","","1550540104436","","","","","","",""
"null","","html-keyboard-response","303","2743813","0.0-6.0-12.15","23","<p><img class= 'stimulus' src='images/baseline/04201v.jpg'></img></p>","null","","1550540104537","12","","","","","",""
"null","","html-keyboard-response","304","2743913","0.0-6.0-13.15","23","<p><img class= 'stimulus' src='images/baseline/pexels-photo-427676.jpeg'></img></p>","null","","1550540104635","","","","","","",""
"null","","html-keyboard-response","305","2744013","0.0-6.0-14.15","23","<p><img class= 'stimulus' src='images/baseline/landscape23.jpg'></img></p>","null","","1550540104737","14","","","","","",""
"null","","html-keyboard-response","306","2744113","0.0-6.0-15.15","23","<p><img class= 'stimulus' src='images/baseline/Bahia_Onelli_Parque_Nacional_Los_Glaciares_Patagonia_Argentina_Luca_Galuzzi_2005.jpg'></img></p>","null","","1550540104836","","","","","","",""
"null","","html-keyboard-response","307","2744213","0.0-6.0-16.15","23","<p><img class= 'stimulus' src='images/baseline/04062v.jpg'></img></p>","null","","1550540104935","","","","","","",""
"null","","html-keyboard-response","308","2744331","0.0-6.0-17.15","23","<p><img class= 'stimulus' src='images/baseline/04196v.jpg'></img></p>","null","","1550540105036","","","","","","",""
"768.9999999967404","","html-button-response","309","2746104","0.0-6.0-18.15","23","<div class = ""response_question"">WAS THE IMAGE ROTATED...</div>","","3","","","4","2","bas","right","practice","true"
"70310.40000000177","","html-button-response","310","2816419","0.0-7.0","23","<p>You have now completed the practice phase. We will now begin the real trials.         This is a reminder that you will be searching for a rotated image among the series of upright images.</p>         <p>Remember, please do not blink or move your eyes while the images are on the screen.</p>         <p>At the end of the experiment, the experimenter will be able to show you how accurate you were.</p>","","0","","","","","","","",""
"4174.9000000017695","","html-button-response","311","2820595","0.0-8.0-0.0-0.0","23","","","0","","","","","","","",""
"null","","html-keyboard-response","312","2820667","0.0-8.0-0.0-1.0","23","<p><img class= 'stimulus' src='images/baseline/04040v.jpg'></img></p>","null","","1550540181390","","","","","","",""
"null","","html-keyboard-response","313","2820768","0.0-8.0-0.0-2.0","23","<p><img class= 'stimulus' src='images/baseline/agriculture-countryside-crop-259280.jpg'></img></p>","null","","1550540181489","","","","","","",""
"null","","html-keyboard-response","314","2820868","0.0-8.0-0.0-3.0","23","<p><img class= 'stimulus' src='images/baseline/building3.jpg'></img></p>","null","","1550540181589","","","","","","",""
"null","","html-keyboard-response","315","2820968","0.0-8.0-0.0-4.0","23","<p><img class= 'stimulus' src='images/neutral/look-there-11291743948A00.jpg'></img></p>","null","","1550540181689","4","","","","","",""
"null","","html-keyboard-response","316","2821068","0.0-8.0-0.0-5.0","23","<p><img class= 'stimulus' src='images/baseline/horse_statue.jpg'></img></p>","null","","1550540181789","","","","","","",""
"null","","html-keyboard-response","317","2821169","0.0-8.0-0.0-6.0","23","<p><img class= 'stimulus' src='images/baseline/Dock 1.jpg'></img></p>","null","","1550540181890","6","","","","","",""
"null","","html-keyboard-response","318","2821268","0.0-8.0-0.0-7.0","23","<p><img class= 'stimulus' src='images/baseline/pexels-photo-808465.jpeg'></img></p>","null","","1550540181990","","","","","","",""
"null","","html-keyboard-response","319","2821367","0.0-8.0-0.0-8.0","23","<p><img class= 'stimulus' src='images/baseline/church-silhouette-8712964986014Kb.jpg'></img></p>","null","","1550540182090","8","","","","","",""
"null","","html-keyboard-response","320","2821469","0.0-8.0-0.0-9.0","23","<p><img class= 'stimulus' src='images/baseline/99_-_Machu_Picchu_-_Juin_2009.edit3.jpg'></img></p>","null","","1550540182190","","","","","","",""
"null","","html-keyboard-response","321","2821567","0.0-8.0-0.0-10.0","23","<p><img class= 'stimulus' src='images/baseline/04014v.jpg'></img></p>","null","","1550540182290","","","","","","",""
"null","","html-keyboard-response","322","2821668","0.0-8.0-0.0-11.0","23","<p><img class= 'stimulus' src='images/baseline/architecture-956332_1280.jpg'></img></p>","null","","1550540182390","","","","","","",""
"null","","html-keyboard-response","323","2821768","0.0-8.0-0.0-12.0","23","<p><img class= 'stimulus left-rotate' src='images/target/lookout_tower.jpg'></img></p>","null","","1550540182489","12","","","","","",""
"null","","html-keyboard-response","324","2821868","0.0-8.0-0.0-13.0","23","<p><img class= 'stimulus' src='images/baseline/Beach 2.jpg'></img></p>","null","","1550540182590","","","","","","",""
"null","","html-keyboard-response","325","2821967","0.0-8.0-0.0-14.0","23","<p><img class= 'stimulus' src='images/baseline/03045v.jpg'></img></p>","null","","1550540182690","14","","","","","",""
"null","","html-keyboard-response","326","2822068","0.0-8.0-0.0-15.0","23","<p><img class= 'stimulus' src='images/baseline/04193v.jpg'></img></p>","null","","1550540182790","","","","","","",""
"null","","html-keyboard-response","327","2822168","0.0-8.0-0.0-16.0","23","<p><img class= 'stimulus' src='images/baseline/pexels-photo-568236.jpeg'></img></p>","null","","1550540182890","","","","","","",""
"null","","html-keyboard-response","328","2822285","0.0-8.0-0.0-17.0","23","<p><img class= 'stimulus' src='images/baseline/landscape1.jpg'></img></p>","null","","1550540182989","","","","","","",""
"931.6000000000931","","html-button-response","329","2824219","0.0-8.0-0.0-18.0","23","<div class = ""response_question"">WAS THE IMAGE ROTATED...</div>","","0","","","4","8","neu","left","test","true"
"774.4000000017695","","html-button-response","330","2824995","0.0-8.0-0.0-0.1","23","","","0","","","","","","","",""
"null","","html-keyboard-response","331","2825068","0.0-8.0-0.0-1.1","23","<p><img class= 'stimulus' src='images/baseline/lookout_tower.jpg'></img></p>","null","","1550540185790","","","","","","",""
"null","","html-keyboard-response","332","2825168","0.0-8.0-0.0-2.1","23","<p><img class= 'stimulus' src='images/baseline/landscape2.jpg'></img></p>","null","","1550540185890","","","","","","",""
"null","","html-keyboard-response","333","2825268","0.0-8.0-0.0-3.1","23","<p><img class= 'stimulus' src='images/baseline/03063v.jpg'></img></p>","null","","1550540185991","","","","","","",""
"null","","html-keyboard-response","334","2825368","0.0-8.0-0.0-4.1","23","<p><img class= 'stimulus' src='images/baseline/field 4.jpg'></img></p>","null","","1550540186089","4","","","","","",""
"null","","html-keyboard-response","335","2825469","0.0-8.0-0.0-5.1","23","<p><img class= 'stimulus' src='images/baseline/pexels-photo-1837621.jpeg'></img></p>","null","","1550540186190","","","","","","",""
"null","","html-keyboard-response","336","2825568","0.0-8.0-0.0-6.1","23","<p><img class= 'stimulus' src='images/baseline/04098v.jpg'></img></p>","null","","1550540186290","6","","","","","",""
"null","","html-keyboard-response","337","2825668","0.0-8.0-0.0-7.1","23","<p><img class= 'stimulus' src='images/baseline/03212v.jpg'></img></p>","null","","1550540186390","","","","","","",""
"null","","html-keyboard-response","338","2825767","0.0-8.0-0.0-8.1","23","<p><img class= 'stimulus' src='images/baseline/farmhouse3.jpg'></img></p>","null","","1550540186490","8","","","","","",""
"null","","html-keyboard-response","339","2825867","0.0-8.0-0.0-9.1","23","<p><img class= 'stimulus' src='images/baseline/landscape29.jpg'></img></p>","null","","1550540186590","","","","","","",""
"null","","html-keyboard-response","340","2825968","0.0-8.0-0.0-10.1","23","<p><img class= 'stimulus' src='images/baseline/03148v.jpg'></img></p>","null","","1550540186691","","","","","","",""
"null","","html-keyboard-response","341","2826068","0.0-8.0-0.0-11.1","23","<p><img class= 'stimulus' src='images/baseline/pexels-photo-427676.jpeg'></img></p>","null","","1550540186790","","","","","","",""
"null","","html-keyboard-response","342","2826167","0.0-8.0-0.0-12.1","23","<p><img class= 'stimulus' src='images/baseline/pexels-photo-1287089.jpeg'></img></p>","null","","1550540186890","12","","","","","",""
"null","","html-keyboard-response","343","2826268","0.0-8.0-0.0-13.1","23","<p><img class= 'stimulus' src='images/baseline/pexels-photo-459203.jpeg'></img></p>","null","","1550540186990","","","","","","",""
"null","","html-keyboard-response","344","2826368","0.0-8.0-0.0-14.1","23","<p><img class= 'stimulus' src='images/baseline/snowy tree.jpg'></img></p>","null","","1550540187090","14","","","","","",""
"null","","html-keyboard-response","345","2826468","0.0-8.0-0.0-15.1","23","<p><img class= 'stimulus' src='images/baseline/05161v.jpg'></img></p>","null","","1550540187191","","","","","","",""
"null","","html-keyboard-response","346","2826568","0.0-8.0-0.0-16.1","23","<p><img class= 'stimulus' src='images/baseline/Niinsaare_jarv.jpg'></img></p>","null","","1550540187290","","","","","","",""
"null","","html-keyboard-response","347","2826685","0.0-8.0-0.0-17.1","23","<p><img class= 'stimulus' src='images/baseline/Waterfall 1.jpg'></img></p>","null","","1550540187391","","","","","","",""
"2793.799999999348","","html-button-response","348","2830484","0.0-8.0-0.0-18.1","23","<div class = ""response_question"">WAS THE IMAGE ROTATED...</div>","","5","","","null","null","null","null","test","null"
"2414.199999999255","","html-button-response","349","2832899","0.0-8.0-0.0-0.2","23","","","0","","","","","","","",""
"null","","html-keyboard-response","350","2832985","0.0-8.0-0.0-1.2","23","<p><img class= 'stimulus' src='images/baseline/Peyto_Lake-Banff_NP-Canada.jpg'></img></p>","null","","1550540193707","","","","","","",""
"null","","html-keyboard-response","351","2833085","0.0-8.0-0.0-2.2","23","<p><img class= 'stimulus' src='images/baseline/building_at_national_conservation.jpg'></img></p>","null","","1550540193809","","","","","","",""
"null","","html-keyboard-response","352","2833185","0.0-8.0-0.0-3.2","23","<p><img class= 'stimulus' src='images/baseline/farmhouse1.jpg'></img></p>","null","","1550540193907","","","","","","",""
"null","","html-keyboard-response","353","2833285","0.0-8.0-0.0-4.2","23","<p><img class= 'stimulus' src='images/baseline/landscape38.jpg'></img></p>","null","","1550540194007","4","","","","","",""
"null","","html-keyboard-response","354","2833384","0.0-8.0-0.0-5.2","23","<p><img class= 'stimulus' src='images/baseline/bird-flying-at-sunset.jpg'></img></p>","null","","1550540194107","","","","","","",""
"null","","html-keyboard-response","355","2833485","0.0-8.0-0.0-6.2","23","<p><img class= 'stimulus' src='images/negative/Car accident 3.jpg'></img></p>","null","","1550540194207","6","","","","","",""
"null","","html-keyboard-response","356","2833584","0.0-8.0-0.0-7.2","23","<p><img class= 'stimulus' src='images/baseline/sunset-over-the-lake.jpg'></img></p>","null","","1550540194308","","","","","","",""
"null","","html-keyboard-response","357","2833685","0.0-8.0-0.0-8.2","23","<p><img class= 'stimulus' src='images/target/tree-in-desert-landscape.jpg'></img></p>","null","","1550540194408","8","","","","","",""
"null","","html-keyboard-response","358","2833785","0.0-8.0-0.0-9.2","23","<p><img class= 'stimulus' src='images/baseline/Skijump 1.jpg'></img></p>","null","","1550540194506","","","","","","",""
"null","","html-keyboard-response","359","2833884","0.0-8.0-0.0-10.2","23","<p><img class= 'stimulus' src='images/baseline/sunny-landscape-with-dry-brush-and-mountain-background.jpg'></img></p>","null","","1550540194606","","","","","","",""
"null","","html-keyboard-response","360","2833985","0.0-8.0-0.0-11.2","23","<p><img class= 'stimulus' src='images/baseline/Paysage_karabagh_02.jpg'></img></p>","null","","1550540194706","","","","","","",""
"null","","html-keyboard-response","361","2834084","0.0-8.0-0.0-12.2","23","<p><img class= 'stimulus' src='images/baseline/hills 4.jpg'></img></p>","null","","1550540194807","12","","","","","",""
"null","","html-keyboard-response","362","2834185","0.0-8.0-0.0-13.2","23","<p><img class= 'stimulus' src='images/baseline/04158v.jpg'></img></p>","null","","1550540194907","","","","","","",""
"null","","html-keyboard-response","363","2834285","0.0-8.0-0.0-14.2","23","<p><img class= 'stimulus' src='images/baseline/04085v.jpg'></img></p>","null","","1550540195007","14","","","","","",""
"null","","html-keyboard-response","364","2834384","0.0-8.0-0.0-15.2","23","<p><img class= 'stimulus' src='images/baseline/Lake 14.jpg'></img></p>","null","","1550540195107","","","","","","",""
"null","","html-keyboard-response","365","2834484","0.0-8.0-0.0-16.2","23","<p><img class= 'stimulus' src='images/baseline/Sky 1.jpg'></img></p>","null","","1550540195208","","","","","","",""
"null","","html-keyboard-response","366","2834601","0.0-8.0-0.0-17.2","23","<p><img class= 'stimulus' src='images/baseline/04130v.jpg'></img></p>","null","","1550540195306","","","","","","",""
"1326.1999999997206","","html-button-response","367","2836931","0.0-8.0-0.0-18.2","23","<div class = ""response_question"">WAS THE IMAGE ROTATED...</div>","","3","","","6","2","neg","right","test","true"
"1446.2999999998137","","html-button-response","368","2838379","0.0-8.0-0.0-0.3","23","","","0","","","","","","","",""
"null","","html-keyboard-response","369","2838451","0.0-8.0-0.0-1.3","23","<p><img class= 'stimulus' src='images/baseline/river 1.jpg'></img></p>","null","","1550540199173","","","","","","",""
"null","","html-keyboard-response","370","2838552","0.0-8.0-0.0-2.3","23","<p><img class= 'stimulus' src='images/baseline/field 3.jpg'></img></p>","null","","1550540199274","","","","","","",""
"null","","html-keyboard-response","371","2838652","0.0-8.0-0.0-3.3","23","<p><img class= 'stimulus' src='images/baseline/02960v.jpg'></img></p>","null","","1550540199374","","","","","","",""
"null","","html-keyboard-response","372","2838752","0.0-8.0-0.0-4.3","23","<p><img class= 'stimulus' src='images/baseline/05131v.jpg'></img></p>","null","","1550540199474","4","","","","","",""
"null","","html-keyboard-response","373","2838851","0.0-8.0-0.0-5.3","23","<p><img class= 'stimulus' src='images/baseline/03220v.jpg'></img></p>","null","","1550540199574","","","","","","",""
"null","","html-keyboard-response","374","2838951","0.0-8.0-0.0-6.3","23","<p><img class= 'stimulus' src='images/baseline/dirt-road-or-trail-through-park.jpg'></img></p>","null","","1550540199674","6","","","","","",""
"null","","html-keyboard-response","375","2839051","0.0-8.0-0.0-7.3","23","<p><img class= 'stimulus' src='images/baseline/house2.jpg'></img></p>","null","","1550540199774","","","","","","",""
"null","","html-keyboard-response","376","2839152","0.0-8.0-0.0-8.3","23","<p><img class= 'stimulus' src='images/baseline/Beach 3.jpg'></img></p>","null","","1550540199874","8","","","","","",""
"null","","html-keyboard-response","377","2839252","0.0-8.0-0.0-9.3","23","<p><img class= 'stimulus' src='images/baseline/grand-teton-mountains.jpg'></img></p>","null","","1550540199973","","","","","","",""
"null","","html-keyboard-response","378","2839351","0.0-8.0-0.0-10.3","23","<p><img class= 'stimulus' src='images/baseline/landscape36.jpg'></img></p>","null","","1550540200074","","","","","","",""
"null","","html-keyboard-response","379","2839452","0.0-8.0-0.0-11.3","23","<p><img class= 'stimulus' src='images/baseline/Sailing 3.jpg'></img></p>","null","","1550540200175","","","","","","",""
"null","","html-keyboard-response","380","2839551","0.0-8.0-0.0-12.3","23","<p><img class= 'stimulus' src='images/baseline/landscape13.jpg'></img></p>","null","","1550540200274","12","","","","","",""
"null","","html-keyboard-response","381","2839652","0.0-8.0-0.0-13.3","23","<p><img class= 'stimulus' src='images/baseline/city-silhouette-at-sunset-871291580819Esw.jpg'></img></p>","null","","1550540200373","","","","","","",""
"null","","html-keyboard-response","382","2839752","0.0-8.0-0.0-14.3","23","<p><img class= 'stimulus' src='images/baseline/4k-wallpaper-agriculture-clouds-842711.jpg'></img></p>","null","","1550540200473","14","","","","","",""
"null","","html-keyboard-response","383","2839852","0.0-8.0-0.0-15.3","23","<p><img class= 'stimulus' src='images/baseline/landscape4.jpg'></img></p>","null","","1550540200574","","","","","","",""
"null","","html-keyboard-response","384","2839951","0.0-8.0-0.0-16.3","23","<p><img class= 'stimulus' src='images/baseline/landscape17.jpg'></img></p>","null","","1550540200675","","","","","","",""
"null","","html-keyboard-response","385","2840068","0.0-8.0-0.0-17.3","23","<p><img class= 'stimulus' src='images/baseline/meadow-with-mountain-in-background.jpg'></img></p>","null","","1550540200773","","","","","","",""
"3892.600000002887","","html-button-response","386","2844964","0.0-8.0-0.0-18.3","23","<div class = ""response_question"">WAS THE IMAGE ROTATED...</div>","","5","","","null","null","null","null","test","null"
"1934.300000000745","","html-button-response","387","2846899","0.0-8.0-0.0-0.4","23","","","0","","","","","","","",""
"null","","html-keyboard-response","388","2846984","0.0-8.0-0.0-1.4","23","<p><img class= 'stimulus' src='images/baseline/Lake 4.jpg'></img></p>","null","","1550540207707","","","","","","",""
"null","","html-keyboard-response","389","2847084","0.0-8.0-0.0-2.4","23","<p><img class= 'stimulus' src='images/baseline/03112v.jpg'></img></p>","null","","1550540207807","","","","","","",""
"null","","html-keyboard-response","390","2847184","0.0-8.0-0.0-3.4","23","<p><img class= 'stimulus' src='images/baseline/Lake 5.jpg'></img></p>","null","","1550540207908","","","","","","",""
"null","","html-keyboard-response","391","2847284","0.0-8.0-0.0-4.4","23","<p><img class= 'stimulus' src='images/baseline/Beach 8.jpg'></img></p>","null","","1550540208007","4","","","","","",""
"null","","html-keyboard-response","392","2847385","0.0-8.0-0.0-5.4","23","<p><img class= 'stimulus' src='images/baseline/02947v.jpg'></img></p>","null","","1550540208108","","","","","","",""
"null","","html-keyboard-response","393","2847484","0.0-8.0-0.0-6.4","23","<p><img class= 'stimulus' src='images/neutral/Camping 4.jpg'></img></p>","null","","1550540208208","6","","","","","",""
"null","","html-keyboard-response","394","2847585","0.0-8.0-0.0-7.4","23","<p><img class= 'stimulus' src='images/baseline/04021v.jpg'></img></p>","null","","1550540208307","","","","","","",""
"null","","html-keyboard-response","395","2847684","0.0-8.0-0.0-8.4","23","<p><img class= 'stimulus' src='images/target/cactus1.jpg'></img></p>","null","","1550540208408","8","","","","","",""
"null","","html-keyboard-response","396","2847785","0.0-8.0-0.0-9.4","23","<p><img class= 'stimulus' src='images/baseline/farmhouse2.jpg'></img></p>","null","","1550540208507","","","","","","",""
"null","","html-keyboard-response","397","2847884","0.0-8.0-0.0-10.4","23","<p><img class= 'stimulus' src='images/baseline/valley 1.jpg'></img></p>","null","","1550540208608","","","","","","",""
"null","","html-keyboard-response","398","2847984","0.0-8.0-0.0-11.4","23","<p><img class= 'stimulus' src='images/baseline/landscape35.jpg'></img></p>","null","","1550540208708","","","","","","",""
"null","","html-keyboard-response","399","2848084","0.0-8.0-0.0-12.4","23","<p><img class= 'stimulus' src='images/baseline/Sunset 3.jpg'></img></p>","null","","1550540208807","12","","","","","",""
"null","","html-keyboard-response","400","2848185","0.0-8.0-0.0-13.4","23","<p><img class= 'stimulus' src='images/baseline/foreclosed_home.jpg'></img></p>","null","","1550540208907","","","","","","",""
"null","","html-keyboard-response","401","2848285","0.0-8.0-0.0-14.4","23","<p><img class= 'stimulus' src='images/baseline/05280v.jpg'></img></p>","null","","1550540209008","14","","","","","",""
"null","","html-keyboard-response","402","2848384","0.0-8.0-0.0-15.4","23","<p><img class= 'stimulus' src='images/baseline/04063v.jpg'></img></p>","null","","1550540209106","","","","","","",""
"null","","html-keyboard-response","403","2848485","0.0-8.0-0.0-16.4","23","<p><img class= 'stimulus' src='images/baseline/pexels-photo-210617.jpeg'></img></p>","null","","1550540209207","","","","","","",""
"null","","html-keyboard-response","404","2848602","0.0-8.0-0.0-17.4","23","<p><img class= 'stimulus' src='images/baseline/pexels-photo-1048039.jpeg'></img></p>","null","","1550540209307","","","","","","",""
"1167.5000000032596","","html-button-response","405","2850780","0.0-8.0-0.0-18.4","23","<div class = ""response_question"">WAS THE IMAGE ROTATED...</div>","","3","","","6","2","neu","right","test","true"
"3830.3999999989755","","html-button-response","406","2854607","0.0-8.0-0.0-0.5","23","","","0","","","","","","","",""
"null","","html-keyboard-response","407","2854681","0.0-8.0-0.0-1.5","23","<p><img class= 'stimulus' src='images/baseline/05279v.jpg'></img></p>","null","","1550540215403","","","","","","",""
"null","","html-keyboard-response","408","2854781","0.0-8.0-0.0-2.5","23","<p><img class= 'stimulus' src='images/baseline/red rocks from afar.jpg'></img></p>","null","","1550540215503","","","","","","",""
"null","","html-keyboard-response","409","2854881","0.0-8.0-0.0-3.5","23","<p><img class= 'stimulus' src='images/baseline/pexels-photo-440731.jpeg'></img></p>","null","","1550540215604","","","","","","",""
"null","","html-keyboard-response","410","2854981","0.0-8.0-0.0-4.5","23","<p><img class= 'stimulus' src='images/baseline/04060v.jpg'></img></p>","null","","1550540215703","4","","","","","",""
"null","","html-keyboard-response","411","2855081","0.0-8.0-0.0-5.5","23","<p><img class= 'stimulus' src='images/baseline/Camping 10.jpg'></img></p>","null","","1550540215804","","","","","","",""
"null","","html-keyboard-response","412","2855181","0.0-8.0-0.0-6.5","23","<p><img class= 'stimulus' src='images/negative/Weapon 1 (1).jpg'></img></p>","null","","1550540215904","6","","","","","",""
"null","","html-keyboard-response","413","2855281","0.0-8.0-0.0-7.5","23","<p><img class= 'stimulus' src='images/baseline/building9.jpg'></img></p>","null","","1550540216004","","","","","","",""
"null","","html-keyboard-response","414","2855380","0.0-8.0-0.0-8.5","23","<p><img class= 'stimulus left-rotate' src='images/target/torrotito-375925_640.jpg'></img></p>","null","","1550540216104","8","","","","","",""
"null","","html-keyboard-response","415","2855481","0.0-8.0-0.0-9.5","23","<p><img class= 'stimulus' src='images/baseline/lone-old-cottonwood-tree.jpg'></img></p>","null","","1550540216205","","","","","","",""
"null","","html-keyboard-response","416","2855581","0.0-8.0-0.0-10.5","23","<p><img class= 'stimulus' src='images/baseline/Lake 8.jpg'></img></p>","null","","1550540216305","","","","","","",""
"null","","html-keyboard-response","417","2855680","0.0-8.0-0.0-11.5","23","<p><img class= 'stimulus' src='images/baseline/Street 5.jpg'></img></p>","null","","1550540216403","","","","","","",""
"null","","html-keyboard-response","418","2855781","0.0-8.0-0.0-12.5","23","<p><img class= 'stimulus' src='images/baseline/03114v.jpg'></img></p>","null","","1550540216502","12","","","","","",""
"null","","html-keyboard-response","419","2855881","0.0-8.0-0.0-13.5","23","<p><img class= 'stimulus' src='images/baseline/farmhouse4.jpg'></img></p>","null","","1550540216604","","","","","","",""
"null","","html-keyboard-response","420","2855981","0.0-8.0-0.0-14.5","23","<p><img class= 'stimulus' src='images/baseline/landscape12.jpg'></img></p>","null","","1550540216703","14","","","","","",""
"null","","html-keyboard-response","421","2856081","0.0-8.0-0.0-15.5","23","<p><img class= 'stimulus' src='images/baseline/hills 3.jpg'></img></p>","null","","1550540216803","","","","","","",""
"null","","html-keyboard-response","422","2856181","0.0-8.0-0.0-16.5","23","<p><img class= 'stimulus' src='images/baseline/03204v.jpg'></img></p>","null","","1550540216904","","","","","","",""
"null","","html-keyboard-response","423","2856298","0.0-8.0-0.0-17.5","23","<p><img class= 'stimulus' src='images/baseline/04229v.jpg'></img></p>","null","","1550540217003","","","","","","",""
"2920.6999999987893","","html-button-response","424","2860223","0.0-8.0-0.0-18.5","23","<div class = ""response_question"">WAS THE IMAGE ROTATED...</div>","","0","","","6","2","neg","left","test","true"
"1542.3999999985099","","html-button-response","425","2861767","0.0-8.0-0.0-0.6","23","","","0","","","","","","","",""
"null","","html-keyboard-response","426","2861848","0.0-8.0-0.0-1.6","23","<p><img class= 'stimulus' src='images/baseline/building2.jpg'></img></p>","null","","1550540222570","","","","","","",""
"null","","html-keyboard-response","427","2861948","0.0-8.0-0.0-2.6","23","<p><img class= 'stimulus' src='images/baseline/05247v.jpg'></img></p>","null","","1550540222670","","","","","","",""
"null","","html-keyboard-response","428","2862048","0.0-8.0-0.0-3.6","23","<p><img class= 'stimulus' src='images/baseline/building8.jpg'></img></p>","null","","1550540222770","","","","","","",""
"null","","html-keyboard-response","429","2862148","0.0-8.0-0.0-4.6","23","<p><img class= 'stimulus' src='images/baseline/pexels-photo-1054289.jpeg'></img></p>","null","","1550540222870","4","","","","","",""
"null","","html-keyboard-response","430","2862247","0.0-8.0-0.0-5.6","23","<p><img class= 'stimulus' src='images/baseline/Happy pose 3.jpg'></img></p>","null","","1550540222971","","","","","","",""
"null","","html-keyboard-response","431","2862347","0.0-8.0-0.0-6.6","23","<p><img class= 'stimulus' src='images/baseline/house6.jpg'></img></p>","null","","1550540223071","6","","","","","",""
"null","","html-keyboard-response","432","2862449","0.0-8.0-0.0-7.6","23","<p><img class= 'stimulus' src='images/baseline/02962v.jpg'></img></p>","null","","1550540223171","","","","","","",""
"null","","html-keyboard-response","433","2862548","0.0-8.0-0.0-8.6","23","<p><img class= 'stimulus' src='images/baseline/04284v.jpg'></img></p>","null","","1550540223271","8","","","","","",""
"null","","html-keyboard-response","434","2862647","0.0-8.0-0.0-9.6","23","<p><img class= 'stimulus' src='images/baseline/field 1.jpg'></img></p>","null","","1550540223370","","","","","","",""
"null","","html-keyboard-response","435","2862748","0.0-8.0-0.0-10.6","23","<p><img class= 'stimulus' src='images/baseline/lake 2.jpg'></img></p>","null","","1550540223469","","","","","","",""
"null","","html-keyboard-response","436","2862847","0.0-8.0-0.0-11.6","23","<p><img class= 'stimulus' src='images/baseline/05203v.jpg'></img></p>","null","","1550540223569","","","","","","",""
"null","","html-keyboard-response","437","2862948","0.0-8.0-0.0-12.6","23","<p><img class= 'stimulus' src='images/baseline/building16.jpg'></img></p>","null","","1550540223669","12","","","","","",""
"null","","html-keyboard-response","438","2863048","0.0-8.0-0.0-13.6","23","<p><img class= 'stimulus' src='images/baseline/house1.jpg'></img></p>","null","","1550540223770","","","","","","",""
"null","","html-keyboard-response","439","2863148","0.0-8.0-0.0-14.6","23","<p><img class= 'stimulus' src='images/baseline/05186v.jpg'></img></p>","null","","1550540223869","14","","","","","",""
"null","","html-keyboard-response","440","2863248","0.0-8.0-0.0-15.6","23","<p><img class= 'stimulus' src='images/baseline/Grass 6.jpg'></img></p>","null","","1550540223970","","","","","","",""
"null","","html-keyboard-response","441","2863347","0.0-8.0-0.0-16.6","23","<p><img class= 'stimulus' src='images/baseline/Skyscraper 2.jpg'></img></p>","null","","1550540224070","","","","","","",""
"null","","html-keyboard-response","442","2863464","0.0-8.0-0.0-17.6","23","<p><img class= 'stimulus' src='images/baseline/05264v.jpg'></img></p>","null","","1550540224170","","","","","","",""
"2906.2000000015832","","html-button-response","443","2867376","0.0-8.0-0.0-18.6","23","<div class = ""response_question"">WAS THE IMAGE ROTATED...</div>","","5","","","null","null","null","null","test","null"
"2366.3000000016764","","html-button-response","444","2869744","0.0-8.0-0.0-0.7","23","","","0","","","","","","","",""
"null","","html-keyboard-response","445","2869814","0.0-8.0-0.0-1.7","23","<p><img class= 'stimulus' src='images/baseline/landscape16.jpg'></img></p>","null","","1550540230537","","","","","","",""
"null","","html-keyboard-response","446","2869915","0.0-8.0-0.0-2.7","23","<p><img class= 'stimulus' src='images/baseline/03098v.jpg'></img></p>","null","","1550540230637","","","","","","",""
"null","","html-keyboard-response","447","2870015","0.0-8.0-0.0-3.7","23","<p><img class= 'stimulus' src='images/baseline/landscape6.jpg'></img></p>","null","","1550540230737","","","","","","",""
"null","","html-keyboard-response","448","2870115","0.0-8.0-0.0-4.7","23","<p><img class= 'stimulus' src='images/baseline/agriculture-cereal-clouds-175389.jpg'></img></p>","null","","1550540230837","4","","","","","",""
"null","","html-keyboard-response","449","2870214","0.0-8.0-0.0-5.7","23","<p><img class= 'stimulus' src='images/baseline/Kocherbaumwald-01.jpg'></img></p>","null","","1550540230936","","","","","","",""
"null","","html-keyboard-response","450","2870315","0.0-8.0-0.0-6.7","23","<p><img class= 'stimulus' src='images/neutral/thailand-girl.jpg'></img></p>","null","","1550540231036","6","","","","","",""
"null","","html-keyboard-response","451","2870415","0.0-8.0-0.0-7.7","23","<p><img class= 'stimulus' src='images/baseline/03056v.jpg'></img></p>","null","","1550540231136","","","","","","",""
"null","","html-keyboard-response","452","2870514","0.0-8.0-0.0-8.7","23","<p><img class= 'stimulus' src='images/baseline/05167v.jpg'></img></p>","null","","1550540231236","8","","","","","",""
"null","","html-keyboard-response","453","2870615","0.0-8.0-0.0-9.7","23","<p><img class= 'stimulus' src='images/baseline/cranes 1.jpg'></img></p>","null","","1550540231336","","","","","","",""
"null","","html-keyboard-response","454","2870715","0.0-8.0-0.0-10.7","23","<p><img class= 'stimulus' src='images/baseline/05292v.jpg'></img></p>","null","","1550540231436","","","","","","",""
"null","","html-keyboard-response","455","2870814","0.0-8.0-0.0-11.7","23","<p><img class= 'stimulus' src='images/baseline/pexels-photo-414491.jpeg'></img></p>","null","","1550540231537","","","","","","",""
"null","","html-keyboard-response","456","2870914","0.0-8.0-0.0-12.7","23","<p><img class= 'stimulus' src='images/baseline/landscape33.jpg'></img></p>","null","","1550540231637","12","","","","","",""
"null","","html-keyboard-response","457","2871015","0.0-8.0-0.0-13.7","23","<p><img class= 'stimulus' src='images/baseline/landscape3.jpg'></img></p>","null","","1550540231737","","","","","","",""
"null","","html-keyboard-response","458","2871114","0.0-8.0-0.0-14.7","23","<p><img class= 'stimulus left-rotate' src='images/target/mexico_tower_latin_american.jpg'></img></p>","null","","1550540231837","14","","","","","",""
"null","","html-keyboard-response","459","2871215","0.0-8.0-0.0-15.7","23","<p><img class= 'stimulus' src='images/baseline/02971v.jpg'></img></p>","null","","1550540231938","","","","","","",""
"null","","html-keyboard-response","460","2871315","0.0-8.0-0.0-16.7","23","<p><img class= 'stimulus' src='images/baseline/04162v.jpg'></img></p>","null","","1550540232036","","","","","","",""
"null","","html-keyboard-response","461","2871431","0.0-8.0-0.0-17.7","23","<p><img class= 'stimulus' src='images/baseline/pexels-photo-894312.jpeg'></img></p>","null","","1550540232136","","","","","","",""
"1594.300000000745","","html-button-response","462","2874031","0.0-8.0-0.0-18.7","23","<div class = ""response_question"">WAS THE IMAGE ROTATED...</div>","","0","","","6","8","neu","left","test","true"
"2798.600000001956","","html-button-response","463","2876832","0.0-8.0-0.0-0.8","23","","","0","","","","","","","",""
"null","","html-keyboard-response","464","2876915","0.0-8.0-0.0-1.8","23","<p><img class= 'stimulus' src='images/baseline/Street 4.jpg'></img></p>","null","","1550540237638","","","","","","",""
"null","","html-keyboard-response","465","2877015","0.0-8.0-0.0-2.8","23","<p><img class= 'stimulus' src='images/baseline/02988v.jpg'></img></p>","null","","1550540237738","","","","","","",""
"null","","html-keyboard-response","466","2877115","0.0-8.0-0.0-3.8","23","<p><img class= 'stimulus' src='images/baseline/05179v.jpg'></img></p>","null","","1550540237837","","","","","","",""
"null","","html-keyboard-response","467","2877215","0.0-8.0-0.0-4.8","23","<p><img class= 'stimulus' src='images/neutral/swan.jpg'></img></p>","null","","1550540237937","4","","","","","",""
"null","","html-keyboard-response","468","2877316","0.0-8.0-0.0-5.8","23","<p><img class= 'stimulus' src='images/baseline/03066v.jpg'></img></p>","null","","1550540238039","","","","","","",""
"null","","html-keyboard-response","469","2877416","0.0-8.0-0.0-6.8","23","<p><img class= 'stimulus' src='images/target/dreifaltigkeitskirche_sandhausen_837699.jpg'></img></p>","null","","1550540238138","6","","","","","",""
"null","","html-keyboard-response","470","2877514","0.0-8.0-0.0-7.8","23","<p><img class= 'stimulus' src='images/baseline/Bridge 1.jpg'></img></p>","null","","1550540238238","","","","","","",""
"null","","html-keyboard-response","471","2877615","0.0-8.0-0.0-8.8","23","<p><img class= 'stimulus' src='images/baseline/03075v.jpg'></img></p>","null","","1550540238338","8","","","","","",""
"null","","html-keyboard-response","472","2877715","0.0-8.0-0.0-9.8","23","<p><img class= 'stimulus' src='images/baseline/kokkari-1523011968Xfr.jpg'></img></p>","null","","1550540238438","","","","","","",""
"null","","html-keyboard-response","473","2877815","0.0-8.0-0.0-10.8","23","<p><img class= 'stimulus' src='images/baseline/house8.jpg'></img></p>","null","","1550540238538","","","","","","",""
"null","","html-keyboard-response","474","2877915","0.0-8.0-0.0-11.8","23","<p><img class= 'stimulus' src='images/baseline/building6.jpg'></img></p>","null","","1550540238637","","","","","","",""
"null","","html-keyboard-response","475","2878015","0.0-8.0-0.0-12.8","23","<p><img class= 'stimulus' src='images/baseline/03201v.jpg'></img></p>","null","","1550540238737","12","","","","","",""
"null","","html-keyboard-response","476","2878116","0.0-8.0-0.0-13.8","23","<p><img class= 'stimulus' src='images/baseline/pexels-photo-259280.jpeg'></img></p>","null","","1550540238837","","","","","","",""
"null","","html-keyboard-response","477","2878215","0.0-8.0-0.0-14.8","23","<p><img class= 'stimulus' src='images/baseline/02982v.jpg'></img></p>","null","","1550540238937","14","","","","","",""
"null","","html-keyboard-response","478","2878314","0.0-8.0-0.0-15.8","23","<p><img class= 'stimulus' src='images/baseline/Lake 3.jpg'></img></p>","null","","1550540239038","","","","","","",""
"null","","html-keyboard-response","479","2878414","0.0-8.0-0.0-16.8","23","<p><img class= 'stimulus' src='images/baseline/pexels-photo-221125.jpeg'></img></p>","null","","1550540239137","","","","","","",""
"null","","html-keyboard-response","480","2878532","0.0-8.0-0.0-17.8","23","<p><img class= 'stimulus' src='images/baseline/house3.jpg'></img></p>","null","","1550540239236","","","","","","",""
"1062.7000000025146","","html-button-response","481","2880600","0.0-8.0-0.0-18.8","23","<div class = ""response_question"">WAS THE IMAGE ROTATED...</div>","","4","","","4","2","neu","right","test","true"
"1334.2999999988824","","html-button-response","482","2881936","0.0-8.0-0.0-0.9","23","","","0","","","","","","","",""
"null","","html-keyboard-response","483","2882015","0.0-8.0-0.0-1.9","23","<p><img class= 'stimulus' src='images/baseline/05240v.jpg'></img></p>","null","","1550540242738","","","","","","",""
"null","","html-keyboard-response","484","2882115","0.0-8.0-0.0-2.9","23","<p><img class= 'stimulus' src='images/baseline/house7.jpg'></img></p>","null","","1550540242837","","","","","","",""
"null","","html-keyboard-response","485","2882214","0.0-8.0-0.0-3.9","23","<p><img class= 'stimulus' src='images/baseline/04117v.jpg'></img></p>","null","","1550540242937","","","","","","",""
"null","","html-keyboard-response","486","2882314","0.0-8.0-0.0-4.9","23","<p><img class= 'stimulus' src='images/baseline/pexels-photo-1261728.jpeg'></img></p>","null","","1550540243037","4","","","","","",""
"null","","html-keyboard-response","487","2882415","0.0-8.0-0.0-5.9","23","<p><img class= 'stimulus' src='images/baseline/red-rocks-park.jpg'></img></p>","null","","1550540243138","","","","","","",""
"null","","html-keyboard-response","488","2882514","0.0-8.0-0.0-6.9","23","<p><img class= 'stimulus' src='images/neutral/ostrich.jpg'></img></p>","null","","1550540243238","6","","","","","",""
"null","","html-keyboard-response","489","2882615","0.0-8.0-0.0-7.9","23","<p><img class= 'stimulus' src='images/baseline/Paysage_enneige_02.jpg'></img></p>","null","","1550540243338","","","","","","",""
"null","","html-keyboard-response","490","2882715","0.0-8.0-0.0-8.9","23","<p><img class= 'stimulus' src='images/baseline/building12.jpg'></img></p>","null","","1550540243437","8","","","","","",""
"null","","html-keyboard-response","491","2882815","0.0-8.0-0.0-9.9","23","<p><img class= 'stimulus' src='images/baseline/hiking-trail.jpg'></img></p>","null","","1550540243537","","","","","","",""
"null","","html-keyboard-response","492","2882915","0.0-8.0-0.0-10.9","23","<p><img class= 'stimulus' src='images/baseline/Lake 16.jpg'></img></p>","null","","1550540243637","","","","","","",""
"null","","html-keyboard-response","493","2883015","0.0-8.0-0.0-11.9","23","<p><img class= 'stimulus' src='images/baseline/Lake 9.jpg'></img></p>","null","","1550540243737","","","","","","",""
"null","","html-keyboard-response","494","2883114","0.0-8.0-0.0-12.9","23","<p><img class= 'stimulus' src='images/baseline/03162v.jpg'></img></p>","null","","1550540243838","12","","","","","",""
"null","","html-keyboard-response","495","2883215","0.0-8.0-0.0-13.9","23","<p><img class= 'stimulus' src='images/baseline/Nature 2.jpg'></img></p>","null","","1550540243937","","","","","","",""
"null","","html-keyboard-response","496","2883314","0.0-8.0-0.0-14.9","23","<p><img class= 'stimulus left-rotate' src='images/target/shotstash_0036-1-1100x734.jpg'></img></p>","null","","1550540244037","14","","","","","",""
"null","","html-keyboard-response","497","2883415","0.0-8.0-0.0-15.9","23","<p><img class= 'stimulus' src='images/baseline/Dirt 2.jpg'></img></p>","null","","1550540244137","","","","","","",""
"null","","html-keyboard-response","498","2883515","0.0-8.0-0.0-16.9","23","<p><img class= 'stimulus' src='images/baseline/cyrillic.jpg'></img></p>","null","","1550540244238","","","","","","",""
"null","","html-keyboard-response","499","2883631","0.0-8.0-0.0-17.9","23","<p><img class= 'stimulus' src='images/baseline/Street 2.jpg'></img></p>","null","","1550540244337","","","","","","",""
"3164.0000000009313","","html-button-response","500","2887800","0.0-8.0-0.0-18.9","23","<div class = ""response_question"">WAS THE IMAGE ROTATED...</div>","","1","","","6","8","neu","left","test","true"
"2430.5999999996275","","html-button-response","501","2890231","0.0-8.0-0.0-0.10","23","","","0","","","","","","","",""
"null","","html-keyboard-response","502","2890315","0.0-8.0-0.0-1.10","23","<p><img class= 'stimulus' src='images/baseline/building5.jpg'></img></p>","null","","1550540251036","","","","","","",""
"null","","html-keyboard-response","503","2890415","0.0-8.0-0.0-2.10","23","<p><img class= 'stimulus' src='images/baseline/05303v.jpg'></img></p>","null","","1550540251138","","","","","","",""
"null","","html-keyboard-response","504","2890515","0.0-8.0-0.0-3.10","23","<p><img class= 'stimulus' src='images/baseline/05242v.jpg'></img></p>","null","","1550540251237","","","","","","",""
"null","","html-keyboard-response","505","2890615","0.0-8.0-0.0-4.10","23","<p><img class= 'stimulus' src='images/baseline/04064v.jpg'></img></p>","null","","1550540251337","4","","","","","",""
"null","","html-keyboard-response","506","2890714","0.0-8.0-0.0-5.10","23","<p><img class= 'stimulus' src='images/baseline/02945v.jpg'></img></p>","null","","1550540251437","","","","","","",""
"null","","html-keyboard-response","507","2890815","0.0-8.0-0.0-6.10","23","<p><img class= 'stimulus' src='images/negative/Spider 2.jpg'></img></p>","null","","1550540251538","6","","","","","",""
