"rt","responses","trial_type","trial_index","time_elapsed","internal_node_id","participant_id","stimulus","key_press","button_pressed","stim_onset","sequence_position","distractor_position","target_lag","distractor_type","target_orientation","phase","correct"
"46148.59999999999","{""Q0"":""COGS219_2019_06""}","survey-text","0","46153","0.0-0.0","COGS219_2019_06","","","","","","","","","","",""
"3078262.7","","html-keyboard-response","1","3124426","0.0-1.0","COGS219_2019_06","Welcome to the experiment.","67","","","","","","","","",""
"15272.099999999627","","html-button-response","2","3139697","0.0-2.0","COGS219_2019_06","<p>Several images will be presented sequentially.        Each image will only be on the screen for about 100 milliseconds.</p>        <p> One of the images may be rotated 90 degrees right or left.        Watch for this image and remember if it is rotated right or left.</p>               <p>Images of people and animals will appear, and sometimes they will be unpleasant.        These will never be the rotated target image.</p>","","0","","","","","","","",""
"4014.0999999996275","","html-button-response","3","3143713","0.0-3.0","COGS219_2019_06","<p><img class=""stimulus left-rotate"" src=""images/target/specphotops-563427-unsplash.jpg""></img></p><p>This is an example of an image rotated to the left.</p>","","0","","","","","","","",""
"2110.7000000001863","","html-button-response","4","3145825","0.0-4.0","COGS219_2019_06","<p><img class=""stimulus"" src=""images/target/oak-1913194_640.jpg""></img></p><p>This is an example of an image rotated to the right.</p>","","0","","","","","","","",""
"24263.100000000093","","html-button-response","5","3170089","0.0-5.0","COGS219_2019_06","<p>We will now begin a short practice session.</p>         <p>A + symbol will appear in the middle of the screen. Please fix your gaze on the center of the +, and then click the mouse button to begin the image sequence.</p>         <p>Please avoid blinking or eye movements while the images are on the screen.</p>        <p>The image sequence will start relatively slow. After a few sequences, it will speed up.</p>","","0","","","","","","","",""
"12502.600000000559","","html-button-response","6","3182593","0.0-6.0-0.0","COGS219_2019_06","","","0","","","","","","","",""
"null","","html-keyboard-response","7","3182778","0.0-6.0-1.0","COGS219_2019_06","<p><img class= 'stimulus' src='images/baseline/pexels-photo-808465.jpeg'></img></p>","null","","1549640952833","","","","","","",""
"null","","html-keyboard-response","8","3182978","0.0-6.0-2.0","COGS219_2019_06","<p><img class= 'stimulus' src='images/baseline/church-silhouette-8712964986014Kb.jpg'></img></p>","null","","1549640953033","","","","","","",""
"null","","html-keyboard-response","9","3183178","0.0-6.0-3.0","COGS219_2019_06","<p><img class= 'stimulus' src='images/baseline/river 1.jpg'></img></p>","null","","1549640953233","","","","","","",""
"null","","html-keyboard-response","10","3183377","0.0-6.0-4.0","COGS219_2019_06","<p><img class= 'stimulus' src='images/baseline/04196v.jpg'></img></p>","null","","1549640953434","4","","","","","",""
"null","","html-keyboard-response","11","3183577","0.0-6.0-5.0","COGS219_2019_06","<p><img class= 'stimulus' src='images/baseline/pexels-photo-1837621.jpeg'></img></p>","null","","1549640953633","","","","","","",""
"null","","html-keyboard-response","12","3183778","0.0-6.0-6.0","COGS219_2019_06","<p><img class= 'stimulus' src='images/baseline/landscape17.jpg'></img></p>","null","","1549640953832","6","","","","","",""
"null","","html-keyboard-response","13","3183978","0.0-6.0-7.0","COGS219_2019_06","<p><img class= 'stimulus' src='images/baseline/Street 2.jpg'></img></p>","null","","1549640954033","","","","","","",""
"null","","html-keyboard-response","14","3184178","0.0-6.0-8.0","COGS219_2019_06","<p><img class= 'stimulus left-rotate' src='images/target/building19.jpg'></img></p>","null","","1549640954233","8","","","","","",""
"null","","html-keyboard-response","15","3184378","0.0-6.0-9.0","COGS219_2019_06","<p><img class= 'stimulus' src='images/baseline/farmhouse9.jpg'></img></p>","null","","1549640954435","","","","","","",""
"null","","html-keyboard-response","16","3184578","0.0-6.0-10.0","COGS219_2019_06","<p><img class= 'stimulus' src='images/baseline/house7.jpg'></img></p>","null","","1549640954634","","","","","","",""
"null","","html-keyboard-response","17","3184779","0.0-6.0-11.0","COGS219_2019_06","<p><img class= 'stimulus' src='images/baseline/Street 1.jpg'></img></p>","null","","1549640954833","","","","","","",""
"null","","html-keyboard-response","18","3184978","0.0-6.0-12.0","COGS219_2019_06","<p><img class= 'stimulus' src='images/baseline/building6.jpg'></img></p>","null","","1549640955035","12","","","","","",""
"null","","html-keyboard-response","19","3185179","0.0-6.0-13.0","COGS219_2019_06","<p><img class= 'stimulus' src='images/baseline/Lake 15.jpg'></img></p>","null","","1549640955233","","","","","","",""
"null","","html-keyboard-response","20","3185379","0.0-6.0-14.0","COGS219_2019_06","<p><img class= 'stimulus' src='images/baseline/03041v.jpg'></img></p>","null","","1549640955435","14","","","","","",""
"null","","html-keyboard-response","21","3185579","0.0-6.0-15.0","COGS219_2019_06","<p><img class= 'stimulus' src='images/baseline/04193v.jpg'></img></p>","null","","1549640955635","","","","","","",""
"null","","html-keyboard-response","22","3185779","0.0-6.0-16.0","COGS219_2019_06","<p><img class= 'stimulus' src='images/baseline/03075v.jpg'></img></p>","null","","1549640955834","","","","","","",""
"null","","html-keyboard-response","23","3185995","0.0-6.0-17.0","COGS219_2019_06","<p><img class= 'stimulus' src='images/baseline/landscape34.jpg'></img></p>","null","","1549640956033","","","","","","",""
"22408.30000000028","","html-button-response","24","3209405","0.0-6.0-18.0","COGS219_2019_06","<div class = ""response_question"">WAS THE IMAGE ROTATED...</div>","","2","","","6","2","bas","left","practice","false"
"15509.600000000093","","html-button-response","25","3224916","0.0-6.0-0.1","COGS219_2019_06","","","0","","","","","","","",""
"null","","html-keyboard-response","26","3225092","0.0-6.0-1.1","COGS219_2019_06","<p><img class= 'stimulus' src='images/baseline/building12.jpg'></img></p>","null","","1549640995148","","","","","","",""
"null","","html-keyboard-response","27","3225294","0.0-6.0-2.1","COGS219_2019_06","<p><img class= 'stimulus' src='images/baseline/03204v.jpg'></img></p>","null","","1549640995348","","","","","","",""
"null","","html-keyboard-response","28","3225493","0.0-6.0-3.1","COGS219_2019_06","<p><img class= 'stimulus' src='images/baseline/04040v.jpg'></img></p>","null","","1549640995551","","","","","","",""
"null","","html-keyboard-response","29","3225693","0.0-6.0-4.1","COGS219_2019_06","<p><img class= 'stimulus' src='images/baseline/pexels-photo-259280.jpeg'></img></p>","null","","1549640995748","4","","","","","",""
"null","","html-keyboard-response","30","3225892","0.0-6.0-5.1","COGS219_2019_06","<p><img class= 'stimulus' src='images/baseline/03220v.jpg'></img></p>","null","","1549640995948","","","","","","",""
"null","","html-keyboard-response","31","3226093","0.0-6.0-6.1","COGS219_2019_06","<p><img class= 'stimulus' src='images/target/cactus2.jpg'></img></p>","null","","1549640996148","6","","","","","",""
"null","","html-keyboard-response","32","3226293","0.0-6.0-7.1","COGS219_2019_06","<p><img class= 'stimulus' src='images/baseline/landscape13.jpg'></img></p>","null","","1549640996348","","","","","","",""
"null","","html-keyboard-response","33","3226493","0.0-6.0-8.1","COGS219_2019_06","<p><img class= 'stimulus' src='images/baseline/landscape22.jpg'></img></p>","null","","1549640996549","8","","","","","",""
"null","","html-keyboard-response","34","3226693","0.0-6.0-9.1","COGS219_2019_06","<p><img class= 'stimulus' src='images/baseline/04229v.jpg'></img></p>","null","","1549640996748","","","","","","",""
"null","","html-keyboard-response","35","3226893","0.0-6.0-10.1","COGS219_2019_06","<p><img class= 'stimulus' src='images/baseline/architecture-1314416_1920.jpg'></img></p>","null","","1549640996948","","","","","","",""
"null","","html-keyboard-response","36","3227094","0.0-6.0-11.1","COGS219_2019_06","<p><img class= 'stimulus' src='images/baseline/landscape6.jpg'></img></p>","null","","1549640997148","","","","","","",""
"null","","html-keyboard-response","37","3227292","0.0-6.0-12.1","COGS219_2019_06","<p><img class= 'stimulus' src='images/baseline/04117v.jpg'></img></p>","null","","1549640997350","12","","","","","",""
"null","","html-keyboard-response","38","3227493","0.0-6.0-13.1","COGS219_2019_06","<p><img class= 'stimulus' src='images/baseline/Sidewalk 4.jpg'></img></p>","null","","1549640997549","","","","","","",""
"null","","html-keyboard-response","39","3227693","0.0-6.0-14.1","COGS219_2019_06","<p><img class= 'stimulus' src='images/baseline/Niinsaare_jarv.jpg'></img></p>","null","","1549640997748","14","","","","","",""
"null","","html-keyboard-response","40","3227892","0.0-6.0-15.1","COGS219_2019_06","<p><img class= 'stimulus' src='images/baseline/05161v.jpg'></img></p>","null","","1549640997948","","","","","","",""
"null","","html-keyboard-response","41","3228092","0.0-6.0-16.1","COGS219_2019_06","<p><img class= 'stimulus' src='images/baseline/farmhouse8.jpg'></img></p>","null","","1549640998149","","","","","","",""
"null","","html-keyboard-response","42","3228309","0.0-6.0-17.1","COGS219_2019_06","<p><img class= 'stimulus' src='images/baseline/sunset-over-the-lake.jpg'></img></p>","null","","1549640998348","","","","","","",""
"2482.6999999997206","","html-button-response","43","3231797","0.0-6.0-18.1","COGS219_2019_06","<div class = ""response_question"">WAS THE IMAGE ROTATED...</div>","","3","","","4","2","bas","right","practice","true"
"4446.299999999814","","html-button-response","44","3236245","0.0-6.0-0.2","COGS219_2019_06","","","0","","","","","","","",""
"null","","html-keyboard-response","45","3236424","0.0-6.0-1.2","COGS219_2019_06","<p><img class= 'stimulus' src='images/baseline/02971v.jpg'></img></p>","null","","1549641006480","","","","","","",""
"null","","html-keyboard-response","46","3236625","0.0-6.0-2.2","COGS219_2019_06","<p><img class= 'stimulus' src='images/baseline/03212v.jpg'></img></p>","null","","1549641006681","","","","","","",""
"null","","html-keyboard-response","47","3236825","0.0-6.0-3.2","COGS219_2019_06","<p><img class= 'stimulus' src='images/baseline/pexels-photo-1048039.jpeg'></img></p>","null","","1549641006880","","","","","","",""
"null","","html-keyboard-response","48","3237026","0.0-6.0-4.2","COGS219_2019_06","<p><img class= 'stimulus' src='images/baseline/lake 1.jpg'></img></p>","null","","1549641007080","4","","","","","",""
"null","","html-keyboard-response","49","3237225","0.0-6.0-5.2","COGS219_2019_06","<p><img class= 'stimulus' src='images/baseline/02947v.jpg'></img></p>","null","","1549641007281","","","","","","",""
"null","","html-keyboard-response","50","3237424","0.0-6.0-6.2","COGS219_2019_06","<p><img class= 'stimulus' src='images/baseline/02982v.jpg'></img></p>","null","","1549641007480","6","","","","","",""
"null","","html-keyboard-response","51","3237625","0.0-6.0-7.2","COGS219_2019_06","<p><img class= 'stimulus' src='images/baseline/03063v.jpg'></img></p>","null","","1549641007679","","","","","","",""
"null","","html-keyboard-response","52","3237825","0.0-6.0-8.2","COGS219_2019_06","<p><img class= 'stimulus' src='images/target/building15.jpg'></img></p>","null","","1549641007881","8","","","","","",""
"null","","html-keyboard-response","53","3238025","0.0-6.0-9.2","COGS219_2019_06","<p><img class= 'stimulus' src='images/baseline/03180v.jpg'></img></p>","null","","1549641008080","","","","","","",""
"null","","html-keyboard-response","54","3238225","0.0-6.0-10.2","COGS219_2019_06","<p><img class= 'stimulus' src='images/baseline/04162v.jpg'></img></p>","null","","1549641008280","","","","","","",""
"null","","html-keyboard-response","55","3238425","0.0-6.0-11.2","COGS219_2019_06","<p><img class= 'stimulus' src='images/baseline/red rocks from afar.jpg'></img></p>","null","","1549641008481","","","","","","",""
"null","","html-keyboard-response","56","3238625","0.0-6.0-12.2","COGS219_2019_06","<p><img class= 'stimulus' src='images/baseline/farmhouse4.jpg'></img></p>","null","","1549641008681","12","","","","","",""
"null","","html-keyboard-response","57","3238825","0.0-6.0-13.2","COGS219_2019_06","<p><img class= 'stimulus' src='images/baseline/autumn-landscape-with-lake-fall-trees-mountains.jpg'></img></p>","null","","1549641008880","","","","","","",""
"null","","html-keyboard-response","58","3239025","0.0-6.0-14.2","COGS219_2019_06","<p><img class= 'stimulus' src='images/baseline/hills 3.jpg'></img></p>","null","","1549641009080","14","","","","","",""
"null","","html-keyboard-response","59","3239225","0.0-6.0-15.2","COGS219_2019_06","<p><img class= 'stimulus' src='images/baseline/Path 1.jpg'></img></p>","null","","1549641009281","","","","","","",""
"null","","html-keyboard-response","60","3239424","0.0-6.0-16.2","COGS219_2019_06","<p><img class= 'stimulus' src='images/baseline/05139v.jpg'></img></p>","null","","1549641009480","","","","","","",""
"null","","html-keyboard-response","61","3239643","0.0-6.0-17.2","COGS219_2019_06","<p><img class= 'stimulus' src='images/baseline/03098v.jpg'></img></p>","null","","1549641009681","","","","","","",""
"1614.7000000001863","","html-button-response","62","3242261","0.0-6.0-18.2","COGS219_2019_06","<div class = ""response_question"">WAS THE IMAGE ROTATED...</div>","","3","","","6","2","bas","right","practice","true"
"4870.4000000003725","","html-button-response","63","3247132","0.0-6.0-0.3","COGS219_2019_06","","","0","","","","","","","",""
"null","","html-keyboard-response","64","3247308","0.0-6.0-1.3","COGS219_2019_06","<p><img class= 'stimulus' src='images/baseline/Street 5.jpg'></img></p>","null","","1549641017363","","","","","","",""
"null","","html-keyboard-response","65","3247509","0.0-6.0-2.3","COGS219_2019_06","<p><img class= 'stimulus' src='images/baseline/Lake 4.jpg'></img></p>","null","","1549641017564","","","","","","",""
"null","","html-keyboard-response","66","3247708","0.0-6.0-3.3","COGS219_2019_06","<p><img class= 'stimulus' src='images/baseline/Lake 14.jpg'></img></p>","null","","1549641017764","","","","","","",""
"null","","html-keyboard-response","67","3247908","0.0-6.0-4.3","COGS219_2019_06","<p><img class= 'stimulus' src='images/baseline/05279v.jpg'></img></p>","null","","1549641017964","4","","","","","",""
"null","","html-keyboard-response","68","3248109","0.0-6.0-5.3","COGS219_2019_06","<p><img class= 'stimulus' src='images/baseline/landscape35.jpg'></img></p>","null","","1549641018163","","","","","","",""
"null","","html-keyboard-response","69","3248309","0.0-6.0-6.3","COGS219_2019_06","<p><img class= 'stimulus' src='images/baseline/Nature 2.jpg'></img></p>","null","","1549641018365","6","","","","","",""
"null","","html-keyboard-response","70","3248508","0.0-6.0-7.3","COGS219_2019_06","<p><img class= 'stimulus' src='images/baseline/scenic-mountain-landscape.jpg'></img></p>","null","","1549641018565","","","","","","",""
"null","","html-keyboard-response","71","3248709","0.0-6.0-8.3","COGS219_2019_06","<p><img class= 'stimulus' src='images/baseline/hills 1.jpg'></img></p>","null","","1549641018766","8","","","","","",""
"null","","html-keyboard-response","72","3248909","0.0-6.0-9.3","COGS219_2019_06","<p><img class= 'stimulus' src='images/baseline/building_at_national_conservation.jpg'></img></p>","null","","1549641018964","","","","","","",""
"null","","html-keyboard-response","73","3249108","0.0-6.0-10.3","COGS219_2019_06","<p><img class= 'stimulus' src='images/baseline/99_-_Machu_Picchu_-_Juin_2009.edit3.jpg'></img></p>","null","","1549641019164","","","","","","",""
"null","","html-keyboard-response","74","3249308","0.0-6.0-11.3","COGS219_2019_06","<p><img class= 'stimulus' src='images/baseline/04062v.jpg'></img></p>","null","","1549641019364","","","","","","",""
"null","","html-keyboard-response","75","3249509","0.0-6.0-12.3","COGS219_2019_06","<p><img class= 'stimulus' src='images/target/lighthouse-843522_640.jpg'></img></p>","null","","1549641019565","12","","","","","",""
"null","","html-keyboard-response","76","3249709","0.0-6.0-13.3","COGS219_2019_06","<p><img class= 'stimulus' src='images/baseline/Beach 2.jpg'></img></p>","null","","1549641019764","","","","","","",""
"null","","html-keyboard-response","77","3249909","0.0-6.0-14.3","COGS219_2019_06","<p><img class= 'stimulus' src='images/baseline/landscape38.jpg'></img></p>","null","","1549641019965","14","","","","","",""
"null","","html-keyboard-response","78","3250109","0.0-6.0-15.3","COGS219_2019_06","<p><img class= 'stimulus' src='images/baseline/Desert_View_Indian_Wells.jpg'></img></p>","null","","1549641020165","","","","","","",""
"null","","html-keyboard-response","79","3250309","0.0-6.0-16.3","COGS219_2019_06","<p><img class= 'stimulus' src='images/baseline/agriculture-bright-clouds-440731.jpg'></img></p>","null","","1549641020364","","","","","","",""
"null","","html-keyboard-response","80","3250526","0.0-6.0-17.3","COGS219_2019_06","<p><img class= 'stimulus' src='images/baseline/Street 3.jpg'></img></p>","null","","1549641020564","","","","","","",""
"1417.7999999998137","","html-button-response","81","3252948","0.0-6.0-18.3","COGS219_2019_06","<div class = ""response_question"">WAS THE IMAGE ROTATED...</div>","","3","","","4","8","bas","right","practice","true"
"6982.399999999907","","html-button-response","82","3259932","0.0-6.0-0.4","COGS219_2019_06","","","0","","","","","","","",""
"null","","html-keyboard-response","83","3260059","0.0-6.0-1.4","COGS219_2019_06","<p><img class= 'stimulus' src='images/baseline/hills 4.jpg'></img></p>","null","","1549641030163","","","","","","",""
"null","","html-keyboard-response","84","3260209","0.0-6.0-2.4","COGS219_2019_06","<p><img class= 'stimulus' src='images/baseline/pexels-photo-459203.jpeg'></img></p>","null","","1549641030314","","","","","","",""
"null","","html-keyboard-response","85","3260358","0.0-6.0-3.4","COGS219_2019_06","<p><img class= 'stimulus' src='images/baseline/03114v.jpg'></img></p>","null","","1549641030463","","","","","","",""
"null","","html-keyboard-response","86","3260508","0.0-6.0-4.4","COGS219_2019_06","<p><img class= 'stimulus' src='images/baseline/Beach 3.jpg'></img></p>","null","","1549641030614","4","","","","","",""
"null","","html-keyboard-response","87","3260658","0.0-6.0-5.4","COGS219_2019_06","<p><img class= 'stimulus' src='images/baseline/04158v.jpg'></img></p>","null","","1549641030764","","","","","","",""
"null","","html-keyboard-response","88","3260808","0.0-6.0-6.4","COGS219_2019_06","<p><img class= 'stimulus' src='images/baseline/field 3.jpg'></img></p>","null","","1549641030913","6","","","","","",""
"null","","html-keyboard-response","89","3260958","0.0-6.0-7.4","COGS219_2019_06","<p><img class= 'stimulus' src='images/baseline/05252v.jpg'></img></p>","null","","1549641031063","","","","","","",""
"null","","html-keyboard-response","90","3261109","0.0-6.0-8.4","COGS219_2019_06","<p><img class= 'stimulus' src='images/baseline/Lake 7.jpg'></img></p>","null","","1549641031213","8","","","","","",""
"null","","html-keyboard-response","91","3261258","0.0-6.0-9.4","COGS219_2019_06","<p><img class= 'stimulus' src='images/baseline/autumn-in-red-rocks-park.jpg'></img></p>","null","","1549641031364","","","","","","",""
"null","","html-keyboard-response","92","3261408","0.0-6.0-10.4","COGS219_2019_06","<p><img class= 'stimulus' src='images/baseline/__08_-_ITALY_-_Forli_under_snow_-_winter_landscape_of_city_(christmas).jpg'></img></p>","null","","1549641031514","","","","","","",""
"null","","html-keyboard-response","93","3261558","0.0-6.0-11.4","COGS219_2019_06","<p><img class= 'stimulus' src='images/baseline/04085v.jpg'></img></p>","null","","1549641031664","","","","","","",""
"null","","html-keyboard-response","94","3261708","0.0-6.0-12.4","COGS219_2019_06","<p><img class= 'stimulus' src='images/baseline/landscape40.jpg'></img></p>","null","","1549641031813","12","","","","","",""
"null","","html-keyboard-response","95","3261858","0.0-6.0-13.4","COGS219_2019_06","<p><img class= 'stimulus' src='images/baseline/building9.jpg'></img></p>","null","","1549641031963","","","","","","",""
"null","","html-keyboard-response","96","3262008","0.0-6.0-14.4","COGS219_2019_06","<p><img class= 'stimulus left-rotate' src='images/target/sand-3339890_640.jpg'></img></p>","null","","1549641032113","14","","","","","",""
"null","","html-keyboard-response","97","3262157","0.0-6.0-15.4","COGS219_2019_06","<p><img class= 'stimulus' src='images/baseline/pexels-photo-221125.jpeg'></img></p>","null","","1549641032263","","","","","","",""
"null","","html-keyboard-response","98","3262308","0.0-6.0-16.4","COGS219_2019_06","<p><img class= 'stimulus' src='images/baseline/foreclosed_home.jpg'></img></p>","null","","1549641032414","","","","","","",""
"null","","html-keyboard-response","99","3262474","0.0-6.0-17.4","COGS219_2019_06","<p><img class= 'stimulus' src='images/baseline/pexels-photo-541101.jpeg'></img></p>","null","","1549641032564","","","","","","",""
"1477.0999999996275","","html-button-response","100","3264956","0.0-6.0-18.4","COGS219_2019_06","<div class = ""response_question"">WAS THE IMAGE ROTATED...</div>","","0","","","6","8","bas","left","practice","true"
"5438.499999999534","","html-button-response","101","3270404","0.0-6.0-0.5","COGS219_2019_06","","","0","","","","","","","",""
"null","","html-keyboard-response","102","3270532","0.0-6.0-1.5","COGS219_2019_06","<p><img class= 'stimulus' src='images/baseline/landscape16.jpg'></img></p>","null","","1549641040638","","","","","","",""
"null","","html-keyboard-response","103","3270682","0.0-6.0-2.5","COGS219_2019_06","<p><img class= 'stimulus' src='images/baseline/cyrillic.jpg'></img></p>","null","","1549641040787","","","","","","",""
"null","","html-keyboard-response","104","3270832","0.0-6.0-3.5","COGS219_2019_06","<p><img class= 'stimulus' src='images/baseline/building4.jpg'></img></p>","null","","1549641040937","","","","","","",""
"null","","html-keyboard-response","105","3270983","0.0-6.0-4.5","COGS219_2019_06","<p><img class= 'stimulus' src='images/baseline/03162v.jpg'></img></p>","null","","1549641041088","4","","","","","",""
"null","","html-keyboard-response","106","3271132","0.0-6.0-5.5","COGS219_2019_06","<p><img class= 'stimulus' src='images/baseline/landscape12.jpg'></img></p>","null","","1549641041238","","","","","","",""
"null","","html-keyboard-response","107","3271281","0.0-6.0-6.5","COGS219_2019_06","<p><img class= 'stimulus' src='images/baseline/03201v.jpg'></img></p>","null","","1549641041388","6","","","","","",""
"null","","html-keyboard-response","108","3271431","0.0-6.0-7.5","COGS219_2019_06","<p><img class= 'stimulus' src='images/baseline/pexels-photo-59321.jpeg'></img></p>","null","","1549641041537","","","","","","",""
"null","","html-keyboard-response","109","3271582","0.0-6.0-8.5","COGS219_2019_06","<p><img class= 'stimulus' src='images/baseline/Paysage_enneige_02.jpg'></img></p>","null","","1549641041688","8","","","","","",""
"null","","html-keyboard-response","110","3271732","0.0-6.0-9.5","COGS219_2019_06","<p><img class= 'stimulus' src='images/baseline/05203v.jpg'></img></p>","null","","1549641041837","","","","","","",""
"null","","html-keyboard-response","111","3271882","0.0-6.0-10.5","COGS219_2019_06","<p><img class= 'stimulus' src='images/baseline/03066v.jpg'></img></p>","null","","1549641041988","","","","","","",""
"null","","html-keyboard-response","112","3272032","0.0-6.0-11.5","COGS219_2019_06","<p><img class= 'stimulus' src='images/baseline/architecture-956332_1280.jpg'></img></p>","null","","1549641042139","","","","","","",""
"null","","html-keyboard-response","113","3272182","0.0-6.0-12.5","COGS219_2019_06","<p><img class= 'stimulus' src='images/baseline/road.jpg'></img></p>","null","","1549641042288","12","","","","","",""
"null","","html-keyboard-response","114","3272332","0.0-6.0-13.5","COGS219_2019_06","<p><img class= 'stimulus' src='images/baseline/pexels-photo-1261728.jpeg'></img></p>","null","","1549641042437","","","","","","",""
"null","","html-keyboard-response","115","3272482","0.0-6.0-14.5","COGS219_2019_06","<p><img class= 'stimulus' src='images/target/9525-a-lonely-single-tree-in-a-field-pv.jpg'></img></p>","null","","1549641042587","14","","","","","",""
"null","","html-keyboard-response","116","3272632","0.0-6.0-15.5","COGS219_2019_06","<p><img class= 'stimulus' src='images/baseline/05292v.jpg'></img></p>","null","","1549641042737","","","","","","",""
"null","","html-keyboard-response","117","3272782","0.0-6.0-16.5","COGS219_2019_06","<p><img class= 'stimulus' src='images/baseline/pexels-photo-440731.jpeg'></img></p>","null","","1549641042887","","","","","","",""
"null","","html-keyboard-response","118","3272950","0.0-6.0-17.5","COGS219_2019_06","<p><img class= 'stimulus' src='images/baseline/Lake 5.jpg'></img></p>","null","","1549641043038","","","","","","",""
"3260.5000000004657","","html-button-response","119","3277220","0.0-6.0-18.5","COGS219_2019_06","<div class = ""response_question"">WAS THE IMAGE ROTATED...</div>","","3","","","6","8","bas","right","practice","true"
"4878.399999999907","","html-button-response","120","3282099","0.0-6.0-0.6","COGS219_2019_06","","","0","","","","","","","",""
"null","","html-keyboard-response","121","3282232","0.0-6.0-1.6","COGS219_2019_06","<p><img class= 'stimulus' src='images/baseline/landscape3.jpg'></img></p>","null","","1549641052337","","","","","","",""
"null","","html-keyboard-response","122","3282383","0.0-6.0-2.6","COGS219_2019_06","<p><img class= 'stimulus' src='images/baseline/landscape8.jpg'></img></p>","null","","1549641052488","","","","","","",""
"null","","html-keyboard-response","123","3282532","0.0-6.0-3.6","COGS219_2019_06","<p><img class= 'stimulus' src='images/baseline/05131v.jpg'></img></p>","null","","1549641052638","","","","","","",""
"null","","html-keyboard-response","124","3282683","0.0-6.0-4.6","COGS219_2019_06","<p><img class= 'stimulus' src='images/baseline/lake 2.jpg'></img></p>","null","","1549641052789","4","","","","","",""
"null","","html-keyboard-response","125","3282832","0.0-6.0-5.6","COGS219_2019_06","<p><img class= 'stimulus' src='images/baseline/valley 1.jpg'></img></p>","null","","1549641052938","","","","","","",""
"null","","html-keyboard-response","126","3282982","0.0-6.0-6.6","COGS219_2019_06","<p><img class= 'stimulus left-rotate' src='images/target/tree-740901_1280.jpg'></img></p>","null","","1549641053087","6","","","","","",""
"null","","html-keyboard-response","127","3283132","0.0-6.0-7.6","COGS219_2019_06","<p><img class= 'stimulus' src='images/baseline/03217v.jpg'></img></p>","null","","1549641053237","","","","","","",""
"null","","html-keyboard-response","128","3283282","0.0-6.0-8.6","COGS219_2019_06","<p><img class= 'stimulus' src='images/baseline/pexels-photo-1840893.jpeg'></img></p>","null","","1549641053387","8","","","","","",""
"null","","html-keyboard-response","129","3283432","0.0-6.0-9.6","COGS219_2019_06","<p><img class= 'stimulus' src='images/baseline/pexels-photo-750108.jpeg'></img></p>","null","","1549641053537","","","","","","",""
"null","","html-keyboard-response","130","3283582","0.0-6.0-10.6","COGS219_2019_06","<p><img class= 'stimulus' src='images/baseline/pexels-photo-1287089.jpeg'></img></p>","null","","1549641053688","","","","","","",""
"null","","html-keyboard-response","131","3283731","0.0-6.0-11.6","COGS219_2019_06","<p><img class= 'stimulus' src='images/baseline/04300v.jpg'></img></p>","null","","1549641053837","","","","","","",""
"null","","html-keyboard-response","132","3283882","0.0-6.0-12.6","COGS219_2019_06","<p><img class= 'stimulus' src='images/baseline/seoul-410266_1920.jpg'></img></p>","null","","1549641053988","12","","","","","",""
"null","","html-keyboard-response","133","3284032","0.0-6.0-13.6","COGS219_2019_06","<p><img class= 'stimulus' src='images/baseline/pexels-photo-1054289.jpeg'></img></p>","null","","1549641054138","","","","","","",""
"null","","html-keyboard-response","134","3284182","0.0-6.0-14.6","COGS219_2019_06","<p><img class= 'stimulus' src='images/baseline/02960v.jpg'></img></p>","null","","1549641054287","14","","","","","",""
"null","","html-keyboard-response","135","3284332","0.0-6.0-15.6","COGS219_2019_06","<p><img class= 'stimulus' src='images/baseline/house1.jpg'></img></p>","null","","1549641054437","","","","","","",""
"null","","html-keyboard-response","136","3284482","0.0-6.0-16.6","COGS219_2019_06","<p><img class= 'stimulus' src='images/baseline/horse_statue.jpg'></img></p>","null","","1549641054587","","","","","","",""
"null","","html-keyboard-response","137","3284649","0.0-6.0-17.6","COGS219_2019_06","<p><img class= 'stimulus' src='images/baseline/tennis-court-net-buried-in-snow.jpg'></img></p>","null","","1549641054738","","","","","","",""
"3932.7999999998137","","html-button-response","138","3289588","0.0-6.0-18.6","COGS219_2019_06","<div class = ""response_question"">WAS THE IMAGE ROTATED...</div>","","0","","","4","2","bas","left","practice","true"
"8806.499999999534","","html-button-response","139","3298396","0.0-6.0-0.7","COGS219_2019_06","","","0","","","","","","","",""
"null","","html-keyboard-response","140","3298532","0.0-6.0-1.7","COGS219_2019_06","<p><img class= 'stimulus' src='images/baseline/house10.jpg'></img></p>","null","","1549641068638","","","","","","",""
"null","","html-keyboard-response","141","3298682","0.0-6.0-2.7","COGS219_2019_06","<p><img class= 'stimulus' src='images/baseline/04010v.jpg'></img></p>","null","","1549641068788","","","","","","",""
"null","","html-keyboard-response","142","3298833","0.0-6.0-3.7","COGS219_2019_06","<p><img class= 'stimulus' src='images/baseline/lookout_tower.jpg'></img></p>","null","","1549641068937","","","","","","",""
"null","","html-keyboard-response","143","3298982","0.0-6.0-4.7","COGS219_2019_06","<p><img class= 'stimulus' src='images/baseline/04014v.jpg'></img></p>","null","","1549641069087","4","","","","","",""
"null","","html-keyboard-response","144","3299132","0.0-6.0-5.7","COGS219_2019_06","<p><img class= 'stimulus' src='images/baseline/Sky 1.jpg'></img></p>","null","","1549641069238","","","","","","",""
"null","","html-keyboard-response","145","3299284","0.0-6.0-6.7","COGS219_2019_06","<p><img class= 'stimulus' src='images/baseline/Bahia_Onelli_Parque_Nacional_Los_Glaciares_Patagonia_Argentina_Luca_Galuzzi_2005.jpg'></img></p>","null","","1549641069388","6","","","","","",""
"null","","html-keyboard-response","146","3299432","0.0-6.0-7.7","COGS219_2019_06","<p><img class= 'stimulus' src='images/baseline/farmhouse1.jpg'></img></p>","null","","1549641069538","","","","","","",""
"null","","html-keyboard-response","147","3299583","0.0-6.0-8.7","COGS219_2019_06","<p><img class= 'stimulus' src='images/baseline/04060v.jpg'></img></p>","null","","1549641069689","8","","","","","",""
"null","","html-keyboard-response","148","3299732","0.0-6.0-9.7","COGS219_2019_06","<p><img class= 'stimulus' src='images/baseline/architecture_modern_architecture_852928.jpg'></img></p>","null","","1549641069837","","","","","","",""
"null","","html-keyboard-response","149","3299882","0.0-6.0-10.7","COGS219_2019_06","<p><img class= 'stimulus' src='images/baseline/cranes 1.jpg'></img></p>","null","","1549641069988","","","","","","",""
"null","","html-keyboard-response","150","3300033","0.0-6.0-11.7","COGS219_2019_06","<p><img class= 'stimulus' src='images/baseline/05247v.jpg'></img></p>","null","","1549641070137","","","","","","",""
"null","","html-keyboard-response","151","3300183","0.0-6.0-12.7","COGS219_2019_06","<p><img class= 'stimulus left-rotate' src='images/target/pexels-photo-932328.jpeg'></img></p>","null","","1549641070287","12","","","","","",""
"null","","html-keyboard-response","152","3300332","0.0-6.0-13.7","COGS219_2019_06","<p><img class= 'stimulus' src='images/baseline/05198v.jpg'></img></p>","null","","1549641070438","","","","","","",""
"null","","html-keyboard-response","153","3300482","0.0-6.0-14.7","COGS219_2019_06","<p><img class= 'stimulus' src='images/baseline/Grass 6.jpg'></img></p>","null","","1549641070588","14","","","","","",""
"null","","html-keyboard-response","154","3300633","0.0-6.0-15.7","COGS219_2019_06","<p><img class= 'stimulus' src='images/baseline/landscape11.jpg'></img></p>","null","","1549641070739","","","","","","",""
"null","","html-keyboard-response","155","3300782","0.0-6.0-16.7","COGS219_2019_06","<p><img class= 'stimulus' src='images/baseline/04031v.jpg'></img></p>","null","","1549641070888","","","","","","",""
"null","","html-keyboard-response","156","3300949","0.0-6.0-17.7","COGS219_2019_06","<p><img class= 'stimulus' src='images/baseline/vintage-art-deco-storefront.jpg'></img></p>","null","","1549641071037","","","","","","",""
"1155.4000000003725","","html-button-response","157","3303115","0.0-6.0-18.7","COGS219_2019_06","<div class = ""response_question"">WAS THE IMAGE ROTATED...</div>","","0","","","4","8","bas","left","practice","true"
"3782.4999999995343","","html-button-response","158","3306900","0.0-6.0-0.8","COGS219_2019_06","","","0","","","","","","","",""
"null","","html-keyboard-response","159","3306982","0.0-6.0-1.8","COGS219_2019_06","<p><img class= 'stimulus' src='images/baseline/05264v.jpg'></img></p>","null","","1549641077138","","","","","","",""
"null","","html-keyboard-response","160","3307083","0.0-6.0-2.8","COGS219_2019_06","<p><img class= 'stimulus' src='images/baseline/4k-wallpaper-agriculture-clouds-842711.jpg'></img></p>","null","","1549641077237","","","","","","",""
"null","","html-keyboard-response","161","3307182","0.0-6.0-3.8","COGS219_2019_06","<p><img class= 'stimulus' src='images/baseline/landscape33.jpg'></img></p>","null","","1549641077337","","","","","","",""
"null","","html-keyboard-response","162","3307283","0.0-6.0-4.8","COGS219_2019_06","<p><img class= 'stimulus' src='images/baseline/bird-flying-at-sunset.jpg'></img></p>","null","","1549641077438","4","","","","","",""
"null","","html-keyboard-response","163","3307382","0.0-6.0-5.8","COGS219_2019_06","<p><img class= 'stimulus' src='images/baseline/pexels-photo-210617.jpeg'></img></p>","null","","1549641077539","","","","","","",""
"null","","html-keyboard-response","164","3307483","0.0-6.0-6.8","COGS219_2019_06","<p><img class= 'stimulus' src='images/baseline/empire-state-building.jpg'></img></p>","null","","1549641077638","6","","","","","",""
"null","","html-keyboard-response","165","3307583","0.0-6.0-7.8","COGS219_2019_06","<p><img class= 'stimulus' src='images/baseline/house11.jpg'></img></p>","null","","1549641077738","","","","","","",""
"null","","html-keyboard-response","166","3307682","0.0-6.0-8.8","COGS219_2019_06","<p><img class= 'stimulus left-rotate' src='images/target/Wild-West-South-West-Usa-Landscape-America-1663497.jpg'></img></p>","null","","1549641077839","8","","","","","",""
"null","","html-keyboard-response","167","3307782","0.0-6.0-9.8","COGS219_2019_06","<p><img class= 'stimulus' src='images/baseline/building2.jpg'></img></p>","null","","1549641077937","","","","","","",""
"null","","html-keyboard-response","168","3307883","0.0-6.0-10.8","COGS219_2019_06","<p><img class= 'stimulus' src='images/baseline/sun-through-winter-tree-branches1.jpg'></img></p>","null","","1549641078038","","","","","","",""
"null","","html-keyboard-response","169","3307982","0.0-6.0-11.8","COGS219_2019_06","<p><img class= 'stimulus' src='images/baseline/Lake 8.jpg'></img></p>","null","","1549641078138","","","","","","",""
"null","","html-keyboard-response","170","3308082","0.0-6.0-12.8","COGS219_2019_06","<p><img class= 'stimulus' src='images/baseline/02962v.jpg'></img></p>","null","","1549641078238","12","","","","","",""
"null","","html-keyboard-response","171","3308182","0.0-6.0-13.8","COGS219_2019_06","<p><img class= 'stimulus' src='images/baseline/05189v.jpg'></img></p>","null","","1549641078337","","","","","","",""
"null","","html-keyboard-response","172","3308283","0.0-6.0-14.8","COGS219_2019_06","<p><img class= 'stimulus' src='images/baseline/02977v.jpg'></img></p>","null","","1549641078437","14","","","","","",""
"null","","html-keyboard-response","173","3308382","0.0-6.0-15.8","COGS219_2019_06","<p><img class= 'stimulus' src='images/baseline/Waterfall 1.jpg'></img></p>","null","","1549641078537","","","","","","",""
"null","","html-keyboard-response","174","3308483","0.0-6.0-16.8","COGS219_2019_06","<p><img class= 'stimulus' src='images/baseline/geese-flying-over-lake-at-dusk.jpg'></img></p>","null","","1549641078637","","","","","","",""
"null","","html-keyboard-response","175","3308600","0.0-6.0-17.8","COGS219_2019_06","<p><img class= 'stimulus' src='images/baseline/05145v.jpg'></img></p>","null","","1549641078738","","","","","","",""
"3358.6999999997206","","html-button-response","176","3312964","0.0-6.0-18.8","COGS219_2019_06","<div class = ""response_question"">WAS THE IMAGE ROTATED...</div>","","2","","","6","2","bas","left","practice","false"
"2926.7000000001863","","html-button-response","177","3315892","0.0-6.0-0.9","COGS219_2019_06","","","0","","","","","","","",""
"null","","html-keyboard-response","178","3315967","0.0-6.0-1.9","COGS219_2019_06","<p><img class= 'stimulus' src='images/baseline/pexels-photo-351264.jpeg'></img></p>","null","","1549641086121","","","","","","",""
"null","","html-keyboard-response","179","3316066","0.0-6.0-2.9","COGS219_2019_06","<p><img class= 'stimulus' src='images/baseline/hiking-trail.jpg'></img></p>","null","","1549641086221","","","","","","",""
"null","","html-keyboard-response","180","3316167","0.0-6.0-3.9","COGS219_2019_06","<p><img class= 'stimulus' src='images/baseline/farmhouse3.jpg'></img></p>","null","","1549641086321","","","","","","",""
"null","","html-keyboard-response","181","3316266","0.0-6.0-4.9","COGS219_2019_06","<p><img class= 'stimulus' src='images/baseline/Dock 1.jpg'></img></p>","null","","1549641086422","4","","","","","",""
"null","","html-keyboard-response","182","3316365","0.0-6.0-5.9","COGS219_2019_06","<p><img class= 'stimulus' src='images/baseline/landscape29.jpg'></img></p>","null","","1549641086521","","","","","","",""
"null","","html-keyboard-response","183","3316466","0.0-6.0-6.9","COGS219_2019_06","<p><img class= 'stimulus' src='images/baseline/farmhouse7.jpg'></img></p>","null","","1549641086621","6","","","","","",""
"null","","html-keyboard-response","184","3316565","0.0-6.0-7.9","COGS219_2019_06","<p><img class= 'stimulus' src='images/baseline/landscape15.jpg'></img></p>","null","","1549641086721","","","","","","",""
"null","","html-keyboard-response","185","3316666","0.0-6.0-8.9","COGS219_2019_06","<p><img class= 'stimulus' src='images/baseline/landscape7.jpg'></img></p>","null","","1549641086821","8","","","","","",""
"null","","html-keyboard-response","186","3316766","0.0-6.0-9.9","COGS219_2019_06","<p><img class= 'stimulus' src='images/baseline/chicago-skyline-at-night-1476869511p8U.jpg'></img></p>","null","","1549641086922","","","","","","",""
"null","","html-keyboard-response","187","3316866","0.0-6.0-10.9","COGS219_2019_06","<p><img class= 'stimulus' src='images/baseline/landscape23.jpg'></img></p>","null","","1549641087022","","","","","","",""
"null","","html-keyboard-response","188","3316966","0.0-6.0-11.9","COGS219_2019_06","<p><img class= 'stimulus' src='images/baseline/Aletschgletscher-Eggishorn.jpg'></img></p>","null","","1549641087121","","","","","","",""
"null","","html-keyboard-response","189","3317066","0.0-6.0-12.9","COGS219_2019_06","<p><img class= 'stimulus' src='images/baseline/03112v.jpg'></img></p>","null","","1549641087221","12","","","","","",""
"null","","html-keyboard-response","190","3317166","0.0-6.0-13.9","COGS219_2019_06","<p><img class= 'stimulus' src='images/baseline/grand-teton-mountains.jpg'></img></p>","null","","1549641087321","","","","","","",""
"null","","html-keyboard-response","191","3317266","0.0-6.0-14.9","COGS219_2019_06","<p><img class= 'stimulus left-rotate' src='images/target/buildin5.jpg'></img></p>","null","","1549641087421","14","","","","","",""
"null","","html-keyboard-response","192","3317366","0.0-6.0-15.9","COGS219_2019_06","<p><img class= 'stimulus' src='images/baseline/landscape14.jpg'></img></p>","null","","1549641087521","","","","","","",""
"null","","html-keyboard-response","193","3317466","0.0-6.0-16.9","COGS219_2019_06","<p><img class= 'stimulus' src='images/baseline/trees 23.jpg'></img></p>","null","","1549641087622","","","","","","",""
"null","","html-keyboard-response","194","3317583","0.0-6.0-17.9","COGS219_2019_06","<p><img class= 'stimulus' src='images/baseline/lone-old-cottonwood-tree.jpg'></img></p>","null","","1549641087722","","","","","","",""
"1057.1000000000931","","html-button-response","195","3319644","0.0-6.0-18.9","COGS219_2019_06","<div class = ""response_question"">WAS THE IMAGE ROTATED...</div>","","0","","","6","8","bas","left","practice","true"
"1854.4000000003725","","html-button-response","196","3321500","0.0-6.0-0.10","COGS219_2019_06","","","0","","","","","","","",""
"null","","html-keyboard-response","197","3321582","0.0-6.0-1.10","COGS219_2019_06","<p><img class= 'stimulus' src='images/baseline/landscape31.jpg'></img></p>","null","","1549641091738","","","","","","",""
"null","","html-keyboard-response","198","3321683","0.0-6.0-2.10","COGS219_2019_06","<p><img class= 'stimulus' src='images/baseline/landscape2.jpg'></img></p>","null","","1549641091839","","","","","","",""
"null","","html-keyboard-response","199","3321782","0.0-6.0-3.10","COGS219_2019_06","<p><img class= 'stimulus' src='images/baseline/04064v.jpg'></img></p>","null","","1549641091939","","","","","","",""
"null","","html-keyboard-response","200","3321882","0.0-6.0-4.10","COGS219_2019_06","<p><img class= 'stimulus' src='images/baseline/building3.jpg'></img></p>","null","","1549641092038","4","","","","","",""
"null","","html-keyboard-response","201","3321982","0.0-6.0-5.10","COGS219_2019_06","<p><img class= 'stimulus' src='images/baseline/Sunset 4.jpg'></img></p>","null","","1549641092138","","","","","","",""
"null","","html-keyboard-response","202","3322084","0.0-6.0-6.10","COGS219_2019_06","<p><img class= 'stimulus' src='images/baseline/04063v.jpg'></img></p>","null","","1549641092238","6","","","","","",""
"null","","html-keyboard-response","203","3322184","0.0-6.0-7.10","COGS219_2019_06","<p><img class= 'stimulus' src='images/baseline/05242v.jpg'></img></p>","null","","1549641092339","","","","","","",""
"null","","html-keyboard-response","204","3322282","0.0-6.0-8.10","COGS219_2019_06","<p><img class= 'stimulus' src='images/baseline/agriculture-cereal-clouds-175389.jpg'></img></p>","null","","1549641092437","8","","","","","",""
"null","","html-keyboard-response","205","3322384","0.0-6.0-9.10","COGS219_2019_06","<p><img class= 'stimulus' src='images/baseline/landscape36.jpg'></img></p>","null","","1549641092538","","","","","","",""
"null","","html-keyboard-response","206","3322484","0.0-6.0-10.10","COGS219_2019_06","<p><img class= 'stimulus' src='images/baseline/snowy tree.jpg'></img></p>","null","","1549641092638","","","","","","",""
"null","","html-keyboard-response","207","3322582","0.0-6.0-11.10","COGS219_2019_06","<p><img class= 'stimulus' src='images/baseline/Linden,_paysage.jpg'></img></p>","null","","1549641092738","","","","","","",""
"null","","html-keyboard-response","208","3322682","0.0-6.0-12.10","COGS219_2019_06","<p><img class= 'stimulus' src='images/target/lookout_tower.jpg'></img></p>","null","","1549641092839","12","","","","","",""
"null","","html-keyboard-response","209","3322783","0.0-6.0-13.10","COGS219_2019_06","<p><img class= 'stimulus' src='images/baseline/05303v.jpg'></img></p>","null","","1549641092939","","","","","","",""
"null","","html-keyboard-response","210","3322883","0.0-6.0-14.10","COGS219_2019_06","<p><img class= 'stimulus' src='images/baseline/03045v.jpg'></img></p>","null","","1549641093038","14","","","","","",""
"null","","html-keyboard-response","211","3322982","0.0-6.0-15.10","COGS219_2019_06","<p><img class= 'stimulus' src='images/baseline/pexels-photo-568236.jpeg'></img></p>","null","","1549641093139","","","","","","",""
"null","","html-keyboard-response","212","3323082","0.0-6.0-16.10","COGS219_2019_06","<p><img class= 'stimulus' src='images/baseline/house8.jpg'></img></p>","null","","1549641093238","","","","","","",""
"null","","html-keyboard-response","213","3323199","0.0-6.0-17.10","COGS219_2019_06","<p><img class= 'stimulus' src='images/baseline/Sailing 3.jpg'></img></p>","null","","1549641093338","","","","","","",""
"1750.8000000002794","","html-button-response","214","3325956","0.0-6.0-18.10","COGS219_2019_06","<div class = ""response_question"">WAS THE IMAGE ROTATED...</div>","","2","","","4","8","bas","right","practice","false"
"2846.399999999907","","html-button-response","215","3328803","0.0-6.0-0.11","COGS219_2019_06","","","0","","","","","","","",""
"null","","html-keyboard-response","216","3328883","0.0-6.0-1.11","COGS219_2019_06","<p><img class= 'stimulus' src='images/baseline/Skyscraper 2.jpg'></img></p>","null","","1549641099040","","","","","","",""
"null","","html-keyboard-response","217","3328982","0.0-6.0-2.11","COGS219_2019_06","<p><img class= 'stimulus' src='images/baseline/field 2.jpg'></img></p>","null","","1549641099139","","","","","","",""
"null","","html-keyboard-response","218","3329083","0.0-6.0-3.11","COGS219_2019_06","<p><img class= 'stimulus' src='images/baseline/pexels-photo-427676.jpeg'></img></p>","null","","1549641099238","","","","","","",""
"null","","html-keyboard-response","219","3329182","0.0-6.0-4.11","COGS219_2019_06","<p><img class= 'stimulus' src='images/baseline/field 4.jpg'></img></p>","null","","1549641099337","4","","","","","",""
"null","","html-keyboard-response","220","3329282","0.0-6.0-5.11","COGS219_2019_06","<p><img class= 'stimulus' src='images/baseline/flooded-bridge.jpg'></img></p>","null","","1549641099438","","","","","","",""
"null","","html-keyboard-response","221","3329383","0.0-6.0-6.11","COGS219_2019_06","<p><img class= 'stimulus' src='images/target/pexels-photo-236294.jpeg'></img></p>","null","","1549641099537","6","","","","","",""
"null","","html-keyboard-response","222","3329483","0.0-6.0-7.11","COGS219_2019_06","<p><img class= 'stimulus' src='images/baseline/Happy pose 3.jpg'></img></p>","null","","1549641099637","","","","","","",""
"null","","html-keyboard-response","223","3329583","0.0-6.0-8.11","COGS219_2019_06","<p><img class= 'stimulus' src='images/baseline/03148v.jpg'></img></p>","null","","1549641099737","8","","","","","",""
"null","","html-keyboard-response","224","3329683","0.0-6.0-9.11","COGS219_2019_06","<p><img class= 'stimulus' src='images/baseline/Cold 7.jpg'></img></p>","null","","1549641099838","","","","","","",""
"null","","html-keyboard-response","225","3329783","0.0-6.0-10.11","COGS219_2019_06","<p><img class= 'stimulus' src='images/baseline/Lake 13.jpg'></img></p>","null","","1549641099939","","","","","","",""
"null","","html-keyboard-response","226","3329883","0.0-6.0-11.11","COGS219_2019_06","<p><img class= 'stimulus' src='images/baseline/Sunset 3.jpg'></img></p>","null","","1549641100038","","","","","","",""
"null","","html-keyboard-response","227","3329983","0.0-6.0-12.11","COGS219_2019_06","<p><img class= 'stimulus' src='images/baseline/05280v.jpg'></img></p>","null","","1549641100138","12","","","","","",""
"null","","html-keyboard-response","228","3330083","0.0-6.0-13.11","COGS219_2019_06","<p><img class= 'stimulus' src='images/baseline/05179v.jpg'></img></p>","null","","1549641100238","","","","","","",""
"null","","html-keyboard-response","229","3330183","0.0-6.0-14.11","COGS219_2019_06","<p><img class= 'stimulus' src='images/baseline/04098v.jpg'></img></p>","null","","1549641100339","14","","","","","",""
"null","","html-keyboard-response","230","3330286","0.0-6.0-15.11","COGS219_2019_06","<p><img class= 'stimulus' src='images/baseline/meadow-with-mountain-in-background.jpg'></img></p>","null","","1549641100439","","","","","","",""
"null","","html-keyboard-response","231","3330387","0.0-6.0-16.11","COGS219_2019_06","<p><img class= 'stimulus' src='images/baseline/pexels-photo-414491.jpeg'></img></p>","null","","1549641100541","","","","","","",""
"null","","html-keyboard-response","232","3330503","0.0-6.0-17.11","COGS219_2019_06","<p><img class= 'stimulus' src='images/baseline/building8.jpg'></img></p>","null","","1549641100641","","","","","","",""
"1475","","html-button-response","233","3332983","0.0-6.0-18.11","COGS219_2019_06","<div class = ""response_question"">WAS THE IMAGE ROTATED...</div>","","3","","","4","2","bas","right","practice","true"
"2102.3000000002794","","html-button-response","234","3335087","0.0-6.0-0.12","COGS219_2019_06","","","0","","","","","","","",""
"null","","html-keyboard-response","235","3335169","0.0-6.0-1.12","COGS219_2019_06","<p><img class= 'stimulus' src='images/baseline/Street 4.jpg'></img></p>","null","","1549641105325","","","","","","",""
"null","","html-keyboard-response","236","3335270","0.0-6.0-2.12","COGS219_2019_06","<p><img class= 'stimulus' src='images/baseline/sunny-landscape-with-dry-brush-and-mountain-background.jpg'></img></p>","null","","1549641105424","","","","","","",""
"null","","html-keyboard-response","237","3335369","0.0-6.0-3.12","COGS219_2019_06","<p><img class= 'stimulus' src='images/baseline/dirt-road-or-trail-through-park.jpg'></img></p>","null","","1549641105524","","","","","","",""
"null","","html-keyboard-response","238","3335468","0.0-6.0-4.12","COGS219_2019_06","<p><img class= 'stimulus' src='images/baseline/05186v.jpg'></img></p>","null","","1549641105625","4","","","","","",""
"null","","html-keyboard-response","239","3335569","0.0-6.0-5.12","COGS219_2019_06","<p><img class= 'stimulus' src='images/baseline/red-rocks-park.jpg'></img></p>","null","","1549641105725","","","","","","",""
"null","","html-keyboard-response","240","3335670","0.0-6.0-6.12","COGS219_2019_06","<p><img class= 'stimulus' src='images/baseline/05158v.jpg'></img></p>","null","","1549641105825","6","","","","","",""
"null","","html-keyboard-response","241","3335769","0.0-6.0-7.12","COGS219_2019_06","<p><img class= 'stimulus' src='images/baseline/Paysage_karabagh_02.jpg'></img></p>","null","","1549641105925","","","","","","",""
"null","","html-keyboard-response","242","3335868","0.0-6.0-8.12","COGS219_2019_06","<p><img class= 'stimulus' src='images/baseline/field 1.jpg'></img></p>","null","","1549641106025","8","","","","","",""
"null","","html-keyboard-response","243","3335968","0.0-6.0-9.12","COGS219_2019_06","<p><img class= 'stimulus' src='images/baseline/05167v.jpg'></img></p>","null","","1549641106124","","","","","","",""
"null","","html-keyboard-response","244","3336069","0.0-6.0-10.12","COGS219_2019_06","<p><img class= 'stimulus' src='images/baseline/house2.jpg'></img></p>","null","","1549641106225","","","","","","",""
"null","","html-keyboard-response","245","3336169","0.0-6.0-11.12","COGS219_2019_06","<p><img class= 'stimulus' src='images/baseline/road 1(1).jpg'></img></p>","null","","1549641106325","","","","","","",""
"null","","html-keyboard-response","246","3336269","0.0-6.0-12.12","COGS219_2019_06","<p><img class= 'stimulus left-rotate' src='images/target/fishhouse.jpg'></img></p>","null","","1549641106425","12","","","","","",""
"null","","html-keyboard-response","247","3336369","0.0-6.0-13.12","COGS219_2019_06","<p><img class= 'stimulus' src='images/baseline/Camping 10.jpg'></img></p>","null","","1549641106525","","","","","","",""
"null","","html-keyboard-response","248","3336469","0.0-6.0-14.12","COGS219_2019_06","<p><img class= 'stimulus' src='images/baseline/Lake 3.jpg'></img></p>","null","","1549641106625","14","","","","","",""
"null","","html-keyboard-response","249","3336568","0.0-6.0-15.12","COGS219_2019_06","<p><img class= 'stimulus' src='images/baseline/farmhouse6.jpg'></img></p>","null","","1549641106725","","","","","","",""
"null","","html-keyboard-response","250","3336669","0.0-6.0-16.12","COGS219_2019_06","<p><img class= 'stimulus' src='images/baseline/Road 1.jpg'></img></p>","null","","1549641106824","","","","","","",""
"null","","html-keyboard-response","251","3336786","0.0-6.0-17.12","COGS219_2019_06","<p><img class= 'stimulus' src='images/baseline/Sunset 5.jpg'></img></p>","null","","1549641106925","","","","","","",""
"1403.1000000000931","","html-button-response","252","3339200","0.0-6.0-18.12","COGS219_2019_06","<div class = ""response_question"">WAS THE IMAGE ROTATED...</div>","","5","","","4","8","bas","left","practice","false"
"3534.2999999998137","","html-button-response","253","3342735","0.0-6.0-0.13","COGS219_2019_06","","","0","","","","","","","",""
"null","","html-keyboard-response","254","3342819","0.0-6.0-1.13","COGS219_2019_06","<p><img class= 'stimulus' src='images/baseline/Dirt 2.jpg'></img></p>","null","","1549641112976","","","","","","",""
"null","","html-keyboard-response","255","3342919","0.0-6.0-2.13","COGS219_2019_06","<p><img class= 'stimulus' src='images/baseline/landscape39.jpg'></img></p>","null","","1549641113075","","","","","","",""
"null","","html-keyboard-response","256","3343020","0.0-6.0-3.13","COGS219_2019_06","<p><img class= 'stimulus' src='images/baseline/02988v.jpg'></img></p>","null","","1549641113176","","","","","","",""
"null","","html-keyboard-response","257","3343120","0.0-6.0-4.13","COGS219_2019_06","<p><img class= 'stimulus' src='images/baseline/Lake 9.jpg'></img></p>","null","","1549641113274","4","","","","","",""
"null","","html-keyboard-response","258","3343220","0.0-6.0-5.13","COGS219_2019_06","<p><img class= 'stimulus' src='images/baseline/landscape37.jpg'></img></p>","null","","1549641113375","","","","","","",""
"null","","html-keyboard-response","259","3343319","0.0-6.0-6.13","COGS219_2019_06","<p><img class= 'stimulus' src='images/baseline/Kocherbaumwald-01.jpg'></img></p>","null","","1549641113475","6","","","","","",""
"null","","html-keyboard-response","260","3343420","0.0-6.0-7.13","COGS219_2019_06","<p><img class= 'stimulus' src='images/baseline/farmhouse11.jpg'></img></p>","null","","1549641113575","","","","","","",""
"null","","html-keyboard-response","261","3343519","0.0-6.0-8.13","COGS219_2019_06","<p><img class= 'stimulus' src='images/baseline/05255v.jpg'></img></p>","null","","1549641113675","8","","","","","",""
"null","","html-keyboard-response","262","3343619","0.0-6.0-9.13","COGS219_2019_06","<p><img class= 'stimulus' src='images/baseline/04201v.jpg'></img></p>","null","","1549641113775","","","","","","",""
"null","","html-keyboard-response","263","3343719","0.0-6.0-10.13","COGS219_2019_06","<p><img class= 'stimulus' src='images/baseline/04130v.jpg'></img></p>","null","","1549641113874","","","","","","",""
"null","","html-keyboard-response","264","3343819","0.0-6.0-11.13","COGS219_2019_06","<p><img class= 'stimulus' src='images/baseline/landscape1.jpg'></img></p>","null","","1549641113974","","","","","","",""
"null","","html-keyboard-response","265","3343919","0.0-6.0-12.13","COGS219_2019_06","<p><img class= 'stimulus' src='images/baseline/03056v.jpg'></img></p>","null","","1549641114075","12","","","","","",""
"null","","html-keyboard-response","266","3344019","0.0-6.0-13.13","COGS219_2019_06","<p><img class= 'stimulus' src='images/baseline/04086v.jpg'></img></p>","null","","1549641114175","","","","","","",""
"null","","html-keyboard-response","267","3344119","0.0-6.0-14.13","COGS219_2019_06","<p><img class= 'stimulus' src='images/target/building17.jpg'></img></p>","null","","1549641114275","14","","","","","",""
"null","","html-keyboard-response","268","3344219","0.0-6.0-15.13","COGS219_2019_06","<p><img class= 'stimulus' src='images/baseline/valley 2.jpg'></img></p>","null","","1549641114374","","","","","","",""
"null","","html-keyboard-response","269","3344319","0.0-6.0-16.13","COGS219_2019_06","<p><img class= 'stimulus' src='images/baseline/04284v.jpg'></img></p>","null","","1549641114475","","","","","","",""
"null","","html-keyboard-response","270","3344435","0.0-6.0-17.13","COGS219_2019_06","<p><img class= 'stimulus' src='images/baseline/Sunset 6.jpg'></img></p>","null","","1549641114575","","","","","","",""
"767.0999999996275","","html-button-response","271","3346207","0.0-6.0-18.13","COGS219_2019_06","<div class = ""response_question"">WAS THE IMAGE ROTATED...</div>","","5","","","6","8","bas","right","practice","false"
"3398.100000000559","","html-button-response","272","3349607","0.0-6.0-0.14","COGS219_2019_06","","","0","","","","","","","",""
"null","","html-keyboard-response","273","3349686","0.0-6.0-1.14","COGS219_2019_06","<p><img class= 'stimulus' src='images/baseline/building5.jpg'></img></p>","null","","1549641119842","","","","","","",""
"null","","html-keyboard-response","274","3349787","0.0-6.0-2.14","COGS219_2019_06","<p><img class= 'stimulus' src='images/baseline/house3.jpg'></img></p>","null","","1549641119941","","","","","","",""
"null","","html-keyboard-response","275","3349885","0.0-6.0-3.14","COGS219_2019_06","<p><img class= 'stimulus' src='images/baseline/lake3.jpg'></img></p>","null","","1549641120042","","","","","","",""
"null","","html-keyboard-response","276","3349985","0.0-6.0-4.14","COGS219_2019_06","<p><img class= 'stimulus' src='images/baseline/04222v.jpg'></img></p>","null","","1549641120142","4","","","","","",""
"null","","html-keyboard-response","277","3350086","0.0-6.0-5.14","COGS219_2019_06","<p><img class= 'stimulus' src='images/baseline/Peyto_Lake-Banff_NP-Canada.jpg'></img></p>","null","","1549641120241","","","","","","",""
"null","","html-keyboard-response","278","3350185","0.0-6.0-6.14","COGS219_2019_06","<p><img class= 'stimulus left-rotate' src='images/target/house-estate-1100x733.jpg'></img></p>","null","","1549641120343","6","","","","","",""
"null","","html-keyboard-response","279","3350278","0.0-6.0-7.14","COGS219_2019_06","<p><img class= 'stimulus' src='images/baseline/Skyscraper 1.jpg'></img></p>","null","","1549641120442","","","","","","",""
"null","","html-keyboard-response","280","3350385","0.0-6.0-8.14","COGS219_2019_06","<p><img class= 'stimulus' src='images/baseline/02945v.jpg'></img></p>","null","","1549641120533","8","","","","","",""
"null","","html-keyboard-response","281","3350486","0.0-6.0-9.14","COGS219_2019_06","<p><img class= 'stimulus' src='images/baseline/house6.jpg'></img></p>","null","","1549641120641","","","","","","",""
"null","","html-keyboard-response","282","3350586","0.0-6.0-10.14","COGS219_2019_06","<p><img class= 'stimulus' src='images/baseline/building16.jpg'></img></p>","null","","1549641120741","","","","","","",""
"null","","html-keyboard-response","283","3350686","0.0-6.0-11.14","COGS219_2019_06","<p><img class= 'stimulus' src='images/baseline/05240v.jpg'></img></p>","null","","1549641120842","","","","","","",""
"null","","html-keyboard-response","284","3350787","0.0-6.0-12.14","COGS219_2019_06","<p><img class= 'stimulus' src='images/baseline/landscape19.jpg'></img></p>","null","","1549641120941","12","","","","","",""
"null","","html-keyboard-response","285","3350886","0.0-6.0-13.14","COGS219_2019_06","<p><img class= 'stimulus' src='images/baseline/pexels-photo-894312.jpeg'></img></p>","null","","1549641121041","","","","","","",""
"null","","html-keyboard-response","286","3350986","0.0-6.0-14.14","COGS219_2019_06","<p><img class= 'stimulus' src='images/baseline/city-silhouette-at-sunset-871291580819Esw.jpg'></img></p>","null","","1549641121141","14","","","","","",""
"null","","html-keyboard-response","287","3351085","0.0-6.0-15.14","COGS219_2019_06","<p><img class= 'stimulus' src='images/baseline/04179v.jpg'></img></p>","null","","1549641121241","","","","","","",""
"null","","html-keyboard-response","288","3351186","0.0-6.0-16.14","COGS219_2019_06","<p><img class= 'stimulus' src='images/baseline/Freudenberg_sg_Switzerland.jpg'></img></p>","null","","1549641121342","","","","","","",""
"null","","html-keyboard-response","289","3351303","0.0-6.0-17.14","COGS219_2019_06","<p><img class= 'stimulus' src='images/baseline/04021v.jpg'></img></p>","null","","1549641121442","","","","","","",""
"661.7000000001863","","html-button-response","290","3352967","0.0-6.0-18.14","COGS219_2019_06","<div class = ""response_question"">WAS THE IMAGE ROTATED...</div>","","2","","","4","2","bas","left","practice","false"
"6301.5999999996275","","html-button-response","291","3359271","0.0-6.0-0.15","COGS219_2019_06","","","0","","","","","","","",""
"null","","html-keyboard-response","292","3359353","0.0-6.0-1.15","COGS219_2019_06","<p><img class= 'stimulus' src='images/baseline/landscape4.jpg'></img></p>","null","","1549641129510","","","","","","",""
"null","","html-keyboard-response","293","3359453","0.0-6.0-2.15","COGS219_2019_06","<p><img class= 'stimulus' src='images/baseline/Skijump 1.jpg'></img></p>","null","","1549641129609","","","","","","",""
"null","","html-keyboard-response","294","3359554","0.0-6.0-3.15","COGS219_2019_06","<p><img class= 'stimulus' src='images/baseline/Nature 1.jpg'></img></p>","null","","1549641129709","","","","","","",""
"null","","html-keyboard-response","295","3359653","0.0-6.0-4.15","COGS219_2019_06","<p><img class= 'stimulus' src='images/baseline/pexels-photo-534164.jpeg'></img></p>","null","","1549641129808","4","","","","","",""
"null","","html-keyboard-response","296","3359753","0.0-6.0-5.15","COGS219_2019_06","<p><img class= 'stimulus' src='images/baseline/Bridge 1.jpg'></img></p>","null","","1549641129908","","","","","","",""
"null","","html-keyboard-response","297","3359853","0.0-6.0-6.15","COGS219_2019_06","<p><img class= 'stimulus' src='images/baseline/kokkari-1523011968Xfr.jpg'></img></p>","null","","1549641130009","6","","","","","",""
"null","","html-keyboard-response","298","3359953","0.0-6.0-7.15","COGS219_2019_06","<p><img class= 'stimulus' src='images/baseline/Beach 8.jpg'></img></p>","null","","1549641130109","","","","","","",""
"null","","html-keyboard-response","299","3360052","0.0-6.0-8.15","COGS219_2019_06","<p><img class= 'stimulus' src='images/target/adventure-desert-landscape-6778.jpg'></img></p>","null","","1549641130208","8","","","","","",""
"null","","html-keyboard-response","300","3360153","0.0-6.0-9.15","COGS219_2019_06","<p><img class= 'stimulus' src='images/baseline/Lake 16.jpg'></img></p>","null","","1549641130309","","","","","","",""
"null","","html-keyboard-response","301","3360253","0.0-6.0-10.15","COGS219_2019_06","<p><img class= 'stimulus' src='images/baseline/pexels-photo-280222.jpeg'></img></p>","null","","1549641130409","","","","","","",""
"null","","html-keyboard-response","302","3360353","0.0-6.0-11.15","COGS219_2019_06","<p><img class= 'stimulus' src='images/baseline/agriculture-countryside-crop-259280.jpg'></img></p>","null","","1549641130508","","","","","","",""
"null","","html-keyboard-response","303","3360453","0.0-6.0-12.15","COGS219_2019_06","<p><img class= 'stimulus' src='images/baseline/town-square-in-wroclaw-1539098440MZy.jpg'></img></p>","null","","1549641130608","12","","","","","",""
"null","","html-keyboard-response","304","3360553","0.0-6.0-13.15","COGS219_2019_06","<p><img class= 'stimulus' src='images/baseline/farmhouse2.jpg'></img></p>","null","","1549641130709","","","","","","",""
"null","","html-keyboard-response","305","3360653","0.0-6.0-14.15","COGS219_2019_06","<p><img class= 'stimulus' src='images/baseline/04010v.jpg'></img></p>","null","","1549641130809","14","","","","","",""
"null","","html-keyboard-response","306","3360753","0.0-6.0-15.15","COGS219_2019_06","<p><img class= 'stimulus' src='images/baseline/04064v.jpg'></img></p>","null","","1549641130909","","","","","","",""
"null","","html-keyboard-response","307","3360853","0.0-6.0-16.15","COGS219_2019_06","<p><img class= 'stimulus' src='images/baseline/03114v.jpg'></img></p>","null","","1549641131008","","","","","","",""
"null","","html-keyboard-response","308","3360969","0.0-6.0-17.15","COGS219_2019_06","<p><img class= 'stimulus' src='images/baseline/03212v.jpg'></img></p>","null","","1549641131109","","","","","","",""
"1038.8999999999069","","html-button-response","309","3363016","0.0-6.0-18.15","COGS219_2019_06","<div class = ""response_question"">WAS THE IMAGE ROTATED...</div>","","3","","","6","2","bas","right","practice","true"
"273774.3999999999","","html-button-response","310","3636790","0.0-7.0","COGS219_2019_06","<p>You have now completed the practice phase. We will now begin the real trials.         This is a reminder that you will be searching for a rotated image among the series of upright images.</p>         <p>Remember, please do not blink or move your eyes while the images are on the screen.</p>         <p>At the end of the experiment, the experimenter will be able to show you how accurate you were.</p>","","0","","","","","","","",""
"3462.399999999907","","html-button-response","311","3640254","0.0-8.0-0.0-0.0","COGS219_2019_06","","","0","","","","","","","",""
"null","","html-keyboard-response","312","3640338","0.0-8.0-0.0-1.0","COGS219_2019_06","<p><img class= 'stimulus' src='images/baseline/04031v.jpg'></img></p>","null","","1549641410494","","","","","","",""
"null","","html-keyboard-response","313","3640438","0.0-8.0-0.0-2.0","COGS219_2019_06","<p><img class= 'stimulus' src='images/baseline/pexels-photo-1837621.jpeg'></img></p>","null","","1549641410593","","","","","","",""
"null","","html-keyboard-response","314","3640538","0.0-8.0-0.0-3.0","COGS219_2019_06","<p><img class= 'stimulus' src='images/baseline/03217v.jpg'></img></p>","null","","1549641410695","","","","","","",""
"null","","html-keyboard-response","315","3640639","0.0-8.0-0.0-4.0","COGS219_2019_06","<p><img class= 'stimulus' src='images/neutral/Dancing 3.jpg'></img></p>","null","","1549641410794","4","","","","","",""
"null","","html-keyboard-response","316","3640737","0.0-8.0-0.0-5.0","COGS219_2019_06","<p><img class= 'stimulus' src='images/baseline/03075v.jpg'></img></p>","null","","1549641410894","","","","","","",""
"null","","html-keyboard-response","317","3640837","0.0-8.0-0.0-6.0","COGS219_2019_06","<p><img class= 'stimulus' src='images/target/shotstash_0036-1-1100x734.jpg'></img></p>","null","","1549641410995","6","","","","","",""
"null","","html-keyboard-response","318","3640939","0.0-8.0-0.0-7.0","COGS219_2019_06","<p><img class= 'stimulus' src='images/baseline/Lake 5.jpg'></img></p>","null","","1549641411093","","","","","","",""
"null","","html-keyboard-response","319","3641038","0.0-8.0-0.0-8.0","COGS219_2019_06","<p><img class= 'stimulus' src='images/baseline/pexels-photo-894312.jpeg'></img></p>","null","","1549641411193","8","","","","","",""
"null","","html-keyboard-response","320","3641137","0.0-8.0-0.0-9.0","COGS219_2019_06","<p><img class= 'stimulus' src='images/baseline/building5.jpg'></img></p>","null","","1549641411294","","","","","","",""
"null","","html-keyboard-response","321","3641238","0.0-8.0-0.0-10.0","COGS219_2019_06","<p><img class= 'stimulus' src='images/baseline/Peyto_Lake-Banff_NP-Canada.jpg'></img></p>","null","","1549641411393","","","","","","",""
"null","","html-keyboard-response","322","3641338","0.0-8.0-0.0-11.0","COGS219_2019_06","<p><img class= 'stimulus' src='images/baseline/dirt-road-or-trail-through-park.jpg'></img></p>","null","","1549641411493","","","","","","",""
"null","","html-keyboard-response","323","3641438","0.0-8.0-0.0-12.0","COGS219_2019_06","<p><img class= 'stimulus' src='images/baseline/landscape8.jpg'></img></p>","null","","1549641411593","12","","","","","",""
"null","","html-keyboard-response","324","3641539","0.0-8.0-0.0-13.0","COGS219_2019_06","<p><img class= 'stimulus' src='images/baseline/05252v.jpg'></img></p>","null","","1549641411693","","","","","","",""
"null","","html-keyboard-response","325","3641638","0.0-8.0-0.0-14.0","COGS219_2019_06","<p><img class= 'stimulus' src='images/baseline/Paysage_enneige_02.jpg'></img></p>","null","","1549641411793","14","","","","","",""
"null","","html-keyboard-response","326","3641739","0.0-8.0-0.0-15.0","COGS219_2019_06","<p><img class= 'stimulus' src='images/baseline/farmhouse9.jpg'></img></p>","null","","1549641411893","","","","","","",""
"null","","html-keyboard-response","327","3641838","0.0-8.0-0.0-16.0","COGS219_2019_06","<p><img class= 'stimulus' src='images/baseline/grand-teton-mountains.jpg'></img></p>","null","","1549641411994","","","","","","",""
"null","","html-keyboard-response","328","3641955","0.0-8.0-0.0-17.0","COGS219_2019_06","<p><img class= 'stimulus' src='images/baseline/Street 2.jpg'></img></p>","null","","1549641412093","","","","","","",""
"1641.7999999998137","","html-button-response","329","3644607","0.0-8.0-0.0-18.0","COGS219_2019_06","<div class = ""response_question"">WAS THE IMAGE ROTATED...</div>","","3","","","4","2","neu","right","test","true"
"1982.2999999998137","","html-button-response","330","3646590","0.0-8.0-0.0-0.1","COGS219_2019_06","","","0","","","","","","","",""
"null","","html-keyboard-response","331","3646672","0.0-8.0-0.0-1.1","COGS219_2019_06","<p><img class= 'stimulus' src='images/baseline/Street 3.jpg'></img></p>","null","","1549641416827","","","","","","",""
"null","","html-keyboard-response","332","3646772","0.0-8.0-0.0-2.1","COGS219_2019_06","<p><img class= 'stimulus' src='images/baseline/03066v.jpg'></img></p>","null","","1549641416927","","","","","","",""
"null","","html-keyboard-response","333","3646871","0.0-8.0-0.0-3.1","COGS219_2019_06","<p><img class= 'stimulus' src='images/baseline/field 2.jpg'></img></p>","null","","1549641417027","","","","","","",""
"null","","html-keyboard-response","334","3646972","0.0-8.0-0.0-4.1","COGS219_2019_06","<p><img class= 'stimulus' src='images/neutral/Dog 29.jpg'></img></p>","null","","1549641417127","4","","","","","",""
"null","","html-keyboard-response","335","3647072","0.0-8.0-0.0-5.1","COGS219_2019_06","<p><img class= 'stimulus' src='images/baseline/sunset-over-the-lake.jpg'></img></p>","null","","1549641417227","","","","","","",""
"null","","html-keyboard-response","336","3647172","0.0-8.0-0.0-6.1","COGS219_2019_06","<p><img class= 'stimulus' src='images/baseline/05279v.jpg'></img></p>","null","","1549641417327","6","","","","","",""
"null","","html-keyboard-response","337","3647272","0.0-8.0-0.0-7.1","COGS219_2019_06","<p><img class= 'stimulus' src='images/baseline/Street 4.jpg'></img></p>","null","","1549641417428","","","","","","",""
"null","","html-keyboard-response","338","3647372","0.0-8.0-0.0-8.1","COGS219_2019_06","<p><img class= 'stimulus' src='images/baseline/Grass 6.jpg'></img></p>","null","","1549641417527","8","","","","","",""
"null","","html-keyboard-response","339","3647472","0.0-8.0-0.0-9.1","COGS219_2019_06","<p><img class= 'stimulus' src='images/baseline/building2.jpg'></img></p>","null","","1549641417628","","","","","","",""
"null","","html-keyboard-response","340","3647571","0.0-8.0-0.0-10.1","COGS219_2019_06","<p><img class= 'stimulus' src='images/baseline/field 3.jpg'></img></p>","null","","1549641417728","","","","","","",""
"null","","html-keyboard-response","341","3647671","0.0-8.0-0.0-11.1","COGS219_2019_06","<p><img class= 'stimulus' src='images/baseline/hills 4.jpg'></img></p>","null","","1549641417828","","","","","","",""
"null","","html-keyboard-response","342","3647771","0.0-8.0-0.0-12.1","COGS219_2019_06","<p><img class= 'stimulus left-rotate' src='images/target/building4.jpg'></img></p>","null","","1549641417926","12","","","","","",""
"null","","html-keyboard-response","343","3647871","0.0-8.0-0.0-13.1","COGS219_2019_06","<p><img class= 'stimulus' src='images/baseline/05247v.jpg'></img></p>","null","","1549641418026","","","","","","",""
"null","","html-keyboard-response","344","3647971","0.0-8.0-0.0-14.1","COGS219_2019_06","<p><img class= 'stimulus' src='images/baseline/Lake 13.jpg'></img></p>","null","","1549641418128","14","","","","","",""
"null","","html-keyboard-response","345","3648073","0.0-8.0-0.0-15.1","COGS219_2019_06","<p><img class= 'stimulus' src='images/baseline/landscape4.jpg'></img></p>","null","","1549641418228","","","","","","",""
"null","","html-keyboard-response","346","3648171","0.0-8.0-0.0-16.1","COGS219_2019_06","<p><img class= 'stimulus' src='images/baseline/05145v.jpg'></img></p>","null","","1549641418328","","","","","","",""
"null","","html-keyboard-response","347","3648288","0.0-8.0-0.0-17.1","COGS219_2019_06","<p><img class= 'stimulus' src='images/baseline/pexels-photo-459203.jpeg'></img></p>","null","","1549641418427","","","","","","",""
"1267.6999999997206","","html-button-response","348","3650558","0.0-8.0-0.0-18.1","COGS219_2019_06","<div class = ""response_question"">WAS THE IMAGE ROTATED...</div>","","0","","","4","8","neu","left","test","true"
"4918.399999999907","","html-button-response","349","3655478","0.0-8.0-0.0-0.2","COGS219_2019_06","","","0","","","","","","","",""
"null","","html-keyboard-response","350","3655555","0.0-8.0-0.0-1.2","COGS219_2019_06","<p><img class= 'stimulus' src='images/baseline/Lake 9.jpg'></img></p>","null","","1549641425711","","","","","","",""
"null","","html-keyboard-response","351","3655654","0.0-8.0-0.0-2.2","COGS219_2019_06","<p><img class= 'stimulus' src='images/baseline/landscape6.jpg'></img></p>","null","","1549641425810","","","","","","",""
"null","","html-keyboard-response","352","3655756","0.0-8.0-0.0-3.2","COGS219_2019_06","<p><img class= 'stimulus' src='images/baseline/trees 23.jpg'></img></p>","null","","1549641425910","","","","","","",""
"null","","html-keyboard-response","353","3655856","0.0-8.0-0.0-4.2","COGS219_2019_06","<p><img class= 'stimulus' src='images/neutral/Penguins 2.jpg'></img></p>","null","","1549641426011","4","","","","","",""
"null","","html-keyboard-response","354","3655954","0.0-8.0-0.0-5.2","COGS219_2019_06","<p><img class= 'stimulus' src='images/baseline/pexels-photo-259280.jpeg'></img></p>","null","","1549641426110","","","","","","",""
"null","","html-keyboard-response","355","3656055","0.0-8.0-0.0-6.2","COGS219_2019_06","<p><img class= 'stimulus' src='images/target/skyscraper-3855012_640.jpg'></img></p>","null","","1549641426211","6","","","","","",""
"null","","html-keyboard-response","356","3656155","0.0-8.0-0.0-7.2","COGS219_2019_06","<p><img class= 'stimulus' src='images/baseline/pexels-photo-808465.jpeg'></img></p>","null","","1549641426310","","","","","","",""
"null","","html-keyboard-response","357","3656254","0.0-8.0-0.0-8.2","COGS219_2019_06","<p><img class= 'stimulus' src='images/baseline/Dock 1.jpg'></img></p>","null","","1549641426410","8","","","","","",""
"null","","html-keyboard-response","358","3656355","0.0-8.0-0.0-9.2","COGS219_2019_06","<p><img class= 'stimulus' src='images/baseline/04284v.jpg'></img></p>","null","","1549641426510","","","","","","",""
"null","","html-keyboard-response","359","3656455","0.0-8.0-0.0-10.2","COGS219_2019_06","<p><img class= 'stimulus' src='images/baseline/pexels-photo-414491.jpeg'></img></p>","null","","1549641426610","","","","","","",""
"null","","html-keyboard-response","360","3656555","0.0-8.0-0.0-11.2","COGS219_2019_06","<p><img class= 'stimulus' src='images/baseline/Lake 16.jpg'></img></p>","null","","1549641426710","","","","","","",""
"null","","html-keyboard-response","361","3656655","0.0-8.0-0.0-12.2","COGS219_2019_06","<p><img class= 'stimulus' src='images/baseline/03056v.jpg'></img></p>","null","","1549641426810","12","","","","","",""
"null","","html-keyboard-response","362","3656755","0.0-8.0-0.0-13.2","COGS219_2019_06","<p><img class= 'stimulus' src='images/baseline/flooded-bridge.jpg'></img></p>","null","","1549641426910","","","","","","",""
"null","","html-keyboard-response","363","3656855","0.0-8.0-0.0-14.2","COGS219_2019_06","<p><img class= 'stimulus' src='images/baseline/farmhouse3.jpg'></img></p>","null","","1549641427010","14","","","","","",""
"null","","html-keyboard-response","364","3656955","0.0-8.0-0.0-15.2","COGS219_2019_06","<p><img class= 'stimulus' src='images/baseline/05179v.jpg'></img></p>","null","","1549641427110","","","","","","",""
"null","","html-keyboard-response","365","3657055","0.0-8.0-0.0-16.2","COGS219_2019_06","<p><img class= 'stimulus' src='images/baseline/farmhouse7.jpg'></img></p>","null","","1549641427210","","","","","","",""
"null","","html-keyboard-response","366","3657172","0.0-8.0-0.0-17.2","COGS219_2019_06","<p><img class= 'stimulus' src='images/baseline/house8.jpg'></img></p>","null","","1549641427311","","","","","","",""
"1147.3000000002794","","html-button-response","367","3659327","0.0-8.0-0.0-18.2","COGS219_2019_06","<div class = ""response_question"">WAS THE IMAGE ROTATED...</div>","","5","","","4","2","neu","right","test","false"
"1549.299999999348","","html-button-response","368","3660878","0.0-8.0-0.0-0.3","COGS219_2019_06","","","0","","","","","","","",""
"null","","html-keyboard-response","369","3660956","0.0-8.0-0.0-1.3","COGS219_2019_06","<p><img class= 'stimulus' src='images/baseline/05240v.jpg'></img></p>","null","","1549641431110","","","","","","",""
"null","","html-keyboard-response","370","3661054","0.0-8.0-0.0-2.3","COGS219_2019_06","<p><img class= 'stimulus' src='images/baseline/pexels-photo-750108.jpeg'></img></p>","null","","1549641431210","","","","","","",""
"null","","html-keyboard-response","371","3661155","0.0-8.0-0.0-3.3","COGS219_2019_06","<p><img class= 'stimulus' src='images/baseline/seoul-410266_1920.jpg'></img></p>","null","","1549641431310","","","","","","",""
"null","","html-keyboard-response","372","3661255","0.0-8.0-0.0-4.3","COGS219_2019_06","<p><img class= 'stimulus' src='images/baseline/meadow-with-mountain-in-background.jpg'></img></p>","null","","1549641431412","4","","","","","",""
"null","","html-keyboard-response","373","3661356","0.0-8.0-0.0-5.3","COGS219_2019_06","<p><img class= 'stimulus' src='images/baseline/landscape19.jpg'></img></p>","null","","1549641431511","","","","","","",""
"null","","html-keyboard-response","374","3661455","0.0-8.0-0.0-6.3","COGS219_2019_06","<p><img class= 'stimulus' src='images/negative/Shooting 1.jpg'></img></p>","null","","1549641431611","6","","","","","",""
"null","","html-keyboard-response","375","3661554","0.0-8.0-0.0-7.3","COGS219_2019_06","<p><img class= 'stimulus' src='images/baseline/landscape34.jpg'></img></p>","null","","1549641431710","","","","","","",""
"null","","html-keyboard-response","376","3661654","0.0-8.0-0.0-8.3","COGS219_2019_06","<p><img class= 'stimulus' src='images/baseline/02962v.jpg'></img></p>","null","","1549641431811","8","","","","","",""
"null","","html-keyboard-response","377","3661755","0.0-8.0-0.0-9.3","COGS219_2019_06","<p><img class= 'stimulus' src='images/baseline/02960v.jpg'></img></p>","null","","1549641431910","","","","","","",""
"null","","html-keyboard-response","378","3661854","0.0-8.0-0.0-10.3","COGS219_2019_06","<p><img class= 'stimulus' src='images/baseline/field 4.jpg'></img></p>","null","","1549641432011","","","","","","",""
"null","","html-keyboard-response","379","3661955","0.0-8.0-0.0-11.3","COGS219_2019_06","<p><img class= 'stimulus' src='images/baseline/Street 5.jpg'></img></p>","null","","1549641432111","","","","","","",""
"null","","html-keyboard-response","380","3662055","0.0-8.0-0.0-12.3","COGS219_2019_06","<p><img class= 'stimulus' src='images/baseline/05161v.jpg'></img></p>","null","","1549641432211","12","","","","","",""
"null","","html-keyboard-response","381","3662156","0.0-8.0-0.0-13.3","COGS219_2019_06","<p><img class= 'stimulus' src='images/baseline/Sailing 3.jpg'></img></p>","null","","1549641432310","","","","","","",""
"null","","html-keyboard-response","382","3662254","0.0-8.0-0.0-14.3","COGS219_2019_06","<p><img class= 'stimulus' src='images/target/tree spring.jpeg'></img></p>","null","","1549641432411","14","","","","","",""
"null","","html-keyboard-response","383","3662356","0.0-8.0-0.0-15.3","COGS219_2019_06","<p><img class= 'stimulus' src='images/baseline/pexels-photo-534164.jpeg'></img></p>","null","","1549641432511","","","","","","",""
"null","","html-keyboard-response","384","3662455","0.0-8.0-0.0-16.3","COGS219_2019_06","<p><img class= 'stimulus' src='images/baseline/pexels-photo-1048039.jpeg'></img></p>","null","","1549641432611","","","","","","",""
"null","","html-keyboard-response","385","3662571","0.0-8.0-0.0-17.3","COGS219_2019_06","<p><img class= 'stimulus' src='images/baseline/landscape37.jpg'></img></p>","null","","1549641432710","","","","","","",""
"2157.899999999441","","html-button-response","386","3665735","0.0-8.0-0.0-18.3","COGS219_2019_06","<div class = ""response_question"">WAS THE IMAGE ROTATED...</div>","","5","","","6","8","neg","right","test","false"
"2606.1999999997206","","html-button-response","387","3668342","0.0-8.0-0.0-0.4","COGS219_2019_06","","","0","","","","","","","",""
"null","","html-keyboard-response","388","3668422","0.0-8.0-0.0-1.4","COGS219_2019_06","<p><img class= 'stimulus' src='images/baseline/pexels-photo-210617.jpeg'></img></p>","null","","1549641438578","","","","","","",""
"null","","html-keyboard-response","389","3668522","0.0-8.0-0.0-2.4","COGS219_2019_06","<p><img class= 'stimulus' src='images/baseline/landscape15.jpg'></img></p>","null","","1549641438678","","","","","","",""
"null","","html-keyboard-response","390","3668621","0.0-8.0-0.0-3.4","COGS219_2019_06","<p><img class= 'stimulus' src='images/baseline/Skyscraper 1.jpg'></img></p>","null","","1549641438777","","","","","","",""
"null","","html-keyboard-response","391","3668721","0.0-8.0-0.0-4.4","COGS219_2019_06","<p><img class= 'stimulus' src='images/negative/Wolf 2.jpg'></img></p>","null","","1549641438878","4","","","","","",""
"null","","html-keyboard-response","392","3668821","0.0-8.0-0.0-5.4","COGS219_2019_06","<p><img class= 'stimulus' src='images/baseline/house3.jpg'></img></p>","null","","1549641438978","","","","","","",""
"null","","html-keyboard-response","393","3668922","0.0-8.0-0.0-6.4","COGS219_2019_06","<p><img class= 'stimulus left-rotate' src='images/target/lone-tree.png'></img></p>","null","","1549641439078","6","","","","","",""
"null","","html-keyboard-response","394","3669022","0.0-8.0-0.0-7.4","COGS219_2019_06","<p><img class= 'stimulus' src='images/baseline/building_at_national_conservation.jpg'></img></p>","null","","1549641439177","","","","","","",""
"null","","html-keyboard-response","395","3669122","0.0-8.0-0.0-8.4","COGS219_2019_06","<p><img class= 'stimulus' src='images/baseline/04117v.jpg'></img></p>","null","","1549641439278","8","","","","","",""
"null","","html-keyboard-response","396","3669222","0.0-8.0-0.0-9.4","COGS219_2019_06","<p><img class= 'stimulus' src='images/baseline/Beach 2.jpg'></img></p>","null","","1549641439378","","","","","","",""
"null","","html-keyboard-response","397","3669322","0.0-8.0-0.0-10.4","COGS219_2019_06","<p><img class= 'stimulus' src='images/baseline/church-silhouette-8712964986014Kb.jpg'></img></p>","null","","1549641439478","","","","","","",""
"null","","html-keyboard-response","398","3669422","0.0-8.0-0.0-11.4","COGS219_2019_06","<p><img class= 'stimulus' src='images/baseline/04014v.jpg'></img></p>","null","","1549641439577","","","","","","",""
"null","","html-keyboard-response","399","3669521","0.0-8.0-0.0-12.4","COGS219_2019_06","<p><img class= 'stimulus' src='images/baseline/05303v.jpg'></img></p>","null","","1549641439678","12","","","","","",""
"null","","html-keyboard-response","400","3669622","0.0-8.0-0.0-13.4","COGS219_2019_06","<p><img class= 'stimulus' src='images/baseline/landscape16.jpg'></img></p>","null","","1549641439777","","","","","","",""
"null","","html-keyboard-response","401","3669721","0.0-8.0-0.0-14.4","COGS219_2019_06","<p><img class= 'stimulus' src='images/baseline/Lake 4.jpg'></img></p>","null","","1549641439878","14","","","","","",""
"null","","html-keyboard-response","402","3669821","0.0-8.0-0.0-15.4","COGS219_2019_06","<p><img class= 'stimulus' src='images/baseline/pexels-photo-440731.jpeg'></img></p>","null","","1549641439977","","","","","","",""
"null","","html-keyboard-response","403","3669921","0.0-8.0-0.0-16.4","COGS219_2019_06","<p><img class= 'stimulus' src='images/baseline/Kocherbaumwald-01.jpg'></img></p>","null","","1549641440077","","","","","","",""
"null","","html-keyboard-response","404","3670039","0.0-8.0-0.0-17.4","COGS219_2019_06","<p><img class= 'stimulus' src='images/baseline/kokkari-1523011968Xfr.jpg'></img></p>","null","","1549641440177","","","","","","",""
"1611.1000000000931","","html-button-response","405","3672655","0.0-8.0-0.0-18.4","COGS219_2019_06","<div class = ""response_question"">WAS THE IMAGE ROTATED...</div>","","2","","","4","2","neg","left","test","false"
"9510.299999999814","","html-button-response","406","3682166","0.0-8.0-0.0-0.5","COGS219_2019_06","","","0","","","","","","","",""
"null","","html-keyboard-response","407","3682240","0.0-8.0-0.0-1.5","COGS219_2019_06","<p><img class= 'stimulus' src='images/baseline/05264v.jpg'></img></p>","null","","1549641452395","","","","","","",""
"null","","html-keyboard-response","408","3682340","0.0-8.0-0.0-2.5","COGS219_2019_06","<p><img class= 'stimulus' src='images/baseline/Lake 8.jpg'></img></p>","null","","1549641452496","","","","","","",""
"null","","html-keyboard-response","409","3682440","0.0-8.0-0.0-3.5","COGS219_2019_06","<p><img class= 'stimulus' src='images/baseline/sunny-landscape-with-dry-brush-and-mountain-background.jpg'></img></p>","null","","1549641452595","","","","","","",""
"null","","html-keyboard-response","410","3682540","0.0-8.0-0.0-4.5","COGS219_2019_06","<p><img class= 'stimulus' src='images/baseline/04085v.jpg'></img></p>","null","","1549641452697","4","","","","","",""
"null","","html-keyboard-response","411","3682639","0.0-8.0-0.0-5.5","COGS219_2019_06","<p><img class= 'stimulus' src='images/baseline/agriculture-cereal-clouds-175389.jpg'></img></p>","null","","1549641452796","","","","","","",""
"null","","html-keyboard-response","412","3682739","0.0-8.0-0.0-6.5","COGS219_2019_06","<p><img class= 'stimulus' src='images/baseline/building9.jpg'></img></p>","null","","1549641452896","6","","","","","",""
"null","","html-keyboard-response","413","3682839","0.0-8.0-0.0-7.5","COGS219_2019_06","<p><img class= 'stimulus' src='images/baseline/landscape1.jpg'></img></p>","null","","1549641452996","","","","","","",""
"null","","html-keyboard-response","414","3682940","0.0-8.0-0.0-8.5","COGS219_2019_06","<p><img class= 'stimulus' src='images/baseline/Linden,_paysage.jpg'></img></p>","null","","1549641453095","8","","","","","",""
"null","","html-keyboard-response","415","3683041","0.0-8.0-0.0-9.5","COGS219_2019_06","<p><img class= 'stimulus' src='images/baseline/pexels-photo-59321.jpeg'></img></p>","null","","1549641453195","","","","","","",""
"null","","html-keyboard-response","416","3683140","0.0-8.0-0.0-10.5","COGS219_2019_06","<p><img class= 'stimulus' src='images/baseline/04060v.jpg'></img></p>","null","","1549641453296","","","","","","",""
"null","","html-keyboard-response","417","3683241","0.0-8.0-0.0-11.5","COGS219_2019_06","<p><img class= 'stimulus' src='images/baseline/Sunset 4.jpg'></img></p>","null","","1549641453396","","","","","","",""
"null","","html-keyboard-response","418","3683339","0.0-8.0-0.0-12.5","COGS219_2019_06","<p><img class= 'stimulus' src='images/baseline/valley 1.jpg'></img></p>","null","","1549641453495","12","","","","","",""
"null","","html-keyboard-response","419","3683440","0.0-8.0-0.0-13.5","COGS219_2019_06","<p><img class= 'stimulus' src='images/baseline/03180v.jpg'></img></p>","null","","1549641453595","","","","","","",""
"null","","html-keyboard-response","420","3683539","0.0-8.0-0.0-14.5","COGS219_2019_06","<p><img class= 'stimulus' src='images/baseline/snowy tree.jpg'></img></p>","null","","1549641453695","14","","","","","",""
"null","","html-keyboard-response","421","3683640","0.0-8.0-0.0-15.5","COGS219_2019_06","<p><img class= 'stimulus' src='images/baseline/05255v.jpg'></img></p>","null","","1549641453795","","","","","","",""
"null","","html-keyboard-response","422","3683740","0.0-8.0-0.0-16.5","COGS219_2019_06","<p><img class= 'stimulus' src='images/baseline/Aletschgletscher-Eggishorn.jpg'></img></p>","null","","1549641453894","","","","","","",""
"null","","html-keyboard-response","423","3683857","0.0-8.0-0.0-17.5","COGS219_2019_06","<p><img class= 'stimulus' src='images/baseline/pexels-photo-541101.jpeg'></img></p>","null","","1549641453995","","","","","","",""
"1233.8999999999069","","html-button-response","424","3686095","0.0-8.0-0.0-18.5","COGS219_2019_06","<div class = ""response_question"">WAS THE IMAGE ROTATED...</div>","","2","","","null","null","null","null","test","null"
"4854.399999999907","","html-button-response","425","3690951","0.0-8.0-0.0-0.6","COGS219_2019_06","","","0","","","","","","","",""
"null","","html-keyboard-response","426","3691023","0.0-8.0-0.0-1.6","COGS219_2019_06","<p><img class= 'stimulus' src='images/baseline/Dirt 2.jpg'></img></p>","null","","1549641461178","","","","","","",""
"null","","html-keyboard-response","427","3691123","0.0-8.0-0.0-2.6","COGS219_2019_06","<p><img class= 'stimulus' src='images/baseline/house6.jpg'></img></p>","null","","1549641461278","","","","","","",""
"null","","html-keyboard-response","428","3691223","0.0-8.0-0.0-3.6","COGS219_2019_06","<p><img class= 'stimulus' src='images/baseline/landscape36.jpg'></img></p>","null","","1549641461379","","","","","","",""
"null","","html-keyboard-response","429","3691322","0.0-8.0-0.0-4.6","COGS219_2019_06","<p><img class= 'stimulus' src='images/baseline/house2.jpg'></img></p>","null","","1549641461479","4","","","","","",""
"null","","html-keyboard-response","430","3691423","0.0-8.0-0.0-5.6","COGS219_2019_06","<p><img class= 'stimulus' src='images/baseline/02971v.jpg'></img></p>","null","","1549641461579","","","","","","",""
"null","","html-keyboard-response","431","3691523","0.0-8.0-0.0-6.6","COGS219_2019_06","<p><img class= 'stimulus' src='images/negative/Boxing 1.jpg'></img></p>","null","","1549641461678","6","","","","","",""
"null","","html-keyboard-response","432","3691623","0.0-8.0-0.0-7.6","COGS219_2019_06","<p><img class= 'stimulus' src='images/baseline/building4.jpg'></img></p>","null","","1549641461779","","","","","","",""
"null","","html-keyboard-response","433","3691722","0.0-8.0-0.0-8.6","COGS219_2019_06","<p><img class= 'stimulus' src='images/baseline/Beach 8.jpg'></img></p>","null","","1549641461877","8","","","","","",""
"null","","html-keyboard-response","434","3691822","0.0-8.0-0.0-9.6","COGS219_2019_06","<p><img class= 'stimulus' src='images/baseline/Desert_View_Indian_Wells.jpg'></img></p>","null","","1549641461978","","","","","","",""
"null","","html-keyboard-response","435","3691924","0.0-8.0-0.0-10.6","COGS219_2019_06","<p><img class= 'stimulus' src='images/baseline/03045v.jpg'></img></p>","null","","1549641462079","","","","","","",""
"null","","html-keyboard-response","436","3692023","0.0-8.0-0.0-11.6","COGS219_2019_06","<p><img class= 'stimulus' src='images/baseline/farmhouse4.jpg'></img></p>","null","","1549641462179","","","","","","",""
"null","","html-keyboard-response","437","3692123","0.0-8.0-0.0-12.6","COGS219_2019_06","<p><img class= 'stimulus' src='images/baseline/04098v.jpg'></img></p>","null","","1549641462279","12","","","","","",""
"null","","html-keyboard-response","438","3692223","0.0-8.0-0.0-13.6","COGS219_2019_06","<p><img class= 'stimulus' src='images/baseline/farmhouse6.jpg'></img></p>","null","","1549641462378","","","","","","",""
"null","","html-keyboard-response","439","3692323","0.0-8.0-0.0-14.6","COGS219_2019_06","<p><img class= 'stimulus' src='images/target/tree-3563269_640.jpg'></img></p>","null","","1549641462479","14","","","","","",""
"null","","html-keyboard-response","440","3692423","0.0-8.0-0.0-15.6","COGS219_2019_06","<p><img class= 'stimulus' src='images/baseline/Lake 15.jpg'></img></p>","null","","1549641462578","","","","","","",""
"null","","html-keyboard-response","441","3692524","0.0-8.0-0.0-16.6","COGS219_2019_06","<p><img class= 'stimulus' src='images/baseline/lone-old-cottonwood-tree.jpg'></img></p>","null","","1549641462679","","","","","","",""
"null","","html-keyboard-response","442","3692640","0.0-8.0-0.0-17.6","COGS219_2019_06","<p><img class= 'stimulus' src='images/baseline/05292v.jpg'></img></p>","null","","1549641462779","","","","","","",""
"1788.6000000000931","","html-button-response","443","3695431","0.0-8.0-0.0-18.6","COGS219_2019_06","<div class = ""response_question"">WAS THE IMAGE ROTATED...</div>","","3","","","6","8","neg","right","test","true"
"3470.3000000002794","","html-button-response","444","3698903","0.0-8.0-0.0-0.7","COGS219_2019_06","","","0","","","","","","","",""
"null","","html-keyboard-response","445","3698990","0.0-8.0-0.0-1.7","COGS219_2019_06","<p><img class= 'stimulus' src='images/baseline/04158v.jpg'></img></p>","null","","1549641469146","","","","","","",""
"null","","html-keyboard-response","446","3699090","0.0-8.0-0.0-2.7","COGS219_2019_06","<p><img class= 'stimulus' src='images/baseline/landscape7.jpg'></img></p>","null","","1549641469245","","","","","","",""
"null","","html-keyboard-response","447","3699190","0.0-8.0-0.0-3.7","COGS219_2019_06","<p><img class= 'stimulus' src='images/baseline/04179v.jpg'></img></p>","null","","1549641469346","","","","","","",""
"null","","html-keyboard-response","448","3699291","0.0-8.0-0.0-4.7","COGS219_2019_06","<p><img class= 'stimulus' src='images/baseline/sun-through-winter-tree-branches1.jpg'></img></p>","null","","1549641469446","4","","","","","",""
"null","","html-keyboard-response","449","3699390","0.0-8.0-0.0-5.7","COGS219_2019_06","<p><img class= 'stimulus' src='images/baseline/landscape12.jpg'></img></p>","null","","1549641469545","","","","","","",""
"null","","html-keyboard-response","450","3699489","0.0-8.0-0.0-6.7","COGS219_2019_06","<p><img class= 'stimulus' src='images/baseline/landscape39.jpg'></img></p>","null","","1549641469645","6","","","","","",""
"null","","html-keyboard-response","451","3699590","0.0-8.0-0.0-7.7","COGS219_2019_06","<p><img class= 'stimulus' src='images/baseline/pexels-photo-568236.jpeg'></img></p>","null","","1549641469747","","","","","","",""
"null","","html-keyboard-response","452","3699690","0.0-8.0-0.0-8.7","COGS219_2019_06","<p><img class= 'stimulus' src='images/baseline/03148v.jpg'></img></p>","null","","1549641469845","8","","","","","",""
"null","","html-keyboard-response","453","3699789","0.0-8.0-0.0-9.7","COGS219_2019_06","<p><img class= 'stimulus' src='images/baseline/Bridge 1.jpg'></img></p>","null","","1549641469945","","","","","","",""
"null","","html-keyboard-response","454","3699890","0.0-8.0-0.0-10.7","COGS219_2019_06","<p><img class= 'stimulus' src='images/baseline/05242v.jpg'></img></p>","null","","1549641470046","","","","","","",""
"null","","html-keyboard-response","455","3699990","0.0-8.0-0.0-11.7","COGS219_2019_06","<p><img class= 'stimulus' src='images/baseline/architecture-1314416_1920.jpg'></img></p>","null","","1549641470145","","","","","","",""
"null","","html-keyboard-response","456","3700090","0.0-8.0-0.0-12.7","COGS219_2019_06","<p><img class= 'stimulus' src='images/baseline/03112v.jpg'></img></p>","null","","1549641470247","12","","","","","",""
"null","","html-keyboard-response","457","3700190","0.0-8.0-0.0-13.7","COGS219_2019_06","<p><img class= 'stimulus' src='images/baseline/04021v.jpg'></img></p>","null","","1549641470345","","","","","","",""
"null","","html-keyboard-response","458","3700289","0.0-8.0-0.0-14.7","COGS219_2019_06","<p><img class= 'stimulus' src='images/target/dubai-1113262_640.jpg'></img></p>","null","","1549641470445","14","","","","","",""
"null","","html-keyboard-response","459","3700389","0.0-8.0-0.0-15.7","COGS219_2019_06","<p><img class= 'stimulus' src='images/baseline/scenic-mountain-landscape.jpg'></img></p>","null","","1549641470546","","","","","","",""
"null","","html-keyboard-response","460","3700490","0.0-8.0-0.0-16.7","COGS219_2019_06","<p><img class= 'stimulus' src='images/baseline/landscape40.jpg'></img></p>","null","","1549641470644","","","","","","",""
"null","","html-keyboard-response","461","3700607","0.0-8.0-0.0-17.7","COGS219_2019_06","<p><img class= 'stimulus' src='images/baseline/river 1.jpg'></img></p>","null","","1549641470745","","","","","","",""
"1429.1000000005588","","html-button-response","462","3703040","0.0-8.0-0.0-18.7","COGS219_2019_06","<div class = ""response_question"">WAS THE IMAGE ROTATED...</div>","","4","","","6","8","bas","right","test","true"
"2942","","html-button-response","463","3705983","0.0-8.0-0.0-0.8","COGS219_2019_06","","","0","","","","","","","",""
"null","","html-keyboard-response","464","3706056","0.0-8.0-0.0-1.8","COGS219_2019_06","<p><img class= 'stimulus' src='images/baseline/04201v.jpg'></img></p>","null","","1549641476211","","","","","","",""
"null","","html-keyboard-response","465","3706156","0.0-8.0-0.0-2.8","COGS219_2019_06","<p><img class= 'stimulus' src='images/baseline/landscape11.jpg'></img></p>","null","","1549641476311","","","","","","",""
"null","","html-keyboard-response","466","3706256","0.0-8.0-0.0-3.8","COGS219_2019_06","<p><img class= 'stimulus' src='images/baseline/red rocks from afar.jpg'></img></p>","null","","1549641476411","","","","","","",""
"null","","html-keyboard-response","467","3706356","0.0-8.0-0.0-4.8","COGS219_2019_06","<p><img class= 'stimulus' src='images/baseline/05158v.jpg'></img></p>","null","","1549641476512","4","","","","","",""
"null","","html-keyboard-response","468","3706456","0.0-8.0-0.0-5.8","COGS219_2019_06","<p><img class= 'stimulus' src='images/baseline/03162v.jpg'></img></p>","null","","1549641476613","","","","","","",""
"null","","html-keyboard-response","469","3706556","0.0-8.0-0.0-6.8","COGS219_2019_06","<p><img class= 'stimulus left-rotate' src='images/target/tree-197536_640.jpg'></img></p>","null","","1549641476712","6","","","","","",""
"null","","html-keyboard-response","470","3706658","0.0-8.0-0.0-7.8","COGS219_2019_06","<p><img class= 'stimulus' src='images/baseline/road.jpg'></img></p>","null","","1549641476811","","","","","","",""
"null","","html-keyboard-response","471","3706756","0.0-8.0-0.0-8.8","COGS219_2019_06","<p><img class= 'stimulus' src='images/baseline/building16.jpg'></img></p>","null","","1549641476912","8","","","","","",""
"null","","html-keyboard-response","472","3706856","0.0-8.0-0.0-9.8","COGS219_2019_06","<p><img class= 'stimulus' src='images/baseline/Niinsaare_jarv.jpg'></img></p>","null","","1549641477012","","","","","","",""
"null","","html-keyboard-response","473","3706957","0.0-8.0-0.0-10.8","COGS219_2019_06","<p><img class= 'stimulus' src='images/baseline/04300v.jpg'></img></p>","null","","1549641477112","","","","","","",""
"null","","html-keyboard-response","474","3707056","0.0-8.0-0.0-11.8","COGS219_2019_06","<p><img class= 'stimulus' src='images/baseline/hills 1.jpg'></img></p>","null","","1549641477213","","","","","","",""
"null","","html-keyboard-response","475","3707156","0.0-8.0-0.0-12.8","COGS219_2019_06","<p><img class= 'stimulus' src='images/baseline/landscape31.jpg'></img></p>","null","","1549641477313","12","","","","","",""
"null","","html-keyboard-response","476","3707256","0.0-8.0-0.0-13.8","COGS219_2019_06","<p><img class= 'stimulus' src='images/baseline/Nature 1.jpg'></img></p>","null","","1549641477411","","","","","","",""
