"rt","responses","trial_type","trial_index","time_elapsed","internal_node_id","participant_id","stimulus","key_press","button_pressed","stim_onset","sequence_position","distractor_position","target_lag","distractor_type","target_orientation","phase","correct"
"6553.100000000086","{""Q0"":""COGS219_2019_22""}","survey-text","0","6557","0.0-0.0","COGS219_2019_22","","","","","","","","","","",""
"38222.2999999999","","html-keyboard-response","1","44789","0.0-1.0","COGS219_2019_22","Welcome to the experiment.","67","","","","","","","","",""
"2427.0999999998894","","html-button-response","2","47220","0.0-2.0","COGS219_2019_22","<p>Several images will be presented sequentially.        Each image will only be on the screen for about 100 milliseconds.</p>        <p> One of the images may be rotated 90 degrees right or left.        Watch for this image and remember if it is rotated right or left.</p>               <p>Images of people and animals will appear, and sometimes they will be unpleasant.        These will never be the rotated target image.</p>","","0","","","","","","","",""
"1238.3999999997322","","html-button-response","3","48459","0.0-3.0","COGS219_2019_22","<p><img class=""stimulus left-rotate"" src=""images/target/building17.jpg""></img></p><p>This is an example of an image rotated to the left.</p>","","0","","","","","","","",""
"783.0000000003638","","html-button-response","4","49244","0.0-4.0","COGS219_2019_22","<p><img class=""stimulus"" src=""images/target/building5.jpg""></img></p><p>This is an example of an image rotated to the right.</p>","","0","","","","","","","",""
"1366.8999999999942","","html-button-response","5","50612","0.0-5.0","COGS219_2019_22","<p>We will now begin a short practice session.</p>         <p>A + symbol will appear in the middle of the screen. Please fix your gaze on the center of the +, and then click the mouse button to begin the image sequence.</p>         <p>Please avoid blinking or eye movements while the images are on the screen.</p>        <p>The image sequence will start relatively slow. After a few sequences, it will speed up.</p>","","0","","","","","","","",""
"1342.5999999999476","","html-button-response","6","51955","0.0-6.0-0.0","COGS219_2019_22","","","0","","","","","","","",""
"null","","html-keyboard-response","7","52133","0.0-6.0-1.0","COGS219_2019_22","<p><img class= 'stimulus' src='images/baseline/empire-state-building.jpg'></img></p>","null","","1550522042741","","","","","","",""
"null","","html-keyboard-response","8","52333","0.0-6.0-2.0","COGS219_2019_22","<p><img class= 'stimulus' src='images/baseline/05280v.jpg'></img></p>","null","","1550522042941","","","","","","",""
"null","","html-keyboard-response","9","52534","0.0-6.0-3.0","COGS219_2019_22","<p><img class= 'stimulus' src='images/baseline/pexels-photo-1054289.jpeg'></img></p>","null","","1550522043141","","","","","","",""
"null","","html-keyboard-response","10","52733","0.0-6.0-4.0","COGS219_2019_22","<p><img class= 'stimulus' src='images/baseline/landscape6.jpg'></img></p>","null","","1550522043341","4","","","","","",""
"null","","html-keyboard-response","11","52932","0.0-6.0-5.0","COGS219_2019_22","<p><img class= 'stimulus' src='images/baseline/valley 1.jpg'></img></p>","null","","1550522043541","","","","","","",""
"null","","html-keyboard-response","12","53133","0.0-6.0-6.0","COGS219_2019_22","<p><img class= 'stimulus left-rotate' src='images/target/tree1.jpg'></img></p>","null","","1550522043742","6","","","","","",""
"null","","html-keyboard-response","13","53333","0.0-6.0-7.0","COGS219_2019_22","<p><img class= 'stimulus' src='images/baseline/building8.jpg'></img></p>","null","","1550522043942","","","","","","",""
"null","","html-keyboard-response","14","53533","0.0-6.0-8.0","COGS219_2019_22","<p><img class= 'stimulus' src='images/baseline/Street 3.jpg'></img></p>","null","","1550522044141","8","","","","","",""
"null","","html-keyboard-response","15","53733","0.0-6.0-9.0","COGS219_2019_22","<p><img class= 'stimulus' src='images/baseline/Skyscraper 2.jpg'></img></p>","null","","1550522044342","","","","","","",""
"null","","html-keyboard-response","16","53932","0.0-6.0-10.0","COGS219_2019_22","<p><img class= 'stimulus' src='images/baseline/pexels-photo-280222.jpeg'></img></p>","null","","1550522044542","","","","","","",""
"null","","html-keyboard-response","17","54133","0.0-6.0-11.0","COGS219_2019_22","<p><img class= 'stimulus' src='images/baseline/landscape13.jpg'></img></p>","null","","1550522044742","","","","","","",""
"null","","html-keyboard-response","18","54334","0.0-6.0-12.0","COGS219_2019_22","<p><img class= 'stimulus' src='images/baseline/04222v.jpg'></img></p>","null","","1550522044942","12","","","","","",""
"null","","html-keyboard-response","19","54534","0.0-6.0-13.0","COGS219_2019_22","<p><img class= 'stimulus' src='images/baseline/Kocherbaumwald-01.jpg'></img></p>","null","","1550522045143","","","","","","",""
"null","","html-keyboard-response","20","54733","0.0-6.0-14.0","COGS219_2019_22","<p><img class= 'stimulus' src='images/baseline/05264v.jpg'></img></p>","null","","1550522045342","14","","","","","",""
"null","","html-keyboard-response","21","54933","0.0-6.0-15.0","COGS219_2019_22","<p><img class= 'stimulus' src='images/baseline/Sailing 3.jpg'></img></p>","null","","1550522045543","","","","","","",""
"null","","html-keyboard-response","22","55133","0.0-6.0-16.0","COGS219_2019_22","<p><img class= 'stimulus' src='images/baseline/4k-wallpaper-agriculture-clouds-842711.jpg'></img></p>","null","","1550522045742","","","","","","",""
"null","","html-keyboard-response","23","55350","0.0-6.0-17.0","COGS219_2019_22","<p><img class= 'stimulus' src='images/baseline/Grass 6.jpg'></img></p>","null","","1550522045942","","","","","","",""
"893.7000000000844","","html-button-response","24","57259","0.0-6.0-18.0","COGS219_2019_22","<div class = ""response_question"">WAS THE IMAGE ROTATED...</div>","","0","","","4","2","bas","left","practice","true"
"1069.899999999965","","html-button-response","25","58331","0.0-6.0-0.1","COGS219_2019_22","","","0","","","","","","","",""
"null","","html-keyboard-response","26","58516","0.0-6.0-1.1","COGS219_2019_22","<p><img class= 'stimulus' src='images/baseline/Desert_View_Indian_Wells.jpg'></img></p>","null","","1550522049124","","","","","","",""
"null","","html-keyboard-response","27","58716","0.0-6.0-2.1","COGS219_2019_22","<p><img class= 'stimulus' src='images/baseline/04063v.jpg'></img></p>","null","","1550522049324","","","","","","",""
"null","","html-keyboard-response","28","58916","0.0-6.0-3.1","COGS219_2019_22","<p><img class= 'stimulus' src='images/baseline/Sunset 4.jpg'></img></p>","null","","1550522049524","","","","","","",""
"null","","html-keyboard-response","29","59117","0.0-6.0-4.1","COGS219_2019_22","<p><img class= 'stimulus' src='images/baseline/pexels-photo-534164.jpeg'></img></p>","null","","1550522049725","4","","","","","",""
"null","","html-keyboard-response","30","59316","0.0-6.0-5.1","COGS219_2019_22","<p><img class= 'stimulus' src='images/baseline/04014v.jpg'></img></p>","null","","1550522049925","","","","","","",""
"null","","html-keyboard-response","31","59516","0.0-6.0-6.1","COGS219_2019_22","<p><img class= 'stimulus' src='images/baseline/landscape38.jpg'></img></p>","null","","1550522050125","6","","","","","",""
"null","","html-keyboard-response","32","59717","0.0-6.0-7.1","COGS219_2019_22","<p><img class= 'stimulus' src='images/baseline/pexels-photo-750108.jpeg'></img></p>","null","","1550522050326","","","","","","",""
"null","","html-keyboard-response","33","59917","0.0-6.0-8.1","COGS219_2019_22","<p><img class= 'stimulus left-rotate' src='images/target/church-2306128_640.jpg'></img></p>","null","","1550522050524","8","","","","","",""
"null","","html-keyboard-response","34","60117","0.0-6.0-9.1","COGS219_2019_22","<p><img class= 'stimulus' src='images/baseline/pexels-photo-440731.jpeg'></img></p>","null","","1550522050725","","","","","","",""
"null","","html-keyboard-response","35","60317","0.0-6.0-10.1","COGS219_2019_22","<p><img class= 'stimulus' src='images/baseline/building2.jpg'></img></p>","null","","1550522050926","","","","","","",""
"null","","html-keyboard-response","36","60517","0.0-6.0-11.1","COGS219_2019_22","<p><img class= 'stimulus' src='images/baseline/05167v.jpg'></img></p>","null","","1550522051125","","","","","","",""
"null","","html-keyboard-response","37","60717","0.0-6.0-12.1","COGS219_2019_22","<p><img class= 'stimulus' src='images/baseline/lake3.jpg'></img></p>","null","","1550522051325","12","","","","","",""
"null","","html-keyboard-response","38","60916","0.0-6.0-13.1","COGS219_2019_22","<p><img class= 'stimulus' src='images/baseline/02960v.jpg'></img></p>","null","","1550522051525","","","","","","",""
"null","","html-keyboard-response","39","61117","0.0-6.0-14.1","COGS219_2019_22","<p><img class= 'stimulus' src='images/baseline/03217v.jpg'></img></p>","null","","1550522051726","14","","","","","",""
"null","","html-keyboard-response","40","61316","0.0-6.0-15.1","COGS219_2019_22","<p><img class= 'stimulus' src='images/baseline/Lake 9.jpg'></img></p>","null","","1550522051924","","","","","","",""
"null","","html-keyboard-response","41","61516","0.0-6.0-16.1","COGS219_2019_22","<p><img class= 'stimulus' src='images/baseline/house11.jpg'></img></p>","null","","1550522052124","","","","","","",""
"null","","html-keyboard-response","42","61733","0.0-6.0-17.1","COGS219_2019_22","<p><img class= 'stimulus' src='images/baseline/architecture-1314416_1920.jpg'></img></p>","null","","1550522052325","","","","","","",""
"1690.9999999997963","","html-button-response","43","64427","0.0-6.0-18.1","COGS219_2019_22","<div class = ""response_question"">WAS THE IMAGE ROTATED...</div>","","0","","","6","2","bas","left","practice","true"
"822.4000000000233","","html-button-response","44","65251","0.0-6.0-0.2","COGS219_2019_22","","","0","","","","","","","",""
"null","","html-keyboard-response","45","65434","0.0-6.0-1.2","COGS219_2019_22","<p><img class= 'stimulus' src='images/baseline/Lake 3.jpg'></img></p>","null","","1550522056041","","","","","","",""
"null","","html-keyboard-response","46","65633","0.0-6.0-2.2","COGS219_2019_22","<p><img class= 'stimulus' src='images/baseline/agriculture-countryside-crop-259280.jpg'></img></p>","null","","1550522056241","","","","","","",""
"null","","html-keyboard-response","47","65835","0.0-6.0-3.2","COGS219_2019_22","<p><img class= 'stimulus' src='images/baseline/04193v.jpg'></img></p>","null","","1550522056441","","","","","","",""
"null","","html-keyboard-response","48","66032","0.0-6.0-4.2","COGS219_2019_22","<p><img class= 'stimulus' src='images/baseline/04021v.jpg'></img></p>","null","","1550522056642","4","","","","","",""
"null","","html-keyboard-response","49","66233","0.0-6.0-5.2","COGS219_2019_22","<p><img class= 'stimulus' src='images/baseline/Beach 2.jpg'></img></p>","null","","1550522056842","","","","","","",""
"null","","html-keyboard-response","50","66433","0.0-6.0-6.2","COGS219_2019_22","<p><img class= 'stimulus' src='images/target/dubai-1113262_640.jpg'></img></p>","null","","1550522057041","6","","","","","",""
"null","","html-keyboard-response","51","66633","0.0-6.0-7.2","COGS219_2019_22","<p><img class= 'stimulus' src='images/baseline/architecture_modern_architecture_852928.jpg'></img></p>","null","","1550522057241","","","","","","",""
"null","","html-keyboard-response","52","66833","0.0-6.0-8.2","COGS219_2019_22","<p><img class= 'stimulus' src='images/baseline/05203v.jpg'></img></p>","null","","1550522057441","8","","","","","",""
"null","","html-keyboard-response","53","67033","0.0-6.0-9.2","COGS219_2019_22","<p><img class= 'stimulus' src='images/baseline/road 1(1).jpg'></img></p>","null","","1550522057641","","","","","","",""
"null","","html-keyboard-response","54","67233","0.0-6.0-10.2","COGS219_2019_22","<p><img class= 'stimulus' src='images/baseline/Skijump 1.jpg'></img></p>","null","","1550522057842","","","","","","",""
"null","","html-keyboard-response","55","67433","0.0-6.0-11.2","COGS219_2019_22","<p><img class= 'stimulus' src='images/baseline/04064v.jpg'></img></p>","null","","1550522058041","","","","","","",""
"null","","html-keyboard-response","56","67633","0.0-6.0-12.2","COGS219_2019_22","<p><img class= 'stimulus' src='images/baseline/pexels-photo-351264.jpeg'></img></p>","null","","1550522058241","12","","","","","",""
"null","","html-keyboard-response","57","67833","0.0-6.0-13.2","COGS219_2019_22","<p><img class= 'stimulus' src='images/baseline/03114v.jpg'></img></p>","null","","1550522058441","","","","","","",""
"null","","html-keyboard-response","58","68034","0.0-6.0-14.2","COGS219_2019_22","<p><img class= 'stimulus' src='images/baseline/architecture-956332_1280.jpg'></img></p>","null","","1550522058642","14","","","","","",""
"null","","html-keyboard-response","59","68233","0.0-6.0-15.2","COGS219_2019_22","<p><img class= 'stimulus' src='images/baseline/02945v.jpg'></img></p>","null","","1550522058841","","","","","","",""
"null","","html-keyboard-response","60","68433","0.0-6.0-16.2","COGS219_2019_22","<p><img class= 'stimulus' src='images/baseline/lookout_tower.jpg'></img></p>","null","","1550522059042","","","","","","",""
"null","","html-keyboard-response","61","68651","0.0-6.0-17.2","COGS219_2019_22","<p><img class= 'stimulus' src='images/baseline/pexels-photo-1048039.jpeg'></img></p>","null","","1550522059242","","","","","","",""
"523.3999999995867","","html-button-response","62","70187","0.0-6.0-18.2","COGS219_2019_22","<div class = ""response_question"">WAS THE IMAGE ROTATED...</div>","","3","","","4","2","bas","right","practice","true"
"878.2999999998428","","html-button-response","63","71067","0.0-6.0-0.3","COGS219_2019_22","","","0","","","","","","","",""
"null","","html-keyboard-response","64","71250","0.0-6.0-1.3","COGS219_2019_22","<p><img class= 'stimulus' src='images/baseline/Street 5.jpg'></img></p>","null","","1550522061858","","","","","","",""
"null","","html-keyboard-response","65","71449","0.0-6.0-2.3","COGS219_2019_22","<p><img class= 'stimulus' src='images/baseline/Street 2.jpg'></img></p>","null","","1550522062058","","","","","","",""
"null","","html-keyboard-response","66","71650","0.0-6.0-3.3","COGS219_2019_22","<p><img class= 'stimulus' src='images/baseline/Lake 15.jpg'></img></p>","null","","1550522062259","","","","","","",""
"null","","html-keyboard-response","67","71850","0.0-6.0-4.3","COGS219_2019_22","<p><img class= 'stimulus' src='images/baseline/Road 1.jpg'></img></p>","null","","1550522062458","4","","","","","",""
"null","","html-keyboard-response","68","72050","0.0-6.0-5.3","COGS219_2019_22","<p><img class= 'stimulus' src='images/baseline/Beach 8.jpg'></img></p>","null","","1550522062658","","","","","","",""
"null","","html-keyboard-response","69","72250","0.0-6.0-6.3","COGS219_2019_22","<p><img class= 'stimulus' src='images/baseline/autumn-in-red-rocks-park.jpg'></img></p>","null","","1550522062858","6","","","","","",""
"null","","html-keyboard-response","70","72450","0.0-6.0-7.3","COGS219_2019_22","<p><img class= 'stimulus' src='images/baseline/03045v.jpg'></img></p>","null","","1550522063058","","","","","","",""
"null","","html-keyboard-response","71","72649","0.0-6.0-8.3","COGS219_2019_22","<p><img class= 'stimulus' src='images/baseline/lake 1.jpg'></img></p>","null","","1550522063258","8","","","","","",""
"null","","html-keyboard-response","72","72849","0.0-6.0-9.3","COGS219_2019_22","<p><img class= 'stimulus' src='images/baseline/pexels-photo-427676.jpeg'></img></p>","null","","1550522063458","","","","","","",""
"null","","html-keyboard-response","73","73051","0.0-6.0-10.3","COGS219_2019_22","<p><img class= 'stimulus' src='images/baseline/03212v.jpg'></img></p>","null","","1550522063660","","","","","","",""
"null","","html-keyboard-response","74","73250","0.0-6.0-11.3","COGS219_2019_22","<p><img class= 'stimulus' src='images/baseline/landscape4.jpg'></img></p>","null","","1550522063859","","","","","","",""
"null","","html-keyboard-response","75","73450","0.0-6.0-12.3","COGS219_2019_22","<p><img class= 'stimulus left-rotate' src='images/target/lighthouse-843522_640.jpg'></img></p>","null","","1550522064059","12","","","","","",""
"null","","html-keyboard-response","76","73650","0.0-6.0-13.3","COGS219_2019_22","<p><img class= 'stimulus' src='images/baseline/05131v.jpg'></img></p>","null","","1550522064258","","","","","","",""
"null","","html-keyboard-response","77","73850","0.0-6.0-14.3","COGS219_2019_22","<p><img class= 'stimulus' src='images/baseline/pexels-photo-459203.jpeg'></img></p>","null","","1550522064458","14","","","","","",""
"null","","html-keyboard-response","78","74050","0.0-6.0-15.3","COGS219_2019_22","<p><img class= 'stimulus' src='images/baseline/pexels-photo-1837621.jpeg'></img></p>","null","","1550522064660","","","","","","",""
"null","","html-keyboard-response","79","74250","0.0-6.0-16.3","COGS219_2019_22","<p><img class= 'stimulus' src='images/baseline/building16.jpg'></img></p>","null","","1550522064858","","","","","","",""
"null","","html-keyboard-response","80","74467","0.0-6.0-17.3","COGS219_2019_22","<p><img class= 'stimulus' src='images/baseline/Nature 1.jpg'></img></p>","null","","1550522065058","","","","","","",""
"532.2999999998574","","html-button-response","81","76010","0.0-6.0-18.3","COGS219_2019_22","<div class = ""response_question"">WAS THE IMAGE ROTATED...</div>","","0","","","4","8","bas","left","practice","true"
"678.600000000195","","html-button-response","82","76691","0.0-6.0-0.4","COGS219_2019_22","","","0","","","","","","","",""
"null","","html-keyboard-response","83","76817","0.0-6.0-1.4","COGS219_2019_22","<p><img class= 'stimulus' src='images/baseline/04196v.jpg'></img></p>","null","","1550522067475","","","","","","",""
"null","","html-keyboard-response","84","76967","0.0-6.0-2.4","COGS219_2019_22","<p><img class= 'stimulus' src='images/baseline/pexels-photo-414491.jpeg'></img></p>","null","","1550522067626","","","","","","",""
"null","","html-keyboard-response","85","77116","0.0-6.0-3.4","COGS219_2019_22","<p><img class= 'stimulus' src='images/baseline/geese-flying-over-lake-at-dusk.jpg'></img></p>","null","","1550522067775","","","","","","",""
"null","","html-keyboard-response","86","77267","0.0-6.0-4.4","COGS219_2019_22","<p><img class= 'stimulus' src='images/baseline/landscape36.jpg'></img></p>","null","","1550522067925","4","","","","","",""
"null","","html-keyboard-response","87","77416","0.0-6.0-5.4","COGS219_2019_22","<p><img class= 'stimulus' src='images/baseline/Lake 7.jpg'></img></p>","null","","1550522068074","","","","","","",""
"null","","html-keyboard-response","88","77566","0.0-6.0-6.4","COGS219_2019_22","<p><img class= 'stimulus' src='images/baseline/Dock 1.jpg'></img></p>","null","","1550522068224","6","","","","","",""
"null","","html-keyboard-response","89","77716","0.0-6.0-7.4","COGS219_2019_22","<p><img class= 'stimulus' src='images/baseline/02947v.jpg'></img></p>","null","","1550522068375","","","","","","",""
"null","","html-keyboard-response","90","77866","0.0-6.0-8.4","COGS219_2019_22","<p><img class= 'stimulus' src='images/target/torrotito-375925_640.jpg'></img></p>","null","","1550522068525","8","","","","","",""
"null","","html-keyboard-response","91","78016","0.0-6.0-9.4","COGS219_2019_22","<p><img class= 'stimulus' src='images/baseline/cranes 1.jpg'></img></p>","null","","1550522068674","","","","","","",""
"null","","html-keyboard-response","92","78167","0.0-6.0-10.4","COGS219_2019_22","<p><img class= 'stimulus' src='images/baseline/Path 1.jpg'></img></p>","null","","1550522068824","","","","","","",""
"null","","html-keyboard-response","93","78316","0.0-6.0-11.4","COGS219_2019_22","<p><img class= 'stimulus' src='images/baseline/99_-_Machu_Picchu_-_Juin_2009.edit3.jpg'></img></p>","null","","1550522068974","","","","","","",""
"null","","html-keyboard-response","94","78466","0.0-6.0-12.4","COGS219_2019_22","<p><img class= 'stimulus' src='images/baseline/Niinsaare_jarv.jpg'></img></p>","null","","1550522069126","12","","","","","",""
"null","","html-keyboard-response","95","78616","0.0-6.0-13.4","COGS219_2019_22","<p><img class= 'stimulus' src='images/baseline/landscape2.jpg'></img></p>","null","","1550522069275","","","","","","",""
"null","","html-keyboard-response","96","78766","0.0-6.0-14.4","COGS219_2019_22","<p><img class= 'stimulus' src='images/baseline/town-square-in-wroclaw-1539098440MZy.jpg'></img></p>","null","","1550522069425","14","","","","","",""
"null","","html-keyboard-response","97","78916","0.0-6.0-15.4","COGS219_2019_22","<p><img class= 'stimulus' src='images/baseline/sun-through-winter-tree-branches1.jpg'></img></p>","null","","1550522069573","","","","","","",""
"null","","html-keyboard-response","98","79067","0.0-6.0-16.4","COGS219_2019_22","<p><img class= 'stimulus' src='images/baseline/04117v.jpg'></img></p>","null","","1550522069724","","","","","","",""
"null","","html-keyboard-response","99","79232","0.0-6.0-17.4","COGS219_2019_22","<p><img class= 'stimulus' src='images/baseline/field 4.jpg'></img></p>","null","","1550522069874","","","","","","",""
"856.0000000002183","","html-button-response","100","81091","0.0-6.0-18.4","COGS219_2019_22","<div class = ""response_question"">WAS THE IMAGE ROTATED...</div>","","4","","","6","2","bas","right","practice","true"
"702.4000000001251","","html-button-response","101","81795","0.0-6.0-0.5","COGS219_2019_22","","","0","","","","","","","",""
"null","","html-keyboard-response","102","81932","0.0-6.0-1.5","COGS219_2019_22","<p><img class= 'stimulus' src='images/baseline/03180v.jpg'></img></p>","null","","1550522072591","","","","","","",""
"null","","html-keyboard-response","103","82082","0.0-6.0-2.5","COGS219_2019_22","<p><img class= 'stimulus' src='images/baseline/05186v.jpg'></img></p>","null","","1550522072741","","","","","","",""
"null","","html-keyboard-response","104","82233","0.0-6.0-3.5","COGS219_2019_22","<p><img class= 'stimulus' src='images/baseline/pexels-photo-59321.jpeg'></img></p>","null","","1550522072891","","","","","","",""
"null","","html-keyboard-response","105","82383","0.0-6.0-4.5","COGS219_2019_22","<p><img class= 'stimulus' src='images/baseline/farmhouse2.jpg'></img></p>","null","","1550522073041","4","","","","","",""
"null","","html-keyboard-response","106","82533","0.0-6.0-5.5","COGS219_2019_22","<p><img class= 'stimulus' src='images/baseline/chicago-skyline-at-night-1476869511p8U.jpg'></img></p>","null","","1550522073190","","","","","","",""
"null","","html-keyboard-response","107","82682","0.0-6.0-6.5","COGS219_2019_22","<p><img class= 'stimulus' src='images/baseline/Waterfall 1.jpg'></img></p>","null","","1550522073341","6","","","","","",""
"null","","html-keyboard-response","108","82832","0.0-6.0-7.5","COGS219_2019_22","<p><img class= 'stimulus' src='images/baseline/house10.jpg'></img></p>","null","","1550522073491","","","","","","",""
"null","","html-keyboard-response","109","82983","0.0-6.0-8.5","COGS219_2019_22","<p><img class= 'stimulus' src='images/baseline/__08_-_ITALY_-_Forli_under_snow_-_winter_landscape_of_city_(christmas).jpg'></img></p>","null","","1550522073641","8","","","","","",""
"null","","html-keyboard-response","110","83132","0.0-6.0-9.5","COGS219_2019_22","<p><img class= 'stimulus' src='images/baseline/pexels-photo-808465.jpeg'></img></p>","null","","1550522073790","","","","","","",""
"null","","html-keyboard-response","111","83282","0.0-6.0-10.5","COGS219_2019_22","<p><img class= 'stimulus' src='images/baseline/04086v.jpg'></img></p>","null","","1550522073940","","","","","","",""
"null","","html-keyboard-response","112","83433","0.0-6.0-11.5","COGS219_2019_22","<p><img class= 'stimulus' src='images/baseline/farmhouse3.jpg'></img></p>","null","","1550522074090","","","","","","",""
"null","","html-keyboard-response","113","83582","0.0-6.0-12.5","COGS219_2019_22","<p><img class= 'stimulus' src='images/baseline/03075v.jpg'></img></p>","null","","1550522074241","12","","","","","",""
"null","","html-keyboard-response","114","83732","0.0-6.0-13.5","COGS219_2019_22","<p><img class= 'stimulus' src='images/baseline/seoul-410266_1920.jpg'></img></p>","null","","1550522074391","","","","","","",""
"null","","html-keyboard-response","115","83882","0.0-6.0-14.5","COGS219_2019_22","<p><img class= 'stimulus left-rotate' src='images/target/cactus2.jpg'></img></p>","null","","1550522074540","14","","","","","",""
"null","","html-keyboard-response","116","84032","0.0-6.0-15.5","COGS219_2019_22","<p><img class= 'stimulus' src='images/baseline/05303v.jpg'></img></p>","null","","1550522074691","","","","","","",""
"null","","html-keyboard-response","117","84182","0.0-6.0-16.5","COGS219_2019_22","<p><img class= 'stimulus' src='images/baseline/03066v.jpg'></img></p>","null","","1550522074842","","","","","","",""
"null","","html-keyboard-response","118","84350","0.0-6.0-17.5","COGS219_2019_22","<p><img class= 'stimulus' src='images/baseline/05189v.jpg'></img></p>","null","","1550522074991","","","","","","",""
"1395.1000000001804","","html-button-response","119","86747","0.0-6.0-18.5","COGS219_2019_22","<div class = ""response_question"">WAS THE IMAGE ROTATED...</div>","","0","","","6","8","bas","left","practice","true"
"598.5000000000582","","html-button-response","120","87346","0.0-6.0-0.6","COGS219_2019_22","","","0","","","","","","","",""
"null","","html-keyboard-response","121","87482","0.0-6.0-1.6","COGS219_2019_22","<p><img class= 'stimulus' src='images/baseline/04010v.jpg'></img></p>","null","","1550522078140","","","","","","",""
"null","","html-keyboard-response","122","87632","0.0-6.0-2.6","COGS219_2019_22","<p><img class= 'stimulus' src='images/baseline/lone-old-cottonwood-tree.jpg'></img></p>","null","","1550522078291","","","","","","",""
"null","","html-keyboard-response","123","87782","0.0-6.0-3.6","COGS219_2019_22","<p><img class= 'stimulus' src='images/baseline/Lake 8.jpg'></img></p>","null","","1550522078442","","","","","","",""
"null","","html-keyboard-response","124","87932","0.0-6.0-4.6","COGS219_2019_22","<p><img class= 'stimulus' src='images/baseline/03162v.jpg'></img></p>","null","","1550522078590","4","","","","","",""
"null","","html-keyboard-response","125","88082","0.0-6.0-5.6","COGS219_2019_22","<p><img class= 'stimulus' src='images/baseline/scenic-mountain-landscape.jpg'></img></p>","null","","1550522078741","","","","","","",""
"null","","html-keyboard-response","126","88233","0.0-6.0-6.6","COGS219_2019_22","<p><img class= 'stimulus' src='images/baseline/Camping 10.jpg'></img></p>","null","","1550522078892","6","","","","","",""
"null","","html-keyboard-response","127","88382","0.0-6.0-7.6","COGS219_2019_22","<p><img class= 'stimulus' src='images/baseline/Lake 5.jpg'></img></p>","null","","1550522079041","","","","","","",""
"null","","html-keyboard-response","128","88532","0.0-6.0-8.6","COGS219_2019_22","<p><img class= 'stimulus' src='images/baseline/Bahia_Onelli_Parque_Nacional_Los_Glaciares_Patagonia_Argentina_Luca_Galuzzi_2005.jpg'></img></p>","null","","1550522079192","8","","","","","",""
"null","","html-keyboard-response","129","88682","0.0-6.0-9.6","COGS219_2019_22","<p><img class= 'stimulus' src='images/baseline/05247v.jpg'></img></p>","null","","1550522079341","","","","","","",""
"null","","html-keyboard-response","130","88832","0.0-6.0-10.6","COGS219_2019_22","<p><img class= 'stimulus' src='images/baseline/05292v.jpg'></img></p>","null","","1550522079491","","","","","","",""
"null","","html-keyboard-response","131","88982","0.0-6.0-11.6","COGS219_2019_22","<p><img class= 'stimulus' src='images/baseline/03098v.jpg'></img></p>","null","","1550522079642","","","","","","",""
"null","","html-keyboard-response","132","89133","0.0-6.0-12.6","COGS219_2019_22","<p><img class= 'stimulus' src='images/baseline/05145v.jpg'></img></p>","null","","1550522079791","12","","","","","",""
"null","","html-keyboard-response","133","89281","0.0-6.0-13.6","COGS219_2019_22","<p><img class= 'stimulus' src='images/baseline/Linden,_paysage.jpg'></img></p>","null","","1550522079942","","","","","","",""
"null","","html-keyboard-response","134","89433","0.0-6.0-14.6","COGS219_2019_22","<p><img class= 'stimulus' src='images/target/tree_1.jpg'></img></p>","null","","1550522080092","14","","","","","",""
"null","","html-keyboard-response","135","89582","0.0-6.0-15.6","COGS219_2019_22","<p><img class= 'stimulus' src='images/baseline/02988v.jpg'></img></p>","null","","1550522080242","","","","","","",""
"null","","html-keyboard-response","136","89732","0.0-6.0-16.6","COGS219_2019_22","<p><img class= 'stimulus' src='images/baseline/farmhouse6.jpg'></img></p>","null","","1550522080390","","","","","","",""
"null","","html-keyboard-response","137","89899","0.0-6.0-17.6","COGS219_2019_22","<p><img class= 'stimulus' src='images/baseline/02977v.jpg'></img></p>","null","","1550522080541","","","","","","",""
"804.2000000000407","","html-button-response","138","91707","0.0-6.0-18.6","COGS219_2019_22","<div class = ""response_question"">WAS THE IMAGE ROTATED...</div>","","3","","","6","8","bas","right","practice","true"
"558.3000000001484","","html-button-response","139","92267","0.0-6.0-0.7","COGS219_2019_22","","","0","","","","","","","",""
"null","","html-keyboard-response","140","92399","0.0-6.0-1.7","COGS219_2019_22","<p><img class= 'stimulus' src='images/baseline/Aletschgletscher-Eggishorn.jpg'></img></p>","null","","1550522083057","","","","","","",""
"null","","html-keyboard-response","141","92549","0.0-6.0-2.7","COGS219_2019_22","<p><img class= 'stimulus' src='images/baseline/04085v.jpg'></img></p>","null","","1550522083207","","","","","","",""
"null","","html-keyboard-response","142","92699","0.0-6.0-3.7","COGS219_2019_22","<p><img class= 'stimulus' src='images/baseline/landscape11.jpg'></img></p>","null","","1550522083358","","","","","","",""
"null","","html-keyboard-response","143","92848","0.0-6.0-4.7","COGS219_2019_22","<p><img class= 'stimulus' src='images/baseline/03220v.jpg'></img></p>","null","","1550522083508","4","","","","","",""
"null","","html-keyboard-response","144","93000","0.0-6.0-5.7","COGS219_2019_22","<p><img class= 'stimulus' src='images/baseline/Sunset 5.jpg'></img></p>","null","","1550522083657","","","","","","",""
"null","","html-keyboard-response","145","93149","0.0-6.0-6.7","COGS219_2019_22","<p><img class= 'stimulus' src='images/baseline/02962v.jpg'></img></p>","null","","1550522083808","6","","","","","",""
"null","","html-keyboard-response","146","93299","0.0-6.0-7.7","COGS219_2019_22","<p><img class= 'stimulus' src='images/baseline/landscape37.jpg'></img></p>","null","","1550522083957","","","","","","",""
"null","","html-keyboard-response","147","93449","0.0-6.0-8.7","COGS219_2019_22","<p><img class= 'stimulus' src='images/baseline/farmhouse8.jpg'></img></p>","null","","1550522084107","8","","","","","",""
"null","","html-keyboard-response","148","93599","0.0-6.0-9.7","COGS219_2019_22","<p><img class= 'stimulus' src='images/baseline/house8.jpg'></img></p>","null","","1550522084257","","","","","","",""
"null","","html-keyboard-response","149","93750","0.0-6.0-10.7","COGS219_2019_22","<p><img class= 'stimulus' src='images/baseline/Dirt 2.jpg'></img></p>","null","","1550522084408","","","","","","",""
"null","","html-keyboard-response","150","93900","0.0-6.0-11.7","COGS219_2019_22","<p><img class= 'stimulus' src='images/baseline/building_at_national_conservation.jpg'></img></p>","null","","1550522084557","","","","","","",""
"null","","html-keyboard-response","151","94048","0.0-6.0-12.7","COGS219_2019_22","<p><img class= 'stimulus' src='images/target/chicago-673558_640.jpg'></img></p>","null","","1550522084707","12","","","","","",""
"null","","html-keyboard-response","152","94199","0.0-6.0-13.7","COGS219_2019_22","<p><img class= 'stimulus' src='images/baseline/Beach 3.jpg'></img></p>","null","","1550522084858","","","","","","",""
"null","","html-keyboard-response","153","94349","0.0-6.0-14.7","COGS219_2019_22","<p><img class= 'stimulus' src='images/baseline/Freudenberg_sg_Switzerland.jpg'></img></p>","null","","1550522085009","14","","","","","",""
"null","","html-keyboard-response","154","94499","0.0-6.0-15.7","COGS219_2019_22","<p><img class= 'stimulus' src='images/baseline/02971v.jpg'></img></p>","null","","1550522085157","","","","","","",""
"null","","html-keyboard-response","155","94649","0.0-6.0-16.7","COGS219_2019_22","<p><img class= 'stimulus' src='images/baseline/pexels-photo-1840893.jpeg'></img></p>","null","","1550522085307","","","","","","",""
"null","","html-keyboard-response","156","94816","0.0-6.0-17.7","COGS219_2019_22","<p><img class= 'stimulus' src='images/baseline/agriculture-cereal-clouds-175389.jpg'></img></p>","null","","1550522085457","","","","","","",""
"505.99999999986903","","html-button-response","157","96331","0.0-6.0-18.7","COGS219_2019_22","<div class = ""response_question"">WAS THE IMAGE ROTATED...</div>","","4","","","4","8","bas","right","practice","true"
"494.1999999996333","","html-button-response","158","96826","0.0-6.0-0.8","COGS219_2019_22","","","0","","","","","","","",""
"null","","html-keyboard-response","159","96899","0.0-6.0-1.8","COGS219_2019_22","<p><img class= 'stimulus' src='images/baseline/pexels-photo-1287089.jpeg'></img></p>","null","","1550522087608","","","","","","",""
"null","","html-keyboard-response","160","96999","0.0-6.0-2.8","COGS219_2019_22","<p><img class= 'stimulus' src='images/baseline/house3.jpg'></img></p>","null","","1550522087708","","","","","","",""
"null","","html-keyboard-response","161","97099","0.0-6.0-3.8","COGS219_2019_22","<p><img class= 'stimulus' src='images/baseline/landscape17.jpg'></img></p>","null","","1550522087808","","","","","","",""
"null","","html-keyboard-response","162","97200","0.0-6.0-4.8","COGS219_2019_22","<p><img class= 'stimulus' src='images/baseline/meadow-with-mountain-in-background.jpg'></img></p>","null","","1550522087908","4","","","","","",""
"null","","html-keyboard-response","163","97300","0.0-6.0-5.8","COGS219_2019_22","<p><img class= 'stimulus' src='images/baseline/building12.jpg'></img></p>","null","","1550522088007","","","","","","",""
"null","","html-keyboard-response","164","97399","0.0-6.0-6.8","COGS219_2019_22","<p><img class= 'stimulus' src='images/baseline/05139v.jpg'></img></p>","null","","1550522088108","6","","","","","",""
"null","","html-keyboard-response","165","97499","0.0-6.0-7.8","COGS219_2019_22","<p><img class= 'stimulus' src='images/baseline/04098v.jpg'></img></p>","null","","1550522088209","","","","","","",""
"null","","html-keyboard-response","166","97599","0.0-6.0-8.8","COGS219_2019_22","<p><img class= 'stimulus' src='images/baseline/dirt-road-or-trail-through-park.jpg'></img></p>","null","","1550522088309","8","","","","","",""
"null","","html-keyboard-response","167","97699","0.0-6.0-9.8","COGS219_2019_22","<p><img class= 'stimulus' src='images/baseline/vintage-art-deco-storefront.jpg'></img></p>","null","","1550522088407","","","","","","",""
"null","","html-keyboard-response","168","97799","0.0-6.0-10.8","COGS219_2019_22","<p><img class= 'stimulus' src='images/baseline/Lake 14.jpg'></img></p>","null","","1550522088507","","","","","","",""
"null","","html-keyboard-response","169","97899","0.0-6.0-11.8","COGS219_2019_22","<p><img class= 'stimulus' src='images/baseline/church-silhouette-8712964986014Kb.jpg'></img></p>","null","","1550522088607","","","","","","",""
"null","","html-keyboard-response","170","97999","0.0-6.0-12.8","COGS219_2019_22","<p><img class= 'stimulus left-rotate' src='images/target/buildin2.png'></img></p>","null","","1550522088708","12","","","","","",""
"null","","html-keyboard-response","171","98099","0.0-6.0-13.8","COGS219_2019_22","<p><img class= 'stimulus' src='images/baseline/building3.jpg'></img></p>","null","","1550522088808","","","","","","",""
"null","","html-keyboard-response","172","98199","0.0-6.0-14.8","COGS219_2019_22","<p><img class= 'stimulus' src='images/baseline/05161v.jpg'></img></p>","null","","1550522088908","14","","","","","",""
"null","","html-keyboard-response","173","98299","0.0-6.0-15.8","COGS219_2019_22","<p><img class= 'stimulus' src='images/baseline/05242v.jpg'></img></p>","null","","1550522089009","","","","","","",""
"null","","html-keyboard-response","174","98399","0.0-6.0-16.8","COGS219_2019_22","<p><img class= 'stimulus' src='images/baseline/Happy pose 3.jpg'></img></p>","null","","1550522089107","","","","","","",""
"null","","html-keyboard-response","175","98516","0.0-6.0-17.8","COGS219_2019_22","<p><img class= 'stimulus' src='images/baseline/Lake 13.jpg'></img></p>","null","","1550522089207","","","","","","",""
"979.8999999998196","","html-button-response","176","100499","0.0-6.0-18.8","COGS219_2019_22","<div class = ""response_question"">WAS THE IMAGE ROTATED...</div>","","1","","","4","8","bas","left","practice","true"
"518.3000000001775","","html-button-response","177","101019","0.0-6.0-0.9","COGS219_2019_22","","","0","","","","","","","",""
"null","","html-keyboard-response","178","101098","0.0-6.0-1.9","COGS219_2019_22","<p><img class= 'stimulus' src='images/baseline/03041v.jpg'></img></p>","null","","1550522091807","","","","","","",""
"null","","html-keyboard-response","179","101200","0.0-6.0-2.9","COGS219_2019_22","<p><img class= 'stimulus' src='images/baseline/03056v.jpg'></img></p>","null","","1550522091908","","","","","","",""
"null","","html-keyboard-response","180","101299","0.0-6.0-3.9","COGS219_2019_22","<p><img class= 'stimulus' src='images/baseline/04229v.jpg'></img></p>","null","","1550522092007","","","","","","",""
"null","","html-keyboard-response","181","101400","0.0-6.0-4.9","COGS219_2019_22","<p><img class= 'stimulus' src='images/baseline/landscape35.jpg'></img></p>","null","","1550522092107","4","","","","","",""
"null","","html-keyboard-response","182","101499","0.0-6.0-5.9","COGS219_2019_22","<p><img class= 'stimulus' src='images/baseline/pexels-photo-541101.jpeg'></img></p>","null","","1550522092208","","","","","","",""
"null","","html-keyboard-response","183","101600","0.0-6.0-6.9","COGS219_2019_22","<p><img class= 'stimulus' src='images/baseline/Cold 7.jpg'></img></p>","null","","1550522092308","6","","","","","",""
"null","","html-keyboard-response","184","101699","0.0-6.0-7.9","COGS219_2019_22","<p><img class= 'stimulus' src='images/baseline/pexels-photo-568236.jpeg'></img></p>","null","","1550522092409","","","","","","",""
"null","","html-keyboard-response","185","101799","0.0-6.0-8.9","COGS219_2019_22","<p><img class= 'stimulus' src='images/baseline/foreclosed_home.jpg'></img></p>","null","","1550522092508","8","","","","","",""
"null","","html-keyboard-response","186","101900","0.0-6.0-9.9","COGS219_2019_22","<p><img class= 'stimulus' src='images/baseline/04040v.jpg'></img></p>","null","","1550522092608","","","","","","",""
"null","","html-keyboard-response","187","101999","0.0-6.0-10.9","COGS219_2019_22","<p><img class= 'stimulus' src='images/baseline/bird-flying-at-sunset.jpg'></img></p>","null","","1550522092708","","","","","","",""
"null","","html-keyboard-response","188","102099","0.0-6.0-11.9","COGS219_2019_22","<p><img class= 'stimulus' src='images/baseline/hills 1.jpg'></img></p>","null","","1550522092809","","","","","","",""
"null","","html-keyboard-response","189","102199","0.0-6.0-12.9","COGS219_2019_22","<p><img class= 'stimulus' src='images/baseline/horse_statue.jpg'></img></p>","null","","1550522092907","12","","","","","",""
"null","","html-keyboard-response","190","102299","0.0-6.0-13.9","COGS219_2019_22","<p><img class= 'stimulus' src='images/baseline/field 3.jpg'></img></p>","null","","1550522093007","","","","","","",""
"null","","html-keyboard-response","191","102399","0.0-6.0-14.9","COGS219_2019_22","<p><img class= 'stimulus' src='images/target/landscape32.jpg'></img></p>","null","","1550522093108","14","","","","","",""
"null","","html-keyboard-response","192","102499","0.0-6.0-15.9","COGS219_2019_22","<p><img class= 'stimulus' src='images/baseline/landscape33.jpg'></img></p>","null","","1550522093207","","","","","","",""
"null","","html-keyboard-response","193","102599","0.0-6.0-16.9","COGS219_2019_22","<p><img class= 'stimulus' src='images/baseline/building5.jpg'></img></p>","null","","1550522093308","","","","","","",""
"null","","html-keyboard-response","194","102716","0.0-6.0-17.9","COGS219_2019_22","<p><img class= 'stimulus' src='images/baseline/landscape29.jpg'></img></p>","null","","1550522093408","","","","","","",""
"1690.0000000000582","","html-button-response","195","105411","0.0-6.0-18.9","COGS219_2019_22","<div class = ""response_question"">WAS THE IMAGE ROTATED...</div>","","2","","","6","8","bas","right","practice","false"
"742.400000000096","","html-button-response","196","106155","0.0-6.0-0.10","COGS219_2019_22","","","0","","","","","","","",""
"null","","html-keyboard-response","197","106233","0.0-6.0-1.10","COGS219_2019_22","<p><img class= 'stimulus' src='images/baseline/landscape16.jpg'></img></p>","null","","1550522096941","","","","","","",""
"null","","html-keyboard-response","198","106333","0.0-6.0-2.10","COGS219_2019_22","<p><img class= 'stimulus' src='images/baseline/04130v.jpg'></img></p>","null","","1550522097041","","","","","","",""
"null","","html-keyboard-response","199","106432","0.0-6.0-3.10","COGS219_2019_22","<p><img class= 'stimulus' src='images/baseline/04162v.jpg'></img></p>","null","","1550522097141","","","","","","",""
"null","","html-keyboard-response","200","106532","0.0-6.0-4.10","COGS219_2019_22","<p><img class= 'stimulus' src='images/baseline/Peyto_Lake-Banff_NP-Canada.jpg'></img></p>","null","","1550522097242","4","","","","","",""
"null","","html-keyboard-response","201","106632","0.0-6.0-5.10","COGS219_2019_22","<p><img class= 'stimulus' src='images/baseline/city-silhouette-at-sunset-871291580819Esw.jpg'></img></p>","null","","1550522097341","","","","","","",""
"null","","html-keyboard-response","202","106732","0.0-6.0-6.10","COGS219_2019_22","<p><img class= 'stimulus' src='images/baseline/03201v.jpg'></img></p>","null","","1550522097440","6","","","","","",""
"null","","html-keyboard-response","203","106834","0.0-6.0-7.10","COGS219_2019_22","<p><img class= 'stimulus' src='images/baseline/landscape23.jpg'></img></p>","null","","1550522097540","","","","","","",""
"null","","html-keyboard-response","204","106932","0.0-6.0-8.10","COGS219_2019_22","<p><img class= 'stimulus' src='images/target/buildin.png'></img></p>","null","","1550522097641","8","","","","","",""
"null","","html-keyboard-response","205","107032","0.0-6.0-9.10","COGS219_2019_22","<p><img class= 'stimulus' src='images/baseline/03063v.jpg'></img></p>","null","","1550522097741","","","","","","",""
"null","","html-keyboard-response","206","107133","0.0-6.0-10.10","COGS219_2019_22","<p><img class= 'stimulus' src='images/baseline/house7.jpg'></img></p>","null","","1550522097840","","","","","","",""
"null","","html-keyboard-response","207","107232","0.0-6.0-11.10","COGS219_2019_22","<p><img class= 'stimulus' src='images/baseline/Paysage_karabagh_02.jpg'></img></p>","null","","1550522097941","","","","","","",""
"null","","html-keyboard-response","208","107332","0.0-6.0-12.10","COGS219_2019_22","<p><img class= 'stimulus' src='images/baseline/landscape34.jpg'></img></p>","null","","1550522098041","12","","","","","",""
"null","","html-keyboard-response","209","107433","0.0-6.0-13.10","COGS219_2019_22","<p><img class= 'stimulus' src='images/baseline/Street 1.jpg'></img></p>","null","","1550522098141","","","","","","",""
"null","","html-keyboard-response","210","107532","0.0-6.0-14.10","COGS219_2019_22","<p><img class= 'stimulus' src='images/baseline/farmhouse4.jpg'></img></p>","null","","1550522098241","14","","","","","",""
"null","","html-keyboard-response","211","107633","0.0-6.0-15.10","COGS219_2019_22","<p><img class= 'stimulus' src='images/baseline/river 1.jpg'></img></p>","null","","1550522098341","","","","","","",""
"null","","html-keyboard-response","212","107732","0.0-6.0-16.10","COGS219_2019_22","<p><img class= 'stimulus' src='images/baseline/05158v.jpg'></img></p>","null","","1550522098441","","","","","","",""
"null","","html-keyboard-response","213","107849","0.0-6.0-17.10","COGS219_2019_22","<p><img class= 'stimulus' src='images/baseline/pexels-photo-210617.jpeg'></img></p>","null","","1550522098540","","","","","","",""
"502.1999999998952","","html-button-response","214","109355","0.0-6.0-18.10","COGS219_2019_22","<div class = ""response_question"">WAS THE IMAGE ROTATED...</div>","","4","","","6","2","bas","right","practice","true"
"582.300000000032","","html-button-response","215","109939","0.0-6.0-0.11","COGS219_2019_22","","","0","","","","","","","",""
"null","","html-keyboard-response","216","110017","0.0-6.0-1.11","COGS219_2019_22","<p><img class= 'stimulus' src='images/baseline/red rocks from afar.jpg'></img></p>","null","","1550522100724","","","","","","",""
"null","","html-keyboard-response","217","110116","0.0-6.0-2.11","COGS219_2019_22","<p><img class= 'stimulus' src='images/baseline/landscape14.jpg'></img></p>","null","","1550522100824","","","","","","",""
"null","","html-keyboard-response","218","110215","0.0-6.0-3.11","COGS219_2019_22","<p><img class= 'stimulus' src='images/baseline/landscape22.jpg'></img></p>","null","","1550522100925","","","","","","",""
"null","","html-keyboard-response","219","110316","0.0-6.0-4.11","COGS219_2019_22","<p><img class= 'stimulus' src='images/baseline/red-rocks-park.jpg'></img></p>","null","","1550522101026","4","","","","","",""
"null","","html-keyboard-response","220","110417","0.0-6.0-5.11","COGS219_2019_22","<p><img class= 'stimulus' src='images/baseline/sunny-landscape-with-dry-brush-and-mountain-background.jpg'></img></p>","null","","1550522101125","","","","","","",""
"null","","html-keyboard-response","221","110516","0.0-6.0-6.11","COGS219_2019_22","<p><img class= 'stimulus' src='images/baseline/autumn-landscape-with-lake-fall-trees-mountains.jpg'></img></p>","null","","1550522101225","6","","","","","",""
"null","","html-keyboard-response","222","110616","0.0-6.0-7.11","COGS219_2019_22","<p><img class= 'stimulus' src='images/baseline/landscape31.jpg'></img></p>","null","","1550522101324","","","","","","",""
"null","","html-keyboard-response","223","110716","0.0-6.0-8.11","COGS219_2019_22","<p><img class= 'stimulus left-rotate' src='images/target/mexico_tower_latin_american.jpg'></img></p>","null","","1550522101424","8","","","","","",""
"null","","html-keyboard-response","224","110816","0.0-6.0-9.11","COGS219_2019_22","<p><img class= 'stimulus' src='images/baseline/landscape1.jpg'></img></p>","null","","1550522101524","","","","","","",""
"null","","html-keyboard-response","225","110916","0.0-6.0-10.11","COGS219_2019_22","<p><img class= 'stimulus' src='images/baseline/04062v.jpg'></img></p>","null","","1550522101624","","","","","","",""
"null","","html-keyboard-response","226","111016","0.0-6.0-11.11","COGS219_2019_22","<p><img class= 'stimulus' src='images/baseline/cyrillic.jpg'></img></p>","null","","1550522101725","","","","","","",""
"null","","html-keyboard-response","227","111116","0.0-6.0-12.11","COGS219_2019_22","<p><img class= 'stimulus' src='images/baseline/05240v.jpg'></img></p>","null","","1550522101825","12","","","","","",""
"null","","html-keyboard-response","228","111217","0.0-6.0-13.11","COGS219_2019_22","<p><img class= 'stimulus' src='images/baseline/02982v.jpg'></img></p>","null","","1550522101924","","","","","","",""
"null","","html-keyboard-response","229","111316","0.0-6.0-14.11","COGS219_2019_22","<p><img class= 'stimulus' src='images/baseline/sunset-over-the-lake.jpg'></img></p>","null","","1550522102024","14","","","","","",""
"null","","html-keyboard-response","230","111415","0.0-6.0-15.11","COGS219_2019_22","<p><img class= 'stimulus' src='images/baseline/building6.jpg'></img></p>","null","","1550522102125","","","","","","",""
"null","","html-keyboard-response","231","111516","0.0-6.0-16.11","COGS219_2019_22","<p><img class= 'stimulus' src='images/baseline/Sky 1.jpg'></img></p>","null","","1550522102225","","","","","","",""
"null","","html-keyboard-response","232","111633","0.0-6.0-17.11","COGS219_2019_22","<p><img class= 'stimulus' src='images/baseline/flooded-bridge.jpg'></img></p>","null","","1550522102325","","","","","","",""
"486.60000000018044","","html-button-response","233","113123","0.0-6.0-18.11","COGS219_2019_22","<div class = ""response_question"">WAS THE IMAGE ROTATED...</div>","","0","","","6","2","bas","left","practice","true"
"702.2999999999302","","html-button-response","234","113827","0.0-6.0-0.12","COGS219_2019_22","","","0","","","","","","","",""
"null","","html-keyboard-response","235","113899","0.0-6.0-1.12","COGS219_2019_22","<p><img class= 'stimulus' src='images/baseline/farmhouse9.jpg'></img></p>","null","","1550522104608","","","","","","",""
"null","","html-keyboard-response","236","113999","0.0-6.0-2.12","COGS219_2019_22","<p><img class= 'stimulus' src='images/baseline/05255v.jpg'></img></p>","null","","1550522104707","","","","","","",""
"null","","html-keyboard-response","237","114100","0.0-6.0-3.12","COGS219_2019_22","<p><img class= 'stimulus' src='images/baseline/05279v.jpg'></img></p>","null","","1550522104807","","","","","","",""
"null","","html-keyboard-response","238","114199","0.0-6.0-4.12","COGS219_2019_22","<p><img class= 'stimulus' src='images/baseline/snowy tree.jpg'></img></p>","null","","1550522104908","4","","","","","",""
"null","","html-keyboard-response","239","114299","0.0-6.0-5.12","COGS219_2019_22","<p><img class= 'stimulus' src='images/baseline/field 1.jpg'></img></p>","null","","1550522105008","","","","","","",""
"null","","html-keyboard-response","240","114400","0.0-6.0-6.12","COGS219_2019_22","<p><img class= 'stimulus' src='images/baseline/house2.jpg'></img></p>","null","","1550522105108","6","","","","","",""
"null","","html-keyboard-response","241","114499","0.0-6.0-7.12","COGS219_2019_22","<p><img class= 'stimulus' src='images/baseline/farmhouse1.jpg'></img></p>","null","","1550522105209","","","","","","",""
"null","","html-keyboard-response","242","114599","0.0-6.0-8.12","COGS219_2019_22","<p><img class= 'stimulus' src='images/baseline/landscape19.jpg'></img></p>","null","","1550522105308","8","","","","","",""
"null","","html-keyboard-response","243","114699","0.0-6.0-9.12","COGS219_2019_22","<p><img class= 'stimulus' src='images/baseline/landscape39.jpg'></img></p>","null","","1550522105408","","","","","","",""
"null","","html-keyboard-response","244","114800","0.0-6.0-10.12","COGS219_2019_22","<p><img class= 'stimulus' src='images/baseline/hills 3.jpg'></img></p>","null","","1550522105508","","","","","","",""
"null","","html-keyboard-response","245","114899","0.0-6.0-11.12","COGS219_2019_22","<p><img class= 'stimulus' src='images/baseline/road.jpg'></img></p>","null","","1550522105608","","","","","","",""
"null","","html-keyboard-response","246","114999","0.0-6.0-12.12","COGS219_2019_22","<p><img class= 'stimulus' src='images/target/landscape1.jpg'></img></p>","null","","1550522105709","12","","","","","",""
"null","","html-keyboard-response","247","115099","0.0-6.0-13.12","COGS219_2019_22","<p><img class= 'stimulus' src='images/baseline/landscape40.jpg'></img></p>","null","","1550522105807","","","","","","",""
"null","","html-keyboard-response","248","115199","0.0-6.0-14.12","COGS219_2019_22","<p><img class= 'stimulus' src='images/baseline/Bridge 1.jpg'></img></p>","null","","1550522105908","14","","","","","",""
"null","","html-keyboard-response","249","115299","0.0-6.0-15.12","COGS219_2019_22","<p><img class= 'stimulus' src='images/baseline/pexels-photo-1261728.jpeg'></img></p>","null","","1550522106008","","","","","","",""
"null","","html-keyboard-response","250","115399","0.0-6.0-16.12","COGS219_2019_22","<p><img class= 'stimulus' src='images/baseline/building4.jpg'></img></p>","null","","1550522106107","","","","","","",""
"null","","html-keyboard-response","251","115516","0.0-6.0-17.12","COGS219_2019_22","<p><img class= 'stimulus' src='images/baseline/04179v.jpg'></img></p>","null","","1550522106208","","","","","","",""
"755.2000000000553","","html-button-response","252","117275","0.0-6.0-18.12","COGS219_2019_22","<div class = ""response_question"">WAS THE IMAGE ROTATED...</div>","","3","","","4","8","bas","right","practice","true"
"670.5000000001746","","html-button-response","253","117947","0.0-6.0-0.13","COGS219_2019_22","","","0","","","","","","","",""
"null","","html-keyboard-response","254","118032","0.0-6.0-1.13","COGS219_2019_22","<p><img class= 'stimulus' src='images/baseline/pexels-photo-894312.jpeg'></img></p>","null","","1550522108741","","","","","","",""
"null","","html-keyboard-response","255","118132","0.0-6.0-2.13","COGS219_2019_22","<p><img class= 'stimulus' src='images/baseline/valley 2.jpg'></img></p>","null","","1550522108841","","","","","","",""
"null","","html-keyboard-response","256","118232","0.0-6.0-3.13","COGS219_2019_22","<p><img class= 'stimulus' src='images/baseline/landscape15.jpg'></img></p>","null","","1550522108941","","","","","","",""
"null","","html-keyboard-response","257","118333","0.0-6.0-4.13","COGS219_2019_22","<p><img class= 'stimulus' src='images/baseline/Nature 2.jpg'></img></p>","null","","1550522109041","4","","","","","",""
"null","","html-keyboard-response","258","118434","0.0-6.0-5.13","COGS219_2019_22","<p><img class= 'stimulus' src='images/baseline/05179v.jpg'></img></p>","null","","1550522109141","","","","","","",""
"null","","html-keyboard-response","259","118534","0.0-6.0-6.13","COGS219_2019_22","<p><img class= 'stimulus' src='images/target/pexels-photo-932328.jpeg'></img></p>","null","","1550522109242","6","","","","","",""
"null","","html-keyboard-response","260","118634","0.0-6.0-7.13","COGS219_2019_22","<p><img class= 'stimulus' src='images/baseline/pexels-photo-259280.jpeg'></img></p>","null","","1550522109342","","","","","","",""
"null","","html-keyboard-response","261","118733","0.0-6.0-8.13","COGS219_2019_22","<p><img class= 'stimulus' src='images/baseline/landscape8.jpg'></img></p>","null","","1550522109442","8","","","","","",""
"null","","html-keyboard-response","262","118834","0.0-6.0-9.13","COGS219_2019_22","<p><img class= 'stimulus' src='images/baseline/04060v.jpg'></img></p>","null","","1550522109542","","","","","","",""
"null","","html-keyboard-response","263","118934","0.0-6.0-10.13","COGS219_2019_22","<p><img class= 'stimulus' src='images/baseline/trees 23.jpg'></img></p>","null","","1550522109643","","","","","","",""
"null","","html-keyboard-response","264","119034","0.0-6.0-11.13","COGS219_2019_22","<p><img class= 'stimulus' src='images/baseline/field 2.jpg'></img></p>","null","","1550522109742","","","","","","",""
"null","","html-keyboard-response","265","119133","0.0-6.0-12.13","COGS219_2019_22","<p><img class= 'stimulus' src='images/baseline/04300v.jpg'></img></p>","null","","1550522109842","12","","","","","",""
"null","","html-keyboard-response","266","119234","0.0-6.0-13.13","COGS219_2019_22","<p><img class= 'stimulus' src='images/baseline/Skyscraper 1.jpg'></img></p>","null","","1550522109943","","","","","","",""
"null","","html-keyboard-response","267","119333","0.0-6.0-14.13","COGS219_2019_22","<p><img class= 'stimulus' src='images/baseline/grand-teton-mountains.jpg'></img></p>","null","","1550522110042","14","","","","","",""
"null","","html-keyboard-response","268","119435","0.0-6.0-15.13","COGS219_2019_22","<p><img class= 'stimulus' src='images/baseline/03148v.jpg'></img></p>","null","","1550522110142","","","","","","",""
"null","","html-keyboard-response","269","119533","0.0-6.0-16.13","COGS219_2019_22","<p><img class= 'stimulus' src='images/baseline/landscape3.jpg'></img></p>","null","","1550522110241","","","","","","",""
"null","","html-keyboard-response","270","119651","0.0-6.0-17.13","COGS219_2019_22","<p><img class= 'stimulus' src='images/baseline/05252v.jpg'></img></p>","null","","1550522110341","","","","","","",""
"477.00000000032014","","html-button-response","271","121132","0.0-6.0-18.13","COGS219_2019_22","<div class = ""response_question"">WAS THE IMAGE ROTATED...</div>","","3","","","4","2","bas","right","practice","true"
"598.1000000001513","","html-button-response","272","121732","0.0-6.0-0.14","COGS219_2019_22","","","0","","","","","","","",""
"null","","html-keyboard-response","273","121817","0.0-6.0-1.14","COGS219_2019_22","<p><img class= 'stimulus' src='images/baseline/house1.jpg'></img></p>","null","","1550522112525","","","","","","",""
"null","","html-keyboard-response","274","121917","0.0-6.0-2.14","COGS219_2019_22","<p><img class= 'stimulus' src='images/baseline/03112v.jpg'></img></p>","null","","1550522112625","","","","","","",""
"null","","html-keyboard-response","275","122018","0.0-6.0-3.14","COGS219_2019_22","<p><img class= 'stimulus' src='images/baseline/farmhouse11.jpg'></img></p>","null","","1550522112726","","","","","","",""
"null","","html-keyboard-response","276","122117","0.0-6.0-4.14","COGS219_2019_22","<p><img class= 'stimulus' src='images/baseline/landscape7.jpg'></img></p>","null","","1550522112825","4","","","","","",""
"null","","html-keyboard-response","277","122218","0.0-6.0-5.14","COGS219_2019_22","<p><img class= 'stimulus' src='images/baseline/Lake 16.jpg'></img></p>","null","","1550522112926","","","","","","",""
"null","","html-keyboard-response","278","122317","0.0-6.0-6.14","COGS219_2019_22","<p><img class= 'stimulus left-rotate' src='images/target/dreifaltigkeitskirche_sandhausen_837699.jpg'></img></p>","null","","1550522113027","6","","","","","",""
"null","","html-keyboard-response","279","122416","0.0-6.0-7.14","COGS219_2019_22","<p><img class= 'stimulus' src='images/baseline/03204v.jpg'></img></p>","null","","1550522113126","","","","","","",""
"null","","html-keyboard-response","280","122517","0.0-6.0-8.14","COGS219_2019_22","<p><img class= 'stimulus' src='images/baseline/hills 4.jpg'></img></p>","null","","1550522113226","8","","","","","",""
"null","","html-keyboard-response","281","122617","0.0-6.0-9.14","COGS219_2019_22","<p><img class= 'stimulus' src='images/baseline/farmhouse7.jpg'></img></p>","null","","1550522113325","","","","","","",""
"null","","html-keyboard-response","282","122717","0.0-6.0-10.14","COGS219_2019_22","<p><img class= 'stimulus' src='images/baseline/building9.jpg'></img></p>","null","","1550522113426","","","","","","",""
"null","","html-keyboard-response","283","122817","0.0-6.0-11.14","COGS219_2019_22","<p><img class= 'stimulus' src='images/baseline/04158v.jpg'></img></p>","null","","1550522113525","","","","","","",""
"null","","html-keyboard-response","284","122918","0.0-6.0-12.14","COGS219_2019_22","<p><img class= 'stimulus' src='images/baseline/house6.jpg'></img></p>","null","","1550522113626","12","","","","","",""
"null","","html-keyboard-response","285","123018","0.0-6.0-13.14","COGS219_2019_22","<p><img class= 'stimulus' src='images/baseline/agriculture-bright-clouds-440731.jpg'></img></p>","null","","1550522113726","","","","","","",""
"null","","html-keyboard-response","286","123117","0.0-6.0-14.14","COGS219_2019_22","<p><img class= 'stimulus' src='images/baseline/lake 2.jpg'></img></p>","null","","1550522113826","14","","","","","",""
"null","","html-keyboard-response","287","123218","0.0-6.0-15.14","COGS219_2019_22","<p><img class= 'stimulus' src='images/baseline/landscape12.jpg'></img></p>","null","","1550522113927","","","","","","",""
"null","","html-keyboard-response","288","123316","0.0-6.0-16.14","COGS219_2019_22","<p><img class= 'stimulus' src='images/baseline/04284v.jpg'></img></p>","null","","1550522114027","","","","","","",""
"null","","html-keyboard-response","289","123434","0.0-6.0-17.14","COGS219_2019_22","<p><img class= 'stimulus' src='images/baseline/tennis-court-net-buried-in-snow.jpg'></img></p>","null","","1550522114126","","","","","","",""
"1757.5999999999185","","html-button-response","290","126196","0.0-6.0-18.14","COGS219_2019_22","<div class = ""response_question"">WAS THE IMAGE ROTATED...</div>","","2","","","4","2","bas","left","practice","false"
"550.4000000000815","","html-button-response","291","126747","0.0-6.0-0.15","COGS219_2019_22","","","0","","","","","","","",""
"null","","html-keyboard-response","292","126834","0.0-6.0-1.15","COGS219_2019_22","<p><img class= 'stimulus' src='images/baseline/kokkari-1523011968Xfr.jpg'></img></p>","null","","1550522117542","","","","","","",""
"null","","html-keyboard-response","293","126934","0.0-6.0-2.15","COGS219_2019_22","<p><img class= 'stimulus' src='images/baseline/pexels-photo-221125.jpeg'></img></p>","null","","1550522117642","","","","","","",""
"null","","html-keyboard-response","294","127035","0.0-6.0-3.15","COGS219_2019_22","<p><img class= 'stimulus' src='images/baseline/Sunset 6.jpg'></img></p>","null","","1550522117743","","","","","","",""
"null","","html-keyboard-response","295","127133","0.0-6.0-4.15","COGS219_2019_22","<p><img class= 'stimulus' src='images/baseline/04201v.jpg'></img></p>","null","","1550522117844","4","","","","","",""
"null","","html-keyboard-response","296","127234","0.0-6.0-5.15","COGS219_2019_22","<p><img class= 'stimulus' src='images/baseline/04031v.jpg'></img></p>","null","","1550522117942","","","","","","",""
"null","","html-keyboard-response","297","127334","0.0-6.0-6.15","COGS219_2019_22","<p><img class= 'stimulus' src='images/baseline/hiking-trail.jpg'></img></p>","null","","1550522118042","6","","","","","",""
"null","","html-keyboard-response","298","127433","0.0-6.0-7.15","COGS219_2019_22","<p><img class= 'stimulus' src='images/baseline/05198v.jpg'></img></p>","null","","1550522118143","","","","","","",""
"null","","html-keyboard-response","299","127534","0.0-6.0-8.15","COGS219_2019_22","<p><img class= 'stimulus' src='images/baseline/Street 4.jpg'></img></p>","null","","1550522118242","8","","","","","",""
"null","","html-keyboard-response","300","127634","0.0-6.0-9.15","COGS219_2019_22","<p><img class= 'stimulus' src='images/baseline/Sidewalk 4.jpg'></img></p>","null","","1550522118341","","","","","","",""
"null","","html-keyboard-response","301","127734","0.0-6.0-10.15","COGS219_2019_22","<p><img class= 'stimulus' src='images/baseline/Paysage_enneige_02.jpg'></img></p>","null","","1550522118442","","","","","","",""
"null","","html-keyboard-response","302","127834","0.0-6.0-11.15","COGS219_2019_22","<p><img class= 'stimulus' src='images/baseline/Lake 4.jpg'></img></p>","null","","1550522118542","","","","","","",""
"null","","html-keyboard-response","303","127933","0.0-6.0-12.15","COGS219_2019_22","<p><img class= 'stimulus' src='images/baseline/Sunset 3.jpg'></img></p>","null","","1550522118642","12","","","","","",""
"null","","html-keyboard-response","304","128034","0.0-6.0-13.15","COGS219_2019_22","<p><img class= 'stimulus' src='images/baseline/lake 2.jpg'></img></p>","null","","1550522118742","","","","","","",""
"null","","html-keyboard-response","305","128134","0.0-6.0-14.15","COGS219_2019_22","<p><img class= 'stimulus left-rotate' src='images/target/pexels-photo-602607.jpeg'></img></p>","null","","1550522118842","14","","","","","",""
"null","","html-keyboard-response","306","128234","0.0-6.0-15.15","COGS219_2019_22","<p><img class= 'stimulus' src='images/baseline/pexels-photo-414491.jpeg'></img></p>","null","","1550522118942","","","","","","",""
"null","","html-keyboard-response","307","128333","0.0-6.0-16.15","COGS219_2019_22","<p><img class= 'stimulus' src='images/baseline/field 1.jpg'></img></p>","null","","1550522119043","","","","","","",""
"null","","html-keyboard-response","308","128450","0.0-6.0-17.15","COGS219_2019_22","<p><img class= 'stimulus' src='images/baseline/trees 23.jpg'></img></p>","null","","1550522119142","","","","","","",""
"1262.6000000000058","","html-button-response","309","130716","0.0-6.0-18.15","COGS219_2019_22","<div class = ""response_question"">WAS THE IMAGE ROTATED...</div>","","0","","","6","8","bas","left","practice","true"
"197814.3","","html-button-response","310","328521","0.0-7.0","COGS219_2019_22","<p>You have now completed the practice phase. We will now begin the real trials.         This is a reminder that you will be searching for a rotated image among the series of upright images.</p>         <p>Remember, please do not blink or move your eyes while the images are on the screen.</p>         <p>At the end of the experiment, the experimenter will be able to show you how accurate you were.</p>","","0","","","","","","","",""
"1654.7000000000116","","html-button-response","311","330177","0.0-8.0-0.0-0.0","COGS219_2019_22","","","0","","","","","","","",""
"null","","html-keyboard-response","312","330258","0.0-8.0-0.0-1.0","COGS219_2019_22","<p><img class= 'stimulus' src='images/baseline/scenic-mountain-landscape.jpg'></img></p>","null","","1550522320967","","","","","","",""
"null","","html-keyboard-response","313","330358","0.0-8.0-0.0-2.0","COGS219_2019_22","<p><img class= 'stimulus' src='images/baseline/lake3.jpg'></img></p>","null","","1550522321067","","","","","","",""
"null","","html-keyboard-response","314","330458","0.0-8.0-0.0-3.0","COGS219_2019_22","<p><img class= 'stimulus' src='images/baseline/99_-_Machu_Picchu_-_Juin_2009.edit3.jpg'></img></p>","null","","1550522321167","","","","","","",""
"null","","html-keyboard-response","315","330558","0.0-8.0-0.0-4.0","COGS219_2019_22","<p><img class= 'stimulus' src='images/baseline/03045v.jpg'></img></p>","null","","1550522321267","4","","","","","",""
"null","","html-keyboard-response","316","330659","0.0-8.0-0.0-5.0","COGS219_2019_22","<p><img class= 'stimulus' src='images/baseline/landscape19.jpg'></img></p>","null","","1550522321366","","","","","","",""
"null","","html-keyboard-response","317","330758","0.0-8.0-0.0-6.0","COGS219_2019_22","<p><img class= 'stimulus' src='images/baseline/lone-old-cottonwood-tree.jpg'></img></p>","null","","1550522321466","6","","","","","",""
"null","","html-keyboard-response","318","330858","0.0-8.0-0.0-7.0","COGS219_2019_22","<p><img class= 'stimulus' src='images/baseline/03220v.jpg'></img></p>","null","","1550522321567","","","","","","",""
"null","","html-keyboard-response","319","330959","0.0-8.0-0.0-8.0","COGS219_2019_22","<p><img class= 'stimulus' src='images/target/oak-456524_640.jpg'></img></p>","null","","1550522321667","8","","","","","",""
"null","","html-keyboard-response","320","331059","0.0-8.0-0.0-9.0","COGS219_2019_22","<p><img class= 'stimulus' src='images/baseline/04300v.jpg'></img></p>","null","","1550522321767","","","","","","",""
"null","","html-keyboard-response","321","331159","0.0-8.0-0.0-10.0","COGS219_2019_22","<p><img class= 'stimulus' src='images/baseline/Street 2.jpg'></img></p>","null","","1550522321867","","","","","","",""
"null","","html-keyboard-response","322","331257","0.0-8.0-0.0-11.0","COGS219_2019_22","<p><img class= 'stimulus' src='images/baseline/Lake 14.jpg'></img></p>","null","","1550522321967","","","","","","",""
"null","","html-keyboard-response","323","331358","0.0-8.0-0.0-12.0","COGS219_2019_22","<p><img class= 'stimulus' src='images/baseline/landscape14.jpg'></img></p>","null","","1550522322066","12","","","","","",""
"null","","html-keyboard-response","324","331458","0.0-8.0-0.0-13.0","COGS219_2019_22","<p><img class= 'stimulus' src='images/baseline/agriculture-bright-clouds-440731.jpg'></img></p>","null","","1550522322166","","","","","","",""
"null","","html-keyboard-response","325","331558","0.0-8.0-0.0-14.0","COGS219_2019_22","<p><img class= 'stimulus' src='images/baseline/red rocks from afar.jpg'></img></p>","null","","1550522322267","14","","","","","",""
"null","","html-keyboard-response","326","331658","0.0-8.0-0.0-15.0","COGS219_2019_22","<p><img class= 'stimulus' src='images/baseline/Cold 7.jpg'></img></p>","null","","1550522322368","","","","","","",""
"null","","html-keyboard-response","327","331758","0.0-8.0-0.0-16.0","COGS219_2019_22","<p><img class= 'stimulus' src='images/baseline/02988v.jpg'></img></p>","null","","1550522322466","","","","","","",""
"null","","html-keyboard-response","328","331875","0.0-8.0-0.0-17.0","COGS219_2019_22","<p><img class= 'stimulus' src='images/baseline/04158v.jpg'></img></p>","null","","1550522322566","","","","","","",""
"1476.4000000000233","","html-button-response","329","334353","0.0-8.0-0.0-18.0","COGS219_2019_22","<div class = ""response_question"">WAS THE IMAGE ROTATED...</div>","","4","","","6","2","bas","right","test","true"
"782.0999999999185","","html-button-response","330","335137","0.0-8.0-0.0-0.1","COGS219_2019_22","","","0","","","","","","","",""
"null","","html-keyboard-response","331","335225","0.0-8.0-0.0-1.1","COGS219_2019_22","<p><img class= 'stimulus' src='images/baseline/Lake 15.jpg'></img></p>","null","","1550522325932","","","","","","",""
"null","","html-keyboard-response","332","335325","0.0-8.0-0.0-2.1","COGS219_2019_22","<p><img class= 'stimulus' src='images/baseline/pexels-photo-1287089.jpeg'></img></p>","null","","1550522326033","","","","","","",""
"null","","html-keyboard-response","333","335425","0.0-8.0-0.0-3.1","COGS219_2019_22","<p><img class= 'stimulus' src='images/baseline/05252v.jpg'></img></p>","null","","1550522326133","","","","","","",""
"null","","html-keyboard-response","334","335526","0.0-8.0-0.0-4.1","COGS219_2019_22","<p><img class= 'stimulus' src='images/baseline/cranes 1.jpg'></img></p>","null","","1550522326233","4","","","","","",""
"null","","html-keyboard-response","335","335625","0.0-8.0-0.0-5.1","COGS219_2019_22","<p><img class= 'stimulus' src='images/baseline/pexels-photo-210617.jpeg'></img></p>","null","","1550522326333","","","","","","",""
"null","","html-keyboard-response","336","335724","0.0-8.0-0.0-6.1","COGS219_2019_22","<p><img class= 'stimulus' src='images/target/building17.jpg'></img></p>","null","","1550522326433","6","","","","","",""
"null","","html-keyboard-response","337","335825","0.0-8.0-0.0-7.1","COGS219_2019_22","<p><img class= 'stimulus' src='images/baseline/geese-flying-over-lake-at-dusk.jpg'></img></p>","null","","1550522326534","","","","","","",""
"null","","html-keyboard-response","338","335926","0.0-8.0-0.0-8.1","COGS219_2019_22","<p><img class= 'stimulus' src='images/baseline/Peyto_Lake-Banff_NP-Canada.jpg'></img></p>","null","","1550522326633","8","","","","","",""
"null","","html-keyboard-response","339","336024","0.0-8.0-0.0-9.1","COGS219_2019_22","<p><img class= 'stimulus' src='images/baseline/landscape39.jpg'></img></p>","null","","1550522326733","","","","","","",""
"null","","html-keyboard-response","340","336125","0.0-8.0-0.0-10.1","COGS219_2019_22","<p><img class= 'stimulus' src='images/baseline/landscape22.jpg'></img></p>","null","","1550522326833","","","","","","",""
"null","","html-keyboard-response","341","336225","0.0-8.0-0.0-11.1","COGS219_2019_22","<p><img class= 'stimulus' src='images/baseline/Lake 5.jpg'></img></p>","null","","1550522326933","","","","","","",""
"null","","html-keyboard-response","342","336325","0.0-8.0-0.0-12.1","COGS219_2019_22","<p><img class= 'stimulus' src='images/baseline/landscape3.jpg'></img></p>","null","","1550522327033","12","","","","","",""
"null","","html-keyboard-response","343","336425","0.0-8.0-0.0-13.1","COGS219_2019_22","<p><img class= 'stimulus' src='images/baseline/landscape33.jpg'></img></p>","null","","1550522327133","","","","","","",""
"null","","html-keyboard-response","344","336525","0.0-8.0-0.0-14.1","COGS219_2019_22","<p><img class= 'stimulus' src='images/baseline/04031v.jpg'></img></p>","null","","1550522327233","14","","","","","",""
"null","","html-keyboard-response","345","336625","0.0-8.0-0.0-15.1","COGS219_2019_22","<p><img class= 'stimulus' src='images/baseline/pexels-photo-750108.jpeg'></img></p>","null","","1550522327333","","","","","","",""
"null","","html-keyboard-response","346","336725","0.0-8.0-0.0-16.1","COGS219_2019_22","<p><img class= 'stimulus' src='images/baseline/03148v.jpg'></img></p>","null","","1550522327433","","","","","","",""
"null","","html-keyboard-response","347","336842","0.0-8.0-0.0-17.1","COGS219_2019_22","<p><img class= 'stimulus' src='images/baseline/landscape17.jpg'></img></p>","null","","1550522327533","","","","","","",""
"641.6999999996624","","html-button-response","348","338489","0.0-8.0-0.0-18.1","COGS219_2019_22","<div class = ""response_question"">WAS THE IMAGE ROTATED...</div>","","4","","","4","2","bas","right","test","true"
"558.3999999998487","","html-button-response","349","339049","0.0-8.0-0.0-0.2","COGS219_2019_22","","","0","","","","","","","",""
"null","","html-keyboard-response","350","339125","0.0-8.0-0.0-1.2","COGS219_2019_22","<p><img class= 'stimulus' src='images/baseline/Sunset 4.jpg'></img></p>","null","","1550522329833","","","","","","",""
"null","","html-keyboard-response","351","339225","0.0-8.0-0.0-2.2","COGS219_2019_22","<p><img class= 'stimulus' src='images/baseline/Sky 1.jpg'></img></p>","null","","1550522329933","","","","","","",""
"null","","html-keyboard-response","352","339325","0.0-8.0-0.0-3.2","COGS219_2019_22","<p><img class= 'stimulus' src='images/baseline/03201v.jpg'></img></p>","null","","1550522330033","","","","","","",""
"null","","html-keyboard-response","353","339425","0.0-8.0-0.0-4.2","COGS219_2019_22","<p><img class= 'stimulus' src='images/baseline/pexels-photo-541101.jpeg'></img></p>","null","","1550522330133","4","","","","","",""
"null","","html-keyboard-response","354","339524","0.0-8.0-0.0-5.2","COGS219_2019_22","<p><img class= 'stimulus' src='images/baseline/04063v.jpg'></img></p>","null","","1550522330234","","","","","","",""
"null","","html-keyboard-response","355","339625","0.0-8.0-0.0-6.2","COGS219_2019_22","<p><img class= 'stimulus' src='images/baseline/Street 4.jpg'></img></p>","null","","1550522330335","6","","","","","",""
"null","","html-keyboard-response","356","339724","0.0-8.0-0.0-7.2","COGS219_2019_22","<p><img class= 'stimulus' src='images/baseline/house10.jpg'></img></p>","null","","1550522330433","","","","","","",""
"null","","html-keyboard-response","357","339826","0.0-8.0-0.0-8.2","COGS219_2019_22","<p><img class= 'stimulus' src='images/baseline/pexels-photo-351264.jpeg'></img></p>","null","","1550522330534","8","","","","","",""
"null","","html-keyboard-response","358","339925","0.0-8.0-0.0-9.2","COGS219_2019_22","<p><img class= 'stimulus' src='images/baseline/03162v.jpg'></img></p>","null","","1550522330633","","","","","","",""
"null","","html-keyboard-response","359","340024","0.0-8.0-0.0-10.2","COGS219_2019_22","<p><img class= 'stimulus' src='images/baseline/kokkari-1523011968Xfr.jpg'></img></p>","null","","1550522330733","","","","","","",""
"null","","html-keyboard-response","360","340125","0.0-8.0-0.0-11.2","COGS219_2019_22","<p><img class= 'stimulus' src='images/baseline/Beach 2.jpg'></img></p>","null","","1550522330833","","","","","","",""
"null","","html-keyboard-response","361","340225","0.0-8.0-0.0-12.2","COGS219_2019_22","<p><img class= 'stimulus' src='images/baseline/landscape37.jpg'></img></p>","null","","1550522330933","12","","","","","",""
"null","","html-keyboard-response","362","340325","0.0-8.0-0.0-13.2","COGS219_2019_22","<p><img class= 'stimulus' src='images/baseline/field 3.jpg'></img></p>","null","","1550522331034","","","","","","",""
"null","","html-keyboard-response","363","340425","0.0-8.0-0.0-14.2","COGS219_2019_22","<p><img class= 'stimulus' src='images/target/lone-tree.png'></img></p>","null","","1550522331133","14","","","","","",""
"null","","html-keyboard-response","364","340525","0.0-8.0-0.0-15.2","COGS219_2019_22","<p><img class= 'stimulus' src='images/baseline/landscape29.jpg'></img></p>","null","","1550522331233","","","","","","",""
"null","","html-keyboard-response","365","340625","0.0-8.0-0.0-16.2","COGS219_2019_22","<p><img class= 'stimulus' src='images/baseline/Sidewalk 4.jpg'></img></p>","null","","1550522331333","","","","","","",""
"null","","html-keyboard-response","366","340741","0.0-8.0-0.0-17.2","COGS219_2019_22","<p><img class= 'stimulus' src='images/baseline/04086v.jpg'></img></p>","null","","1550522331433","","","","","","",""
"463.7000000002445","","html-button-response","367","342209","0.0-8.0-0.0-18.2","COGS219_2019_22","<div class = ""response_question"">WAS THE IMAGE ROTATED...</div>","","3","","","6","8","bas","right","test","true"
"630.2000000000698","","html-button-response","368","342841","0.0-8.0-0.0-0.3","COGS219_2019_22","","","0","","","","","","","",""
"null","","html-keyboard-response","369","342925","0.0-8.0-0.0-1.3","COGS219_2019_22","<p><img class= 'stimulus' src='images/baseline/Beach 3.jpg'></img></p>","null","","1550522333633","","","","","","",""
"null","","html-keyboard-response","370","343026","0.0-8.0-0.0-2.3","COGS219_2019_22","<p><img class= 'stimulus' src='images/baseline/Skyscraper 1.jpg'></img></p>","null","","1550522333734","","","","","","",""
"null","","html-keyboard-response","371","343126","0.0-8.0-0.0-3.3","COGS219_2019_22","<p><img class= 'stimulus' src='images/baseline/Lake 13.jpg'></img></p>","null","","1550522333833","","","","","","",""
"null","","html-keyboard-response","372","343226","0.0-8.0-0.0-4.3","COGS219_2019_22","<p><img class= 'stimulus' src='images/baseline/Grass 6.jpg'></img></p>","null","","1550522333933","4","","","","","",""
"null","","html-keyboard-response","373","343324","0.0-8.0-0.0-5.3","COGS219_2019_22","<p><img class= 'stimulus' src='images/baseline/hiking-trail.jpg'></img></p>","null","","1550522334034","","","","","","",""
"null","","html-keyboard-response","374","343426","0.0-8.0-0.0-6.3","COGS219_2019_22","<p><img class= 'stimulus' src='images/negative/Snake 6.jpg'></img></p>","null","","1550522334134","6","","","","","",""
"null","","html-keyboard-response","375","343526","0.0-8.0-0.0-7.3","COGS219_2019_22","<p><img class= 'stimulus' src='images/baseline/05198v.jpg'></img></p>","null","","1550522334234","","","","","","",""
"null","","html-keyboard-response","376","343625","0.0-8.0-0.0-8.3","COGS219_2019_22","<p><img class= 'stimulus' src='images/baseline/hills 3.jpg'></img></p>","null","","1550522334334","8","","","","","",""
"null","","html-keyboard-response","377","343724","0.0-8.0-0.0-9.3","COGS219_2019_22","<p><img class= 'stimulus' src='images/baseline/02977v.jpg'></img></p>","null","","1550522334433","","","","","","",""
"null","","html-keyboard-response","378","343825","0.0-8.0-0.0-10.3","COGS219_2019_22","<p><img class= 'stimulus' src='images/baseline/landscape1.jpg'></img></p>","null","","1550522334534","","","","","","",""
"null","","html-keyboard-response","379","343925","0.0-8.0-0.0-11.3","COGS219_2019_22","<p><img class= 'stimulus' src='images/baseline/03204v.jpg'></img></p>","null","","1550522334634","","","","","","",""
"null","","html-keyboard-response","380","344025","0.0-8.0-0.0-12.3","COGS219_2019_22","<p><img class= 'stimulus' src='images/baseline/building6.jpg'></img></p>","null","","1550522334734","12","","","","","",""
"null","","html-keyboard-response","381","344126","0.0-8.0-0.0-13.3","COGS219_2019_22","<p><img class= 'stimulus' src='images/baseline/04040v.jpg'></img></p>","null","","1550522334834","","","","","","",""
"null","","html-keyboard-response","382","344225","0.0-8.0-0.0-14.3","COGS219_2019_22","<p><img class= 'stimulus' src='images/target/9525-a-lonely-single-tree-in-a-field-pv.jpg'></img></p>","null","","1550522334933","14","","","","","",""
"null","","html-keyboard-response","383","344325","0.0-8.0-0.0-15.3","COGS219_2019_22","<p><img class= 'stimulus' src='images/baseline/Dirt 2.jpg'></img></p>","null","","1550522335034","","","","","","",""
"null","","html-keyboard-response","384","344425","0.0-8.0-0.0-16.3","COGS219_2019_22","<p><img class= 'stimulus' src='images/baseline/02982v.jpg'></img></p>","null","","1550522335134","","","","","","",""
"null","","html-keyboard-response","385","344542","0.0-8.0-0.0-17.3","COGS219_2019_22","<p><img class= 'stimulus' src='images/baseline/town-square-in-wroclaw-1539098440MZy.jpg'></img></p>","null","","1550522335233","","","","","","",""
"536.9000000000815","","html-button-response","386","346081","0.0-8.0-0.0-18.3","COGS219_2019_22","<div class = ""response_question"">WAS THE IMAGE ROTATED...</div>","","3","","","6","8","neg","right","test","true"
"630.2000000000698","","html-button-response","387","346713","0.0-8.0-0.0-0.4","COGS219_2019_22","","","0","","","","","","","",""
"null","","html-keyboard-response","388","346792","0.0-8.0-0.0-1.4","COGS219_2019_22","<p><img class= 'stimulus' src='images/baseline/empire-state-building.jpg'></img></p>","null","","1550522337500","","","","","","",""
"null","","html-keyboard-response","389","346891","0.0-8.0-0.0-2.4","COGS219_2019_22","<p><img class= 'stimulus' src='images/baseline/landscape35.jpg'></img></p>","null","","1550522337599","","","","","","",""
"null","","html-keyboard-response","390","346992","0.0-8.0-0.0-3.4","COGS219_2019_22","<p><img class= 'stimulus' src='images/baseline/farmhouse3.jpg'></img></p>","null","","1550522337699","","","","","","",""
"null","","html-keyboard-response","391","347092","0.0-8.0-0.0-4.4","COGS219_2019_22","<p><img class= 'stimulus' src='images/baseline/landscape7.jpg'></img></p>","null","","1550522337800","4","","","","","",""
"null","","html-keyboard-response","392","347192","0.0-8.0-0.0-5.4","COGS219_2019_22","<p><img class= 'stimulus' src='images/baseline/church-silhouette-8712964986014Kb.jpg'></img></p>","null","","1550522337899","","","","","","",""
"null","","html-keyboard-response","393","347292","0.0-8.0-0.0-6.4","COGS219_2019_22","<p><img class= 'stimulus' src='images/neutral/ostrich.jpg'></img></p>","null","","1550522338000","6","","","","","",""
"null","","html-keyboard-response","394","347392","0.0-8.0-0.0-7.4","COGS219_2019_22","<p><img class= 'stimulus' src='images/baseline/04014v.jpg'></img></p>","null","","1550522338101","","","","","","",""
"null","","html-keyboard-response","395","347491","0.0-8.0-0.0-8.4","COGS219_2019_22","<p><img class= 'stimulus left-rotate' src='images/target/specphotops-563427-unsplash.jpg'></img></p>","null","","1550522338200","8","","","","","",""
"null","","html-keyboard-response","396","347592","0.0-8.0-0.0-9.4","COGS219_2019_22","<p><img class= 'stimulus' src='images/baseline/03112v.jpg'></img></p>","null","","1550522338301","","","","","","",""
"null","","html-keyboard-response","397","347692","0.0-8.0-0.0-10.4","COGS219_2019_22","<p><img class= 'stimulus' src='images/baseline/landscape2.jpg'></img></p>","null","","1550522338402","","","","","","",""
"null","","html-keyboard-response","398","347791","0.0-8.0-0.0-11.4","COGS219_2019_22","<p><img class= 'stimulus' src='images/baseline/vintage-art-deco-storefront.jpg'></img></p>","null","","1550522338501","","","","","","",""
"null","","html-keyboard-response","399","347892","0.0-8.0-0.0-12.4","COGS219_2019_22","<p><img class= 'stimulus' src='images/baseline/horse_statue.jpg'></img></p>","null","","1550522338599","12","","","","","",""
"null","","html-keyboard-response","400","347991","0.0-8.0-0.0-13.4","COGS219_2019_22","<p><img class= 'stimulus' src='images/baseline/farmhouse4.jpg'></img></p>","null","","1550522338700","","","","","","",""
"null","","html-keyboard-response","401","348091","0.0-8.0-0.0-14.4","COGS219_2019_22","<p><img class= 'stimulus' src='images/baseline/05280v.jpg'></img></p>","null","","1550522338800","14","","","","","",""
"null","","html-keyboard-response","402","348192","0.0-8.0-0.0-15.4","COGS219_2019_22","<p><img class= 'stimulus' src='images/baseline/autumn-landscape-with-lake-fall-trees-mountains.jpg'></img></p>","null","","1550522338900","","","","","","",""
"null","","html-keyboard-response","403","348292","0.0-8.0-0.0-16.4","COGS219_2019_22","<p><img class= 'stimulus' src='images/baseline/04201v.jpg'></img></p>","null","","1550522339000","","","","","","",""
"null","","html-keyboard-response","404","348408","0.0-8.0-0.0-17.4","COGS219_2019_22","<p><img class= 'stimulus' src='images/baseline/Lake 7.jpg'></img></p>","null","","1550522339100","","","","","","",""
"540.8000000002212","","html-button-response","405","349953","0.0-8.0-0.0-18.4","COGS219_2019_22","<div class = ""response_question"">WAS THE IMAGE ROTATED...</div>","","0","","","6","2","neu","left","test","true"
"558.3000000001048","","html-button-response","406","350513","0.0-8.0-0.0-0.5","COGS219_2019_22","","","0","","","","","","","",""
"null","","html-keyboard-response","407","350592","0.0-8.0-0.0-1.5","COGS219_2019_22","<p><img class= 'stimulus' src='images/baseline/Desert_View_Indian_Wells.jpg'></img></p>","null","","1550522341300","","","","","","",""
"null","","html-keyboard-response","408","350692","0.0-8.0-0.0-2.5","COGS219_2019_22","<p><img class= 'stimulus' src='images/baseline/landscape40.jpg'></img></p>","null","","1550522341400","","","","","","",""
"null","","html-keyboard-response","409","350792","0.0-8.0-0.0-3.5","COGS219_2019_22","<p><img class= 'stimulus' src='images/baseline/04098v.jpg'></img></p>","null","","1550522341501","","","","","","",""
"null","","html-keyboard-response","410","350892","0.0-8.0-0.0-4.5","COGS219_2019_22","<p><img class= 'stimulus' src='images/baseline/04193v.jpg'></img></p>","null","","1550522341601","4","","","","","",""
"null","","html-keyboard-response","411","350992","0.0-8.0-0.0-5.5","COGS219_2019_22","<p><img class= 'stimulus' src='images/baseline/05158v.jpg'></img></p>","null","","1550522341700","","","","","","",""
"null","","html-keyboard-response","412","351092","0.0-8.0-0.0-6.5","COGS219_2019_22","<p><img class= 'stimulus' src='images/neutral/Zebra 1.jpg'></img></p>","null","","1550522341801","6","","","","","",""
"null","","html-keyboard-response","413","351192","0.0-8.0-0.0-7.5","COGS219_2019_22","<p><img class= 'stimulus' src='images/baseline/Lake 9.jpg'></img></p>","null","","1550522341901","","","","","","",""
"null","","html-keyboard-response","414","351292","0.0-8.0-0.0-8.5","COGS219_2019_22","<p><img class= 'stimulus' src='images/baseline/Nature 2.jpg'></img></p>","null","","1550522342000","8","","","","","",""
"null","","html-keyboard-response","415","351392","0.0-8.0-0.0-9.5","COGS219_2019_22","<p><img class= 'stimulus' src='images/baseline/tennis-court-net-buried-in-snow.jpg'></img></p>","null","","1550522342100","","","","","","",""
"null","","html-keyboard-response","416","351492","0.0-8.0-0.0-10.5","COGS219_2019_22","<p><img class= 'stimulus' src='images/baseline/Road 1.jpg'></img></p>","null","","1550522342200","","","","","","",""
"null","","html-keyboard-response","417","351592","0.0-8.0-0.0-11.5","COGS219_2019_22","<p><img class= 'stimulus' src='images/baseline/05264v.jpg'></img></p>","null","","1550522342301","","","","","","",""
"null","","html-keyboard-response","418","351691","0.0-8.0-0.0-12.5","COGS219_2019_22","<p><img class= 'stimulus' src='images/baseline/Sunset 5.jpg'></img></p>","null","","1550522342400","12","","","","","",""
"null","","html-keyboard-response","419","351792","0.0-8.0-0.0-13.5","COGS219_2019_22","<p><img class= 'stimulus' src='images/baseline/pexels-photo-1054289.jpeg'></img></p>","null","","1550522342500","","","","","","",""
"null","","html-keyboard-response","420","351892","0.0-8.0-0.0-14.5","COGS219_2019_22","<p><img class= 'stimulus' src='images/target/tree-3563269_640.jpg'></img></p>","null","","1550522342600","14","","","","","",""
"null","","html-keyboard-response","421","351992","0.0-8.0-0.0-15.5","COGS219_2019_22","<p><img class= 'stimulus' src='images/baseline/pexels-photo-1840893.jpeg'></img></p>","null","","1550522342700","","","","","","",""
"null","","html-keyboard-response","422","352092","0.0-8.0-0.0-16.5","COGS219_2019_22","<p><img class= 'stimulus' src='images/baseline/landscape4.jpg'></img></p>","null","","1550522342801","","","","","","",""
"null","","html-keyboard-response","423","352208","0.0-8.0-0.0-17.5","COGS219_2019_22","<p><img class= 'stimulus' src='images/baseline/02947v.jpg'></img></p>","null","","1550522342900","","","","","","",""
"869.5999999999767","","html-button-response","424","354082","0.0-8.0-0.0-18.5","COGS219_2019_22","<div class = ""response_question"">WAS THE IMAGE ROTATED...</div>","","3","","","6","8","neu","right","test","true"
"621.7000000001281","","html-button-response","425","354705","0.0-8.0-0.0-0.6","COGS219_2019_22","","","0","","","","","","","",""
"null","","html-keyboard-response","426","354792","0.0-8.0-0.0-1.6","COGS219_2019_22","<p><img class= 'stimulus' src='images/baseline/04284v.jpg'></img></p>","null","","1550522345501","","","","","","",""
"null","","html-keyboard-response","427","354891","0.0-8.0-0.0-2.6","COGS219_2019_22","<p><img class= 'stimulus' src='images/baseline/4k-wallpaper-agriculture-clouds-842711.jpg'></img></p>","null","","1550522345600","","","","","","",""
"null","","html-keyboard-response","428","354992","0.0-8.0-0.0-3.6","COGS219_2019_22","<p><img class= 'stimulus' src='images/baseline/farmhouse9.jpg'></img></p>","null","","1550522345701","","","","","","",""
"null","","html-keyboard-response","429","355093","0.0-8.0-0.0-4.6","COGS219_2019_22","<p><img class= 'stimulus' src='images/baseline/Waterfall 1.jpg'></img></p>","null","","1550522345800","4","","","","","",""
"null","","html-keyboard-response","430","355192","0.0-8.0-0.0-5.6","COGS219_2019_22","<p><img class= 'stimulus' src='images/baseline/04162v.jpg'></img></p>","null","","1550522345901","","","","","","",""
"null","","html-keyboard-response","431","355291","0.0-8.0-0.0-6.6","COGS219_2019_22","<p><img class= 'stimulus' src='images/target/mitre peak.jpg'></img></p>","null","","1550522346000","6","","","","","",""
"null","","html-keyboard-response","432","355392","0.0-8.0-0.0-7.6","COGS219_2019_22","<p><img class= 'stimulus' src='images/baseline/agriculture-countryside-crop-259280.jpg'></img></p>","null","","1550522346099","","","","","","",""
"null","","html-keyboard-response","433","355493","0.0-8.0-0.0-8.6","COGS219_2019_22","<p><img class= 'stimulus' src='images/baseline/landscape34.jpg'></img></p>","null","","1550522346200","8","","","","","",""
"null","","html-keyboard-response","434","355592","0.0-8.0-0.0-9.6","COGS219_2019_22","<p><img class= 'stimulus' src='images/baseline/bird-flying-at-sunset.jpg'></img></p>","null","","1550522346300","","","","","","",""
"null","","html-keyboard-response","435","355692","0.0-8.0-0.0-10.6","COGS219_2019_22","<p><img class= 'stimulus' src='images/baseline/05161v.jpg'></img></p>","null","","1550522346402","","","","","","",""
"null","","html-keyboard-response","436","355792","0.0-8.0-0.0-11.6","COGS219_2019_22","<p><img class= 'stimulus' src='images/baseline/Sunset 6.jpg'></img></p>","null","","1550522346501","","","","","","",""
"null","","html-keyboard-response","437","355892","0.0-8.0-0.0-12.6","COGS219_2019_22","<p><img class= 'stimulus' src='images/baseline/farmhouse1.jpg'></img></p>","null","","1550522346600","12","","","","","",""
"null","","html-keyboard-response","438","355992","0.0-8.0-0.0-13.6","COGS219_2019_22","<p><img class= 'stimulus' src='images/baseline/building2.jpg'></img></p>","null","","1550522346701","","","","","","",""
"null","","html-keyboard-response","439","356092","0.0-8.0-0.0-14.6","COGS219_2019_22","<p><img class= 'stimulus' src='images/baseline/pexels-photo-440731.jpeg'></img></p>","null","","1550522346800","14","","","","","",""
"null","","html-keyboard-response","440","356193","0.0-8.0-0.0-15.6","COGS219_2019_22","<p><img class= 'stimulus' src='images/baseline/architecture_modern_architecture_852928.jpg'></img></p>","null","","1550522346900","","","","","","",""
"null","","html-keyboard-response","441","356291","0.0-8.0-0.0-16.6","COGS219_2019_22","<p><img class= 'stimulus' src='images/baseline/Sunset 3.jpg'></img></p>","null","","1550522347001","","","","","","",""
"null","","html-keyboard-response","442","356408","0.0-8.0-0.0-17.6","COGS219_2019_22","<p><img class= 'stimulus' src='images/baseline/02960v.jpg'></img></p>","null","","1550522347101","","","","","","",""
"439.09999999962747","","html-button-response","443","357865","0.0-8.0-0.0-18.6","COGS219_2019_22","<div class = ""response_question"">WAS THE IMAGE ROTATED...</div>","","4","","","4","2","bas","right","test","true"
"510.20000000018626","","html-button-response","444","358377","0.0-8.0-0.0-0.7","COGS219_2019_22","","","0","","","","","","","",""
"null","","html-keyboard-response","445","358459","0.0-8.0-0.0-1.7","COGS219_2019_22","<p><img class= 'stimulus' src='images/baseline/Lake 16.jpg'></img></p>","null","","1550522349167","","","","","","",""
"null","","html-keyboard-response","446","358559","0.0-8.0-0.0-2.7","COGS219_2019_22","<p><img class= 'stimulus' src='images/baseline/04021v.jpg'></img></p>","null","","1550522349267","","","","","","",""
"null","","html-keyboard-response","447","358658","0.0-8.0-0.0-3.7","COGS219_2019_22","<p><img class= 'stimulus' src='images/baseline/chicago-skyline-at-night-1476869511p8U.jpg'></img></p>","null","","1550522349368","","","","","","",""
"null","","html-keyboard-response","448","358758","0.0-8.0-0.0-4.7","COGS219_2019_22","<p><img class= 'stimulus' src='images/negative/Injury 1.jpg'></img></p>","null","","1550522349467","4","","","","","",""
"null","","html-keyboard-response","449","358858","0.0-8.0-0.0-5.7","COGS219_2019_22","<p><img class= 'stimulus' src='images/baseline/landscape13.jpg'></img></p>","null","","1550522349566","","","","","","",""
"null","","html-keyboard-response","450","358958","0.0-8.0-0.0-6.7","COGS219_2019_22","<p><img class= 'stimulus' src='images/target/landscape3.jpg'></img></p>","null","","1550522349668","6","","","","","",""
"null","","html-keyboard-response","451","359059","0.0-8.0-0.0-7.7","COGS219_2019_22","<p><img class= 'stimulus' src='images/baseline/farmhouse7.jpg'></img></p>","null","","1550522349766","","","","","","",""
"null","","html-keyboard-response","452","359158","0.0-8.0-0.0-8.7","COGS219_2019_22","<p><img class= 'stimulus' src='images/baseline/farmhouse11.jpg'></img></p>","null","","1550522349867","8","","","","","",""
"null","","html-keyboard-response","453","359259","0.0-8.0-0.0-9.7","COGS219_2019_22","<p><img class= 'stimulus' src='images/baseline/landscape8.jpg'></img></p>","null","","1550522349967","","","","","","",""
"null","","html-keyboard-response","454","359359","0.0-8.0-0.0-10.7","COGS219_2019_22","<p><img class= 'stimulus' src='images/baseline/05303v.jpg'></img></p>","null","","1550522350068","","","","","","",""
"null","","html-keyboard-response","455","359458","0.0-8.0-0.0-11.7","COGS219_2019_22","<p><img class= 'stimulus' src='images/baseline/house1.jpg'></img></p>","null","","1550522350166","","","","","","",""
"null","","html-keyboard-response","456","359558","0.0-8.0-0.0-12.7","COGS219_2019_22","<p><img class= 'stimulus' src='images/baseline/valley 1.jpg'></img></p>","null","","1550522350268","12","","","","","",""
"null","","html-keyboard-response","457","359659","0.0-8.0-0.0-13.7","COGS219_2019_22","<p><img class= 'stimulus' src='images/baseline/pexels-photo-459203.jpeg'></img></p>","null","","1550522350368","","","","","","",""
"null","","html-keyboard-response","458","359758","0.0-8.0-0.0-14.7","COGS219_2019_22","<p><img class= 'stimulus' src='images/baseline/agriculture-cereal-clouds-175389.jpg'></img></p>","null","","1550522350468","14","","","","","",""
"null","","html-keyboard-response","459","359860","0.0-8.0-0.0-15.7","COGS219_2019_22","<p><img class= 'stimulus' src='images/baseline/landscape12.jpg'></img></p>","null","","1550522350567","","","","","","",""
"null","","html-keyboard-response","460","359958","0.0-8.0-0.0-16.7","COGS219_2019_22","<p><img class= 'stimulus' src='images/baseline/Street 1.jpg'></img></p>","null","","1550522350667","","","","","","",""
"null","","html-keyboard-response","461","360076","0.0-8.0-0.0-17.7","COGS219_2019_22","<p><img class= 'stimulus' src='images/baseline/04060v.jpg'></img></p>","null","","1550522350767","","","","","","",""
"1135.7999999999884","","html-button-response","462","362217","0.0-8.0-0.0-18.7","COGS219_2019_22","<div class = ""response_question"">WAS THE IMAGE ROTATED...</div>","","5","","","4","2","neg","right","test","false"
"606.2999999998719","","html-button-response","463","362825","0.0-8.0-0.0-0.8","COGS219_2019_22","","","0","","","","","","","",""
"null","","html-keyboard-response","464","362909","0.0-8.0-0.0-1.8","COGS219_2019_22","<p><img class= 'stimulus' src='images/baseline/Nature 1.jpg'></img></p>","null","","1550522353617","","","","","","",""
"null","","html-keyboard-response","465","363010","0.0-8.0-0.0-2.8","COGS219_2019_22","<p><img class= 'stimulus' src='images/baseline/05189v.jpg'></img></p>","null","","1550522353717","","","","","","",""
"null","","html-keyboard-response","466","363108","0.0-8.0-0.0-3.8","COGS219_2019_22","<p><img class= 'stimulus' src='images/baseline/03056v.jpg'></img></p>","null","","1550522353817","","","","","","",""
"null","","html-keyboard-response","467","363209","0.0-8.0-0.0-4.8","COGS219_2019_22","<p><img class= 'stimulus' src='images/baseline/pexels-photo-259280.jpeg'></img></p>","null","","1550522353916","4","","","","","",""
"null","","html-keyboard-response","468","363308","0.0-8.0-0.0-5.8","COGS219_2019_22","<p><img class= 'stimulus' src='images/baseline/building4.jpg'></img></p>","null","","1550522354017","","","","","","",""
"null","","html-keyboard-response","469","363408","0.0-8.0-0.0-6.8","COGS219_2019_22","<p><img class= 'stimulus' src='images/negative/Injury 2.jpg'></img></p>","null","","1550522354116","6","","","","","",""
"null","","html-keyboard-response","470","363509","0.0-8.0-0.0-7.8","COGS219_2019_22","<p><img class= 'stimulus' src='images/baseline/05242v.jpg'></img></p>","null","","1550522354218","","","","","","",""
"null","","html-keyboard-response","471","363609","0.0-8.0-0.0-8.8","COGS219_2019_22","<p><img class= 'stimulus left-rotate' src='images/target/pexels-photo-236294.jpeg'></img></p>","null","","1550522354317","8","","","","","",""
"null","","html-keyboard-response","472","363709","0.0-8.0-0.0-9.8","COGS219_2019_22","<p><img class= 'stimulus' src='images/baseline/pexels-photo-221125.jpeg'></img></p>","null","","1550522354416","","","","","","",""
"null","","html-keyboard-response","473","363810","0.0-8.0-0.0-10.8","COGS219_2019_22","<p><img class= 'stimulus' src='images/baseline/farmhouse2.jpg'></img></p>","null","","1550522354517","","","","","","",""
"null","","html-keyboard-response","474","363908","0.0-8.0-0.0-11.8","COGS219_2019_22","<p><img class= 'stimulus' src='images/baseline/pexels-photo-280222.jpeg'></img></p>","null","","1550522354617","","","","","","",""
"null","","html-keyboard-response","475","364008","0.0-8.0-0.0-12.8","COGS219_2019_22","<p><img class= 'stimulus' src='images/baseline/foreclosed_home.jpg'></img></p>","null","","1550522354717","12","","","","","",""
"null","","html-keyboard-response","476","364109","0.0-8.0-0.0-13.8","COGS219_2019_22","<p><img class= 'stimulus' src='images/baseline/03212v.jpg'></img></p>","null","","1550522354817","","","","","","",""
"null","","html-keyboard-response","477","364208","0.0-8.0-0.0-14.8","COGS219_2019_22","<p><img class= 'stimulus' src='images/baseline/flooded-bridge.jpg'></img></p>","null","","1550522354918","14","","","","","",""
"null","","html-keyboard-response","478","364308","0.0-8.0-0.0-15.8","COGS219_2019_22","<p><img class= 'stimulus' src='images/baseline/Skijump 1.jpg'></img></p>","null","","1550522355017","","","","","","",""
