"rt","responses","trial_type","trial_index","time_elapsed","internal_node_id","participant_id","stimulus","key_press","button_pressed","stim_onset","sequence_position","distractor_position","target_lag","distractor_type","target_orientation","phase","correct"
"5432.999999960884","{""Q0"":""44""}","survey-text","0","5437","0.0-0.0","44","","","","","","","","","","",""
"2074925.099999993","","html-keyboard-response","1","2080371","0.0-1.0","44","Welcome to the experiment.","67","","","","","","","","",""
"28071.100000001024","","html-button-response","2","2108437","0.0-2.0","44","<p>Several images will be presented sequentially.        Each image will only be on the screen for about 100 milliseconds.</p>        <p> One of the images may be rotated 90 degrees right or left.        Watch for this image and remember if it is rotated right or left.</p>               <p>Images of people and animals will appear, and sometimes they will be unpleasant.        These will never be the rotated target image.</p>","","0","","","","","","","",""
"2301.8999999621883","","html-button-response","3","2110741","0.0-3.0","44","<p><img class=""stimulus left-rotate"" src=""images/target/1937-single-tree-at-the-top-of-stone-mountain-pv.jpg""></img></p><p>This is an example of an image rotated to the left.</p>","","0","","","","","","","",""
"1894.9000000138767","","html-button-response","4","2112636","0.0-4.0","44","<p><img class=""stimulus"" src=""images/target/pexels-photo-932328.jpeg""></img></p><p>This is an example of an image rotated to the right.</p>","","0","","","","","","","",""
"11375","","html-button-response","5","2124012","0.0-5.0","44","<p>We will now begin a short practice session.</p>         <p>A + symbol will appear in the middle of the screen. Please fix your gaze on the center of the +, and then click the mouse button to begin the image sequence.</p>         <p>Please avoid blinking or eye movements while the images are on the screen.</p>        <p>The image sequence will start relatively slow. After a few sequences, it will speed up.</p>","","0","","","","","","","",""
"12678.699999989476","","html-button-response","6","2136692","0.0-6.0-0.0","44","","","0","","","","","","","",""
"null","","html-keyboard-response","7","2136873","0.0-6.0-1.0","44","<p><img class= 'stimulus' src='images/baseline/lake 2.jpg'></img></p>","null","","1551317763893","","","","","","",""
"null","","html-keyboard-response","8","2137073","0.0-6.0-2.0","44","<p><img class= 'stimulus' src='images/baseline/farmhouse1.jpg'></img></p>","null","","1551317764092","","","","","","",""
"null","","html-keyboard-response","9","2137273","0.0-6.0-3.0","44","<p><img class= 'stimulus' src='images/baseline/05240v.jpg'></img></p>","null","","1551317764292","","","","","","",""
"null","","html-keyboard-response","10","2137475","0.0-6.0-4.0","44","<p><img class= 'stimulus' src='images/baseline/lone-old-cottonwood-tree.jpg'></img></p>","null","","1551317764493","4","","","","","",""
"null","","html-keyboard-response","11","2137674","0.0-6.0-5.0","44","<p><img class= 'stimulus' src='images/baseline/Peyto_Lake-Banff_NP-Canada.jpg'></img></p>","null","","1551317764693","","","","","","",""
"null","","html-keyboard-response","12","2137874","0.0-6.0-6.0","44","<p><img class= 'stimulus' src='images/baseline/03114v.jpg'></img></p>","null","","1551317764893","6","","","","","",""
"null","","html-keyboard-response","13","2138074","0.0-6.0-7.0","44","<p><img class= 'stimulus' src='images/baseline/05303v.jpg'></img></p>","null","","1551317765092","","","","","","",""
"null","","html-keyboard-response","14","2138274","0.0-6.0-8.0","44","<p><img class= 'stimulus left-rotate' src='images/target/beach1.jpeg'></img></p>","null","","1551317765293","8","","","","","",""
"null","","html-keyboard-response","15","2138473","0.0-6.0-9.0","44","<p><img class= 'stimulus' src='images/baseline/landscape3.jpg'></img></p>","null","","1551317765493","","","","","","",""
"null","","html-keyboard-response","16","2138673","0.0-6.0-10.0","44","<p><img class= 'stimulus' src='images/baseline/chicago-skyline-at-night-1476869511p8U.jpg'></img></p>","null","","1551317765693","","","","","","",""
"null","","html-keyboard-response","17","2138874","0.0-6.0-11.0","44","<p><img class= 'stimulus' src='images/baseline/grand-teton-mountains.jpg'></img></p>","null","","1551317765894","","","","","","",""
"null","","html-keyboard-response","18","2139075","0.0-6.0-12.0","44","<p><img class= 'stimulus' src='images/baseline/pexels-photo-541101.jpeg'></img></p>","null","","1551317766093","12","","","","","",""
"null","","html-keyboard-response","19","2139274","0.0-6.0-13.0","44","<p><img class= 'stimulus' src='images/baseline/04117v.jpg'></img></p>","null","","1551317766293","","","","","","",""
"null","","html-keyboard-response","20","2139474","0.0-6.0-14.0","44","<p><img class= 'stimulus' src='images/baseline/pexels-photo-210617.jpeg'></img></p>","null","","1551317766493","14","","","","","",""
"null","","html-keyboard-response","21","2139674","0.0-6.0-15.0","44","<p><img class= 'stimulus' src='images/baseline/__08_-_ITALY_-_Forli_under_snow_-_winter_landscape_of_city_(christmas).jpg'></img></p>","null","","1551317766694","","","","","","",""
"null","","html-keyboard-response","22","2139875","0.0-6.0-16.0","44","<p><img class= 'stimulus' src='images/baseline/Street 3.jpg'></img></p>","null","","1551317766894","","","","","","",""
"null","","html-keyboard-response","23","2140091","0.0-6.0-17.0","44","<p><img class= 'stimulus' src='images/baseline/Waterfall 1.jpg'></img></p>","null","","1551317767093","","","","","","",""
"5627.299999992829","","html-button-response","24","2146725","0.0-6.0-18.0","44","<div class = ""response_question"">WAS THE IMAGE ROTATED...</div>","","0","","","6","2","bas","left","practice","true"
"5341.899999999441","","html-button-response","25","2152068","0.0-6.0-0.1","44","","","0","","","","","","","",""
"null","","html-keyboard-response","26","2152241","0.0-6.0-1.1","44","<p><img class= 'stimulus' src='images/baseline/farmhouse8.jpg'></img></p>","null","","1551317779259","","","","","","",""
"null","","html-keyboard-response","27","2152441","0.0-6.0-2.1","44","<p><img class= 'stimulus' src='images/baseline/tennis-court-net-buried-in-snow.jpg'></img></p>","null","","1551317779460","","","","","","",""
"null","","html-keyboard-response","28","2152641","0.0-6.0-3.1","44","<p><img class= 'stimulus' src='images/baseline/cranes 1.jpg'></img></p>","null","","1551317779660","","","","","","",""
"null","","html-keyboard-response","29","2152840","0.0-6.0-4.1","44","<p><img class= 'stimulus' src='images/baseline/04064v.jpg'></img></p>","null","","1551317779860","4","","","","","",""
"null","","html-keyboard-response","30","2153042","0.0-6.0-5.1","44","<p><img class= 'stimulus' src='images/baseline/04021v.jpg'></img></p>","null","","1551317780060","","","","","","",""
"null","","html-keyboard-response","31","2153241","0.0-6.0-6.1","44","<p><img class= 'stimulus' src='images/baseline/Street 5.jpg'></img></p>","null","","1551317780260","6","","","","","",""
"null","","html-keyboard-response","32","2153441","0.0-6.0-7.1","44","<p><img class= 'stimulus' src='images/baseline/Skyscraper 2.jpg'></img></p>","null","","1551317780461","","","","","","",""
"null","","html-keyboard-response","33","2153641","0.0-6.0-8.1","44","<p><img class= 'stimulus' src='images/baseline/house6.jpg'></img></p>","null","","1551317780662","8","","","","","",""
"null","","html-keyboard-response","34","2153842","0.0-6.0-9.1","44","<p><img class= 'stimulus' src='images/baseline/05139v.jpg'></img></p>","null","","1551317780860","","","","","","",""
"null","","html-keyboard-response","35","2154043","0.0-6.0-10.1","44","<p><img class= 'stimulus' src='images/baseline/03217v.jpg'></img></p>","null","","1551317781061","","","","","","",""
"null","","html-keyboard-response","36","2154243","0.0-6.0-11.1","44","<p><img class= 'stimulus' src='images/baseline/road.jpg'></img></p>","null","","1551317781262","","","","","","",""
"null","","html-keyboard-response","37","2154443","0.0-6.0-12.1","44","<p><img class= 'stimulus left-rotate' src='images/target/chicago-673558_640.jpg'></img></p>","null","","1551317781462","12","","","","","",""
"null","","html-keyboard-response","38","2154642","0.0-6.0-13.1","44","<p><img class= 'stimulus' src='images/baseline/Desert_View_Indian_Wells.jpg'></img></p>","null","","1551317781663","","","","","","",""
"null","","html-keyboard-response","39","2154842","0.0-6.0-14.1","44","<p><img class= 'stimulus' src='images/baseline/04130v.jpg'></img></p>","null","","1551317781862","14","","","","","",""
"null","","html-keyboard-response","40","2155042","0.0-6.0-15.1","44","<p><img class= 'stimulus' src='images/baseline/cyrillic.jpg'></img></p>","null","","1551317782062","","","","","","",""
"null","","html-keyboard-response","41","2155241","0.0-6.0-16.1","44","<p><img class= 'stimulus' src='images/baseline/Lake 9.jpg'></img></p>","null","","1551317782262","","","","","","",""
"null","","html-keyboard-response","42","2155459","0.0-6.0-17.1","44","<p><img class= 'stimulus' src='images/baseline/hills 4.jpg'></img></p>","null","","1551317782461","","","","","","",""
"2278.3000000054017","","html-button-response","43","2158741","0.0-6.0-18.1","44","<div class = ""response_question"">WAS THE IMAGE ROTATED...</div>","","0","","","4","8","bas","left","practice","true"
"2326.3000000151806","","html-button-response","44","2161070","0.0-6.0-0.2","44","","","0","","","","","","","",""
"null","","html-keyboard-response","45","2161242","0.0-6.0-1.2","44","<p><img class= 'stimulus' src='images/baseline/farmhouse2.jpg'></img></p>","null","","1551317788262","","","","","","",""
"null","","html-keyboard-response","46","2161442","0.0-6.0-2.2","44","<p><img class= 'stimulus' src='images/baseline/landscape7.jpg'></img></p>","null","","1551317788462","","","","","","",""
"null","","html-keyboard-response","47","2161643","0.0-6.0-3.2","44","<p><img class= 'stimulus' src='images/baseline/building9.jpg'></img></p>","null","","1551317788663","","","","","","",""
"null","","html-keyboard-response","48","2161844","0.0-6.0-4.2","44","<p><img class= 'stimulus' src='images/baseline/architecture_modern_architecture_852928.jpg'></img></p>","null","","1551317788863","4","","","","","",""
"null","","html-keyboard-response","49","2162043","0.0-6.0-5.2","44","<p><img class= 'stimulus' src='images/baseline/Freudenberg_sg_Switzerland.jpg'></img></p>","null","","1551317789063","","","","","","",""
"null","","html-keyboard-response","50","2162244","0.0-6.0-6.2","44","<p><img class= 'stimulus' src='images/baseline/pexels-photo-440731.jpeg'></img></p>","null","","1551317789263","6","","","","","",""
"null","","html-keyboard-response","51","2162443","0.0-6.0-7.2","44","<p><img class= 'stimulus' src='images/baseline/05242v.jpg'></img></p>","null","","1551317789464","","","","","","",""
"null","","html-keyboard-response","52","2162646","0.0-6.0-8.2","44","<p><img class= 'stimulus' src='images/baseline/landscape15.jpg'></img></p>","null","","1551317789663","8","","","","","",""
"null","","html-keyboard-response","53","2162847","0.0-6.0-9.2","44","<p><img class= 'stimulus' src='images/baseline/house1.jpg'></img></p>","null","","1551317789865","","","","","","",""
"null","","html-keyboard-response","54","2163045","0.0-6.0-10.2","44","<p><img class= 'stimulus' src='images/baseline/pexels-photo-414491.jpeg'></img></p>","null","","1551317790065","","","","","","",""
"null","","html-keyboard-response","55","2163246","0.0-6.0-11.2","44","<p><img class= 'stimulus' src='images/baseline/field 2.jpg'></img></p>","null","","1551317790263","","","","","","",""
"null","","html-keyboard-response","56","2163444","0.0-6.0-12.2","44","<p><img class= 'stimulus' src='images/baseline/pexels-photo-1287089.jpeg'></img></p>","null","","1551317790463","12","","","","","",""
"null","","html-keyboard-response","57","2163644","0.0-6.0-13.2","44","<p><img class= 'stimulus' src='images/baseline/red rocks from afar.jpg'></img></p>","null","","1551317790664","","","","","","",""
"null","","html-keyboard-response","58","2163846","0.0-6.0-14.2","44","<p><img class= 'stimulus left-rotate' src='images/target/coconut-3396945_640.jpg'></img></p>","null","","1551317790863","14","","","","","",""
"null","","html-keyboard-response","59","2164046","0.0-6.0-15.2","44","<p><img class= 'stimulus' src='images/baseline/Lake 5.jpg'></img></p>","null","","1551317791064","","","","","","",""
"null","","html-keyboard-response","60","2164245","0.0-6.0-16.2","44","<p><img class= 'stimulus' src='images/baseline/farmhouse4.jpg'></img></p>","null","","1551317791264","","","","","","",""
"null","","html-keyboard-response","61","2164462","0.0-6.0-17.2","44","<p><img class= 'stimulus' src='images/baseline/02945v.jpg'></img></p>","null","","1551317791464","","","","","","",""
"2413.1000000052154","","html-button-response","62","2167877","0.0-6.0-18.2","44","<div class = ""response_question"">WAS THE IMAGE ROTATED...</div>","","0","","","6","8","bas","left","practice","true"
"2214.399999997113","","html-button-response","63","2170093","0.0-6.0-0.3","44","","","0","","","","","","","",""
"null","","html-keyboard-response","64","2170277","0.0-6.0-1.3","44","<p><img class= 'stimulus' src='images/baseline/lake 1.jpg'></img></p>","null","","1551317797296","","","","","","",""
"null","","html-keyboard-response","65","2170476","0.0-6.0-2.3","44","<p><img class= 'stimulus' src='images/baseline/Camping 10.jpg'></img></p>","null","","1551317797496","","","","","","",""
"null","","html-keyboard-response","66","2170676","0.0-6.0-3.3","44","<p><img class= 'stimulus' src='images/baseline/pexels-photo-1048039.jpeg'></img></p>","null","","1551317797696","","","","","","",""
"null","","html-keyboard-response","67","2170876","0.0-6.0-4.3","44","<p><img class= 'stimulus' src='images/baseline/05131v.jpg'></img></p>","null","","1551317797896","4","","","","","",""
"null","","html-keyboard-response","68","2171076","0.0-6.0-5.3","44","<p><img class= 'stimulus' src='images/baseline/landscape19.jpg'></img></p>","null","","1551317798096","","","","","","",""
"null","","html-keyboard-response","69","2171277","0.0-6.0-6.3","44","<p><img class= 'stimulus left-rotate' src='images/target/building17.jpg'></img></p>","null","","1551317798297","6","","","","","",""
"null","","html-keyboard-response","70","2171477","0.0-6.0-7.3","44","<p><img class= 'stimulus' src='images/baseline/autumn-in-red-rocks-park.jpg'></img></p>","null","","1551317798497","","","","","","",""
"null","","html-keyboard-response","71","2171677","0.0-6.0-8.3","44","<p><img class= 'stimulus' src='images/baseline/flooded-bridge.jpg'></img></p>","null","","1551317798697","8","","","","","",""
"null","","html-keyboard-response","72","2171877","0.0-6.0-9.3","44","<p><img class= 'stimulus' src='images/baseline/Kocherbaumwald-01.jpg'></img></p>","null","","1551317798897","","","","","","",""
"null","","html-keyboard-response","73","2172077","0.0-6.0-10.3","44","<p><img class= 'stimulus' src='images/baseline/pexels-photo-1837621.jpeg'></img></p>","null","","1551317799097","","","","","","",""
"null","","html-keyboard-response","74","2172278","0.0-6.0-11.3","44","<p><img class= 'stimulus' src='images/baseline/04085v.jpg'></img></p>","null","","1551317799297","","","","","","",""
"null","","html-keyboard-response","75","2172477","0.0-6.0-12.3","44","<p><img class= 'stimulus' src='images/baseline/valley 1.jpg'></img></p>","null","","1551317799498","12","","","","","",""
"null","","html-keyboard-response","76","2172677","0.0-6.0-13.3","44","<p><img class= 'stimulus' src='images/baseline/03075v.jpg'></img></p>","null","","1551317799698","","","","","","",""
"null","","html-keyboard-response","77","2172878","0.0-6.0-14.3","44","<p><img class= 'stimulus' src='images/baseline/Beach 2.jpg'></img></p>","null","","1551317799897","14","","","","","",""
"null","","html-keyboard-response","78","2173077","0.0-6.0-15.3","44","<p><img class= 'stimulus' src='images/baseline/05186v.jpg'></img></p>","null","","1551317800097","","","","","","",""
"null","","html-keyboard-response","79","2173277","0.0-6.0-16.3","44","<p><img class= 'stimulus' src='images/baseline/05264v.jpg'></img></p>","null","","1551317800296","","","","","","",""
"null","","html-keyboard-response","80","2173494","0.0-6.0-17.3","44","<p><img class= 'stimulus' src='images/baseline/building16.jpg'></img></p>","null","","1551317800497","","","","","","",""
"1700.8999999961816","","html-button-response","81","2176198","0.0-6.0-18.3","44","<div class = ""response_question"">WAS THE IMAGE ROTATED...</div>","","0","","","4","2","bas","left","practice","true"
"2118.799999996554","","html-button-response","82","2178318","0.0-6.0-0.4","44","","","0","","","","","","","",""
"null","","html-keyboard-response","83","2178444","0.0-6.0-1.4","44","<p><img class= 'stimulus' src='images/baseline/lake3.jpg'></img></p>","null","","1551317805513","","","","","","",""
"null","","html-keyboard-response","84","2178593","0.0-6.0-2.4","44","<p><img class= 'stimulus' src='images/baseline/scenic-mountain-landscape.jpg'></img></p>","null","","1551317805663","","","","","","",""
"null","","html-keyboard-response","85","2178743","0.0-6.0-3.4","44","<p><img class= 'stimulus' src='images/baseline/pexels-photo-427676.jpeg'></img></p>","null","","1551317805812","","","","","","",""
"null","","html-keyboard-response","86","2178894","0.0-6.0-4.4","44","<p><img class= 'stimulus' src='images/baseline/03041v.jpg'></img></p>","null","","1551317805963","4","","","","","",""
"null","","html-keyboard-response","87","2179042","0.0-6.0-5.4","44","<p><img class= 'stimulus' src='images/baseline/vintage-art-deco-storefront.jpg'></img></p>","null","","1551317806113","","","","","","",""
"null","","html-keyboard-response","88","2179193","0.0-6.0-6.4","44","<p><img class= 'stimulus' src='images/baseline/river 1.jpg'></img></p>","null","","1551317806263","6","","","","","",""
"null","","html-keyboard-response","89","2179342","0.0-6.0-7.4","44","<p><img class= 'stimulus' src='images/baseline/05179v.jpg'></img></p>","null","","1551317806412","","","","","","",""
"null","","html-keyboard-response","90","2179492","0.0-6.0-8.4","44","<p><img class= 'stimulus' src='images/baseline/04201v.jpg'></img></p>","null","","1551317806562","8","","","","","",""
"null","","html-keyboard-response","91","2179642","0.0-6.0-9.4","44","<p><img class= 'stimulus' src='images/baseline/landscape40.jpg'></img></p>","null","","1551317806713","","","","","","",""
"null","","html-keyboard-response","92","2179792","0.0-6.0-10.4","44","<p><img class= 'stimulus' src='images/baseline/building6.jpg'></img></p>","null","","1551317806862","","","","","","",""
"null","","html-keyboard-response","93","2179942","0.0-6.0-11.4","44","<p><img class= 'stimulus' src='images/baseline/sunny-landscape-with-dry-brush-and-mountain-background.jpg'></img></p>","null","","1551317807012","","","","","","",""
"null","","html-keyboard-response","94","2180092","0.0-6.0-12.4","44","<p><img class= 'stimulus' src='images/baseline/Sailing 3.jpg'></img></p>","null","","1551317807161","12","","","","","",""
"null","","html-keyboard-response","95","2180243","0.0-6.0-13.4","44","<p><img class= 'stimulus' src='images/baseline/05189v.jpg'></img></p>","null","","1551317807311","","","","","","",""
"null","","html-keyboard-response","96","2180393","0.0-6.0-14.4","44","<p><img class= 'stimulus' src='images/target/tree-197536_640.jpg'></img></p>","null","","1551317807461","14","","","","","",""
"null","","html-keyboard-response","97","2180541","0.0-6.0-15.4","44","<p><img class= 'stimulus' src='images/baseline/farmhouse9.jpg'></img></p>","null","","1551317807611","","","","","","",""
"null","","html-keyboard-response","98","2180692","0.0-6.0-16.4","44","<p><img class= 'stimulus' src='images/baseline/02962v.jpg'></img></p>","null","","1551317807762","","","","","","",""
"null","","html-keyboard-response","99","2180859","0.0-6.0-17.4","44","<p><img class= 'stimulus' src='images/baseline/landscape11.jpg'></img></p>","null","","1551317807912","","","","","","",""
"1022.6000000257045","","html-button-response","100","2182886","0.0-6.0-18.4","44","<div class = ""response_question"">WAS THE IMAGE ROTATED...</div>","","3","","","6","8","bas","right","practice","true"
"1206.3000000198372","","html-button-response","101","2184093","0.0-6.0-0.5","44","","","0","","","","","","","",""
"null","","html-keyboard-response","102","2184225","0.0-6.0-1.5","44","<p><img class= 'stimulus' src='images/baseline/hiking-trail.jpg'></img></p>","null","","1551317811295","","","","","","",""
"null","","html-keyboard-response","103","2184375","0.0-6.0-2.5","44","<p><img class= 'stimulus' src='images/baseline/Lake 7.jpg'></img></p>","null","","1551317811444","","","","","","",""
"null","","html-keyboard-response","104","2184525","0.0-6.0-3.5","44","<p><img class= 'stimulus' src='images/baseline/04010v.jpg'></img></p>","null","","1551317811594","","","","","","",""
"null","","html-keyboard-response","105","2184676","0.0-6.0-4.5","44","<p><img class= 'stimulus' src='images/baseline/farmhouse7.jpg'></img></p>","null","","1551317811745","4","","","","","",""
"null","","html-keyboard-response","106","2184825","0.0-6.0-5.5","44","<p><img class= 'stimulus' src='images/baseline/town-square-in-wroclaw-1539098440MZy.jpg'></img></p>","null","","1551317811896","","","","","","",""
"null","","html-keyboard-response","107","2184975","0.0-6.0-6.5","44","<p><img class= 'stimulus' src='images/baseline/building12.jpg'></img></p>","null","","1551317812044","6","","","","","",""
"null","","html-keyboard-response","108","2185125","0.0-6.0-7.5","44","<p><img class= 'stimulus' src='images/baseline/Dock 1.jpg'></img></p>","null","","1551317812196","","","","","","",""
"null","","html-keyboard-response","109","2185275","0.0-6.0-8.5","44","<p><img class= 'stimulus' src='images/target/pexels-photo-602607.jpeg'></img></p>","null","","1551317812345","8","","","","","",""
"null","","html-keyboard-response","110","2185425","0.0-6.0-9.5","44","<p><img class= 'stimulus' src='images/baseline/Sky 1.jpg'></img></p>","null","","1551317812494","","","","","","",""
"null","","html-keyboard-response","111","2185575","0.0-6.0-10.5","44","<p><img class= 'stimulus' src='images/baseline/02982v.jpg'></img></p>","null","","1551317812645","","","","","","",""
"null","","html-keyboard-response","112","2185725","0.0-6.0-11.5","44","<p><img class= 'stimulus' src='images/baseline/building_at_national_conservation.jpg'></img></p>","null","","1551317812795","","","","","","",""
"null","","html-keyboard-response","113","2185875","0.0-6.0-12.5","44","<p><img class= 'stimulus' src='images/baseline/05280v.jpg'></img></p>","null","","1551317812945","12","","","","","",""
"null","","html-keyboard-response","114","2186024","0.0-6.0-13.5","44","<p><img class= 'stimulus' src='images/baseline/pexels-photo-1054289.jpeg'></img></p>","null","","1551317813095","","","","","","",""
"null","","html-keyboard-response","115","2186175","0.0-6.0-14.5","44","<p><img class= 'stimulus' src='images/baseline/building8.jpg'></img></p>","null","","1551317813245","14","","","","","",""
"null","","html-keyboard-response","116","2186325","0.0-6.0-15.5","44","<p><img class= 'stimulus' src='images/baseline/05161v.jpg'></img></p>","null","","1551317813394","","","","","","",""
"null","","html-keyboard-response","117","2186475","0.0-6.0-16.5","44","<p><img class= 'stimulus' src='images/baseline/05279v.jpg'></img></p>","null","","1551317813544","","","","","","",""
"null","","html-keyboard-response","118","2186642","0.0-6.0-17.5","44","<p><img class= 'stimulus' src='images/baseline/Aletschgletscher-Eggishorn.jpg'></img></p>","null","","1551317813694","","","","","","",""
"776.0999999591149","","html-button-response","119","2188422","0.0-6.0-18.5","44","<div class = ""response_question"">WAS THE IMAGE ROTATED...</div>","","3","","","6","2","bas","right","practice","true"
"934.899999992922","","html-button-response","120","2189358","0.0-6.0-0.6","44","","","0","","","","","","","",""
"null","","html-keyboard-response","121","2189492","0.0-6.0-1.6","44","<p><img class= 'stimulus' src='images/baseline/Happy pose 3.jpg'></img></p>","null","","1551317816561","","","","","","",""
"null","","html-keyboard-response","122","2189641","0.0-6.0-2.6","44","<p><img class= 'stimulus' src='images/baseline/agriculture-cereal-clouds-175389.jpg'></img></p>","null","","1551317816711","","","","","","",""
"null","","html-keyboard-response","123","2189791","0.0-6.0-3.6","44","<p><img class= 'stimulus' src='images/baseline/pexels-photo-280222.jpeg'></img></p>","null","","1551317816860","","","","","","",""
"null","","html-keyboard-response","124","2189941","0.0-6.0-4.6","44","<p><img class= 'stimulus' src='images/baseline/Sidewalk 4.jpg'></img></p>","null","","1551317817010","4","","","","","",""
"null","","html-keyboard-response","125","2190091","0.0-6.0-5.6","44","<p><img class= 'stimulus' src='images/baseline/Beach 8.jpg'></img></p>","null","","1551317817161","","","","","","",""
"null","","html-keyboard-response","126","2190241","0.0-6.0-6.6","44","<p><img class= 'stimulus' src='images/baseline/02971v.jpg'></img></p>","null","","1551317817311","6","","","","","",""
"null","","html-keyboard-response","127","2190392","0.0-6.0-7.6","44","<p><img class= 'stimulus' src='images/baseline/04086v.jpg'></img></p>","null","","1551317817461","","","","","","",""
"null","","html-keyboard-response","128","2190542","0.0-6.0-8.6","44","<p><img class= 'stimulus' src='images/baseline/Lake 3.jpg'></img></p>","null","","1551317817611","8","","","","","",""
"null","","html-keyboard-response","129","2190691","0.0-6.0-9.6","44","<p><img class= 'stimulus' src='images/baseline/04196v.jpg'></img></p>","null","","1551317817761","","","","","","",""
"null","","html-keyboard-response","130","2190841","0.0-6.0-10.6","44","<p><img class= 'stimulus' src='images/baseline/Path 1.jpg'></img></p>","null","","1551317817912","","","","","","",""
"null","","html-keyboard-response","131","2190991","0.0-6.0-11.6","44","<p><img class= 'stimulus' src='images/baseline/house11.jpg'></img></p>","null","","1551317818060","","","","","","",""
"null","","html-keyboard-response","132","2191142","0.0-6.0-12.6","44","<p><img class= 'stimulus' src='images/target/buildin2.png'></img></p>","null","","1551317818212","12","","","","","",""
"null","","html-keyboard-response","133","2191292","0.0-6.0-13.6","44","<p><img class= 'stimulus' src='images/baseline/landscape34.jpg'></img></p>","null","","1551317818361","","","","","","",""
"null","","html-keyboard-response","134","2191442","0.0-6.0-14.6","44","<p><img class= 'stimulus' src='images/baseline/landscape16.jpg'></img></p>","null","","1551317818511","14","","","","","",""
"null","","html-keyboard-response","135","2191591","0.0-6.0-15.6","44","<p><img class= 'stimulus' src='images/baseline/agriculture-countryside-crop-259280.jpg'></img></p>","null","","1551317818661","","","","","","",""
"null","","html-keyboard-response","136","2191742","0.0-6.0-16.6","44","<p><img class= 'stimulus' src='images/baseline/04098v.jpg'></img></p>","null","","1551317818811","","","","","","",""
"null","","html-keyboard-response","137","2191909","0.0-6.0-17.6","44","<p><img class= 'stimulus' src='images/baseline/Paysage_karabagh_02.jpg'></img></p>","null","","1551317818961","","","","","","",""
"646.6999999829568","","html-button-response","138","2193558","0.0-6.0-18.6","44","<div class = ""response_question"">WAS THE IMAGE ROTATED...</div>","","3","","","4","8","bas","right","practice","true"
"990.0999999954365","","html-button-response","139","2194550","0.0-6.0-0.7","44","","","0","","","","","","","",""
"null","","html-keyboard-response","140","2194675","0.0-6.0-1.7","44","<p><img class= 'stimulus' src='images/baseline/Dirt 2.jpg'></img></p>","null","","1551317821744","","","","","","",""
"null","","html-keyboard-response","141","2194825","0.0-6.0-2.7","44","<p><img class= 'stimulus' src='images/baseline/landscape2.jpg'></img></p>","null","","1551317821894","","","","","","",""
"null","","html-keyboard-response","142","2194975","0.0-6.0-3.7","44","<p><img class= 'stimulus' src='images/baseline/landscape14.jpg'></img></p>","null","","1551317822044","","","","","","",""
"null","","html-keyboard-response","143","2195124","0.0-6.0-4.7","44","<p><img class= 'stimulus' src='images/baseline/snowy tree.jpg'></img></p>","null","","1551317822195","4","","","","","",""
"null","","html-keyboard-response","144","2195275","0.0-6.0-5.7","44","<p><img class= 'stimulus' src='images/baseline/03098v.jpg'></img></p>","null","","1551317822344","","","","","","",""
"null","","html-keyboard-response","145","2195426","0.0-6.0-6.7","44","<p><img class= 'stimulus' src='images/target/church-2306128_640.jpg'></img></p>","null","","1551317822496","6","","","","","",""
"null","","html-keyboard-response","146","2195575","0.0-6.0-7.7","44","<p><img class= 'stimulus' src='images/baseline/03045v.jpg'></img></p>","null","","1551317822645","","","","","","",""
"null","","html-keyboard-response","147","2195725","0.0-6.0-8.7","44","<p><img class= 'stimulus' src='images/baseline/04229v.jpg'></img></p>","null","","1551317822795","8","","","","","",""
"null","","html-keyboard-response","148","2195875","0.0-6.0-9.7","44","<p><img class= 'stimulus' src='images/baseline/pexels-photo-59321.jpeg'></img></p>","null","","1551317822945","","","","","","",""
"null","","html-keyboard-response","149","2196025","0.0-6.0-10.7","44","<p><img class= 'stimulus' src='images/baseline/02947v.jpg'></img></p>","null","","1551317823094","","","","","","",""
"null","","html-keyboard-response","150","2196175","0.0-6.0-11.7","44","<p><img class= 'stimulus' src='images/baseline/03212v.jpg'></img></p>","null","","1551317823244","","","","","","",""
"null","","html-keyboard-response","151","2196325","0.0-6.0-12.7","44","<p><img class= 'stimulus' src='images/baseline/Sunset 5.jpg'></img></p>","null","","1551317823395","12","","","","","",""
"null","","html-keyboard-response","152","2196476","0.0-6.0-13.7","44","<p><img class= 'stimulus' src='images/baseline/03201v.jpg'></img></p>","null","","1551317823545","","","","","","",""
"null","","html-keyboard-response","153","2196625","0.0-6.0-14.7","44","<p><img class= 'stimulus' src='images/baseline/03066v.jpg'></img></p>","null","","1551317823695","14","","","","","",""
"null","","html-keyboard-response","154","2196774","0.0-6.0-15.7","44","<p><img class= 'stimulus' src='images/baseline/landscape8.jpg'></img></p>","null","","1551317823844","","","","","","",""
"null","","html-keyboard-response","155","2196925","0.0-6.0-16.7","44","<p><img class= 'stimulus' src='images/baseline/Nature 1.jpg'></img></p>","null","","1551317823994","","","","","","",""
"null","","html-keyboard-response","156","2197092","0.0-6.0-17.7","44","<p><img class= 'stimulus' src='images/baseline/pexels-photo-221125.jpeg'></img></p>","null","","1551317824146","","","","","","",""
"638.9000000199303","","html-button-response","157","2198734","0.0-6.0-18.7","44","<div class = ""response_question"">WAS THE IMAGE ROTATED...</div>","","3","","","4","2","bas","right","practice","true"
"1469.2999999970198","","html-button-response","158","2200205","0.0-6.0-0.8","44","","","0","","","","","","","",""
"null","","html-keyboard-response","159","2200292","0.0-6.0-1.8","44","<p><img class= 'stimulus' src='images/baseline/03180v.jpg'></img></p>","null","","1551317827412","","","","","","",""
"null","","html-keyboard-response","160","2200392","0.0-6.0-2.8","44","<p><img class= 'stimulus' src='images/baseline/05252v.jpg'></img></p>","null","","1551317827511","","","","","","",""
"null","","html-keyboard-response","161","2200492","0.0-6.0-3.8","44","<p><img class= 'stimulus' src='images/baseline/pexels-photo-459203.jpeg'></img></p>","null","","1551317827611","","","","","","",""
"null","","html-keyboard-response","162","2200593","0.0-6.0-4.8","44","<p><img class= 'stimulus' src='images/baseline/house3.jpg'></img></p>","null","","1551317827711","4","","","","","",""
"null","","html-keyboard-response","163","2200693","0.0-6.0-5.8","44","<p><img class= 'stimulus' src='images/baseline/landscape35.jpg'></img></p>","null","","1551317827811","","","","","","",""
"null","","html-keyboard-response","164","2200791","0.0-6.0-6.8","44","<p><img class= 'stimulus' src='images/target/building1.jpg'></img></p>","null","","1551317827912","6","","","","","",""
"null","","html-keyboard-response","165","2200892","0.0-6.0-7.8","44","<p><img class= 'stimulus' src='images/baseline/dirt-road-or-trail-through-park.jpg'></img></p>","null","","1551317828011","","","","","","",""
"null","","html-keyboard-response","166","2200992","0.0-6.0-8.8","44","<p><img class= 'stimulus' src='images/baseline/Paysage_enneige_02.jpg'></img></p>","null","","1551317828111","8","","","","","",""
"null","","html-keyboard-response","167","2201093","0.0-6.0-9.8","44","<p><img class= 'stimulus' src='images/baseline/02977v.jpg'></img></p>","null","","1551317828213","","","","","","",""
"null","","html-keyboard-response","168","2201193","0.0-6.0-10.8","44","<p><img class= 'stimulus' src='images/baseline/pexels-photo-894312.jpeg'></img></p>","null","","1551317828311","","","","","","",""
"null","","html-keyboard-response","169","2201292","0.0-6.0-11.8","44","<p><img class= 'stimulus' src='images/baseline/trees 23.jpg'></img></p>","null","","1551317828411","","","","","","",""
"null","","html-keyboard-response","170","2201392","0.0-6.0-12.8","44","<p><img class= 'stimulus' src='images/baseline/03162v.jpg'></img></p>","null","","1551317828511","12","","","","","",""
"null","","html-keyboard-response","171","2201492","0.0-6.0-13.8","44","<p><img class= 'stimulus' src='images/baseline/03148v.jpg'></img></p>","null","","1551317828610","","","","","","",""
"null","","html-keyboard-response","172","2201592","0.0-6.0-14.8","44","<p><img class= 'stimulus' src='images/baseline/04179v.jpg'></img></p>","null","","1551317828710","14","","","","","",""
"null","","html-keyboard-response","173","2201692","0.0-6.0-15.8","44","<p><img class= 'stimulus' src='images/baseline/04040v.jpg'></img></p>","null","","1551317828811","","","","","","",""
"null","","html-keyboard-response","174","2201793","0.0-6.0-16.8","44","<p><img class= 'stimulus' src='images/baseline/Bridge 1.jpg'></img></p>","null","","1551317828912","","","","","","",""
"null","","html-keyboard-response","175","2201908","0.0-6.0-17.8","44","<p><img class= 'stimulus' src='images/baseline/building5.jpg'></img></p>","null","","1551317829011","","","","","","",""
"790.500000002794","","html-button-response","176","2203702","0.0-6.0-18.8","44","<div class = ""response_question"">WAS THE IMAGE ROTATED...</div>","","3","","","4","2","bas","right","practice","true"
"2534.1999999945983","","html-button-response","177","2206238","0.0-6.0-0.9","44","","","0","","","","","","","",""
"null","","html-keyboard-response","178","2206325","0.0-6.0-1.9","44","<p><img class= 'stimulus' src='images/baseline/autumn-landscape-with-lake-fall-trees-mountains.jpg'></img></p>","null","","1551317833444","","","","","","",""
"null","","html-keyboard-response","179","2206425","0.0-6.0-2.9","44","<p><img class= 'stimulus' src='images/baseline/05292v.jpg'></img></p>","null","","1551317833544","","","","","","",""
"null","","html-keyboard-response","180","2206525","0.0-6.0-3.9","44","<p><img class= 'stimulus' src='images/baseline/landscape12.jpg'></img></p>","null","","1551317833645","","","","","","",""
"null","","html-keyboard-response","181","2206625","0.0-6.0-4.9","44","<p><img class= 'stimulus' src='images/baseline/landscape36.jpg'></img></p>","null","","1551317833745","4","","","","","",""
"null","","html-keyboard-response","182","2206725","0.0-6.0-5.9","44","<p><img class= 'stimulus' src='images/baseline/house10.jpg'></img></p>","null","","1551317833845","","","","","","",""
"null","","html-keyboard-response","183","2206825","0.0-6.0-6.9","44","<p><img class= 'stimulus' src='images/baseline/Street 4.jpg'></img></p>","null","","1551317833946","6","","","","","",""
"null","","html-keyboard-response","184","2206926","0.0-6.0-7.9","44","<p><img class= 'stimulus' src='images/baseline/04060v.jpg'></img></p>","null","","1551317834044","","","","","","",""
"null","","html-keyboard-response","185","2207024","0.0-6.0-8.9","44","<p><img class= 'stimulus' src='images/baseline/building2.jpg'></img></p>","null","","1551317834144","8","","","","","",""
"null","","html-keyboard-response","186","2207125","0.0-6.0-9.9","44","<p><img class= 'stimulus' src='images/baseline/Lake 4.jpg'></img></p>","null","","1551317834245","","","","","","",""
"null","","html-keyboard-response","187","2207225","0.0-6.0-10.9","44","<p><img class= 'stimulus' src='images/baseline/sunset-over-the-lake.jpg'></img></p>","null","","1551317834345","","","","","","",""
"null","","html-keyboard-response","188","2207326","0.0-6.0-11.9","44","<p><img class= 'stimulus' src='images/baseline/Grass 6.jpg'></img></p>","null","","1551317834445","","","","","","",""
"null","","html-keyboard-response","189","2207425","0.0-6.0-12.9","44","<p><img class= 'stimulus' src='images/baseline/99_-_Machu_Picchu_-_Juin_2009.edit3.jpg'></img></p>","null","","1551317834545","12","","","","","",""
"null","","html-keyboard-response","190","2207525","0.0-6.0-13.9","44","<p><img class= 'stimulus' src='images/baseline/house8.jpg'></img></p>","null","","1551317834644","","","","","","",""
"null","","html-keyboard-response","191","2207625","0.0-6.0-14.9","44","<p><img class= 'stimulus left-rotate' src='images/target/tree_2.jpg'></img></p>","null","","1551317834745","14","","","","","",""
"null","","html-keyboard-response","192","2207725","0.0-6.0-15.9","44","<p><img class= 'stimulus' src='images/baseline/05198v.jpg'></img></p>","null","","1551317834844","","","","","","",""
"null","","html-keyboard-response","193","2207825","0.0-6.0-16.9","44","<p><img class= 'stimulus' src='images/baseline/04284v.jpg'></img></p>","null","","1551317834944","","","","","","",""
"null","","html-keyboard-response","194","2207943","0.0-6.0-17.9","44","<p><img class= 'stimulus' src='images/baseline/Beach 3.jpg'></img></p>","null","","1551317835044","","","","","","",""
"1018.8999999663793","","html-button-response","195","2209966","0.0-6.0-18.9","44","<div class = ""response_question"">WAS THE IMAGE ROTATED...</div>","","0","","","6","8","bas","left","practice","true"
"2358.4000000264496","","html-button-response","196","2212326","0.0-6.0-0.10","44","","","0","","","","","","","",""
"null","","html-keyboard-response","197","2212408","0.0-6.0-1.10","44","<p><img class= 'stimulus' src='images/baseline/Nature 2.jpg'></img></p>","null","","1551317839528","","","","","","",""
"null","","html-keyboard-response","198","2212508","0.0-6.0-2.10","44","<p><img class= 'stimulus' src='images/baseline/road 1(1).jpg'></img></p>","null","","1551317839628","","","","","","",""
"null","","html-keyboard-response","199","2212609","0.0-6.0-3.10","44","<p><img class= 'stimulus' src='images/baseline/Cold 7.jpg'></img></p>","null","","1551317839729","","","","","","",""
"null","","html-keyboard-response","200","2212708","0.0-6.0-4.10","44","<p><img class= 'stimulus' src='images/baseline/building3.jpg'></img></p>","null","","1551317839828","4","","","","","",""
"null","","html-keyboard-response","201","2212808","0.0-6.0-5.10","44","<p><img class= 'stimulus' src='images/baseline/pexels-photo-568236.jpeg'></img></p>","null","","1551317839927","","","","","","",""
"null","","html-keyboard-response","202","2212909","0.0-6.0-6.10","44","<p><img class= 'stimulus' src='images/baseline/pexels-photo-750108.jpeg'></img></p>","null","","1551317840028","6","","","","","",""
"null","","html-keyboard-response","203","2213009","0.0-6.0-7.10","44","<p><img class= 'stimulus' src='images/baseline/03063v.jpg'></img></p>","null","","1551317840127","","","","","","",""
"null","","html-keyboard-response","204","2213109","0.0-6.0-8.10","44","<p><img class= 'stimulus left-rotate' src='images/target/lone-tree.png'></img></p>","null","","1551317840228","8","","","","","",""
"null","","html-keyboard-response","205","2213208","0.0-6.0-9.10","44","<p><img class= 'stimulus' src='images/baseline/empire-state-building.jpg'></img></p>","null","","1551317840329","","","","","","",""
"null","","html-keyboard-response","206","2213308","0.0-6.0-10.10","44","<p><img class= 'stimulus' src='images/baseline/Lake 13.jpg'></img></p>","null","","1551317840429","","","","","","",""
"null","","html-keyboard-response","207","2213410","0.0-6.0-11.10","44","<p><img class= 'stimulus' src='images/baseline/Sunset 6.jpg'></img></p>","null","","1551317840528","","","","","","",""
"null","","html-keyboard-response","208","2213509","0.0-6.0-12.10","44","<p><img class= 'stimulus' src='images/baseline/landscape38.jpg'></img></p>","null","","1551317840628","12","","","","","",""
"null","","html-keyboard-response","209","2213609","0.0-6.0-13.10","44","<p><img class= 'stimulus' src='images/baseline/seoul-410266_1920.jpg'></img></p>","null","","1551317840728","","","","","","",""
"null","","html-keyboard-response","210","2213709","0.0-6.0-14.10","44","<p><img class= 'stimulus' src='images/baseline/pexels-photo-259280.jpeg'></img></p>","null","","1551317840829","14","","","","","",""
"null","","html-keyboard-response","211","2213808","0.0-6.0-15.10","44","<p><img class= 'stimulus' src='images/baseline/Sunset 4.jpg'></img></p>","null","","1551317840929","","","","","","",""
"null","","html-keyboard-response","212","2213908","0.0-6.0-16.10","44","<p><img class= 'stimulus' src='images/baseline/farmhouse3.jpg'></img></p>","null","","1551317841027","","","","","","",""
"null","","html-keyboard-response","213","2214025","0.0-6.0-17.10","44","<p><img class= 'stimulus' src='images/baseline/02988v.jpg'></img></p>","null","","1551317841128","","","","","","",""
"3203.1999999890104","","html-button-response","214","2218246","0.0-6.0-18.10","44","<div class = ""response_question"">WAS THE IMAGE ROTATED...</div>","","1","","","6","2","bas","left","practice","true"
"4174.29999995511","","html-button-response","215","2222423","0.0-6.0-0.11","44","","","0","","","","","","","",""
"null","","html-keyboard-response","216","2222510","0.0-6.0-1.11","44","<p><img class= 'stimulus' src='images/baseline/04014v.jpg'></img></p>","null","","1551317849629","","","","","","",""
"null","","html-keyboard-response","217","2222610","0.0-6.0-2.11","44","<p><img class= 'stimulus' src='images/baseline/horse_statue.jpg'></img></p>","null","","1551317849729","","","","","","",""
"null","","html-keyboard-response","218","2222709","0.0-6.0-3.11","44","<p><img class= 'stimulus' src='images/baseline/Lake 14.jpg'></img></p>","null","","1551317849829","","","","","","",""
"null","","html-keyboard-response","219","2222810","0.0-6.0-4.11","44","<p><img class= 'stimulus' src='images/baseline/landscape23.jpg'></img></p>","null","","1551317849929","4","","","","","",""
"null","","html-keyboard-response","220","2222910","0.0-6.0-5.11","44","<p><img class= 'stimulus' src='images/baseline/pexels-photo-534164.jpeg'></img></p>","null","","1551317850030","","","","","","",""
"null","","html-keyboard-response","221","2223010","0.0-6.0-6.11","44","<p><img class= 'stimulus' src='images/baseline/landscape6.jpg'></img></p>","null","","1551317850130","6","","","","","",""
"null","","html-keyboard-response","222","2223110","0.0-6.0-7.11","44","<p><img class= 'stimulus' src='images/baseline/Linden,_paysage.jpg'></img></p>","null","","1551317850228","","","","","","",""
"null","","html-keyboard-response","223","2223211","0.0-6.0-8.11","44","<p><img class= 'stimulus' src='images/baseline/04062v.jpg'></img></p>","null","","1551317850329","8","","","","","",""
"null","","html-keyboard-response","224","2223311","0.0-6.0-9.11","44","<p><img class= 'stimulus' src='images/baseline/pexels-photo-1261728.jpeg'></img></p>","null","","1551317850429","","","","","","",""
"null","","html-keyboard-response","225","2223411","0.0-6.0-10.11","44","<p><img class= 'stimulus' src='images/baseline/house7.jpg'></img></p>","null","","1551317850529","","","","","","",""
"null","","html-keyboard-response","226","2223510","0.0-6.0-11.11","44","<p><img class= 'stimulus' src='images/baseline/bird-flying-at-sunset.jpg'></img></p>","null","","1551317850630","","","","","","",""
"null","","html-keyboard-response","227","2223610","0.0-6.0-12.11","44","<p><img class= 'stimulus' src='images/baseline/landscape22.jpg'></img></p>","null","","1551317850728","12","","","","","",""
"null","","html-keyboard-response","228","2223709","0.0-6.0-13.11","44","<p><img class= 'stimulus' src='images/baseline/architecture-1314416_1920.jpg'></img></p>","null","","1551317850830","","","","","","",""
"null","","html-keyboard-response","229","2223810","0.0-6.0-14.11","44","<p><img class= 'stimulus' src='images/target/lookout_tower.jpg'></img></p>","null","","1551317850929","14","","","","","",""
"null","","html-keyboard-response","230","2223910","0.0-6.0-15.11","44","<p><img class= 'stimulus' src='images/baseline/Lake 16.jpg'></img></p>","null","","1551317851029","","","","","","",""
"null","","html-keyboard-response","231","2224010","0.0-6.0-16.11","44","<p><img class= 'stimulus' src='images/baseline/05203v.jpg'></img></p>","null","","1551317851129","","","","","","",""
"null","","html-keyboard-response","232","2224127","0.0-6.0-17.11","44","<p><img class= 'stimulus' src='images/baseline/03204v.jpg'></img></p>","null","","1551317851229","","","","","","",""
"1340.8999999519438","","html-button-response","233","2226470","0.0-6.0-18.11","44","<div class = ""response_question"">WAS THE IMAGE ROTATED...</div>","","4","","","6","8","bas","right","practice","true"
"2174.5999999693595","","html-button-response","234","2228646","0.0-6.0-0.12","44","","","0","","","","","","","",""
"null","","html-keyboard-response","235","2228743","0.0-6.0-1.12","44","<p><img class= 'stimulus' src='images/baseline/Street 2.jpg'></img></p>","null","","1551317855862","","","","","","",""
"null","","html-keyboard-response","236","2228843","0.0-6.0-2.12","44","<p><img class= 'stimulus' src='images/baseline/04031v.jpg'></img></p>","null","","1551317855962","","","","","","",""
"null","","html-keyboard-response","237","2228943","0.0-6.0-3.12","44","<p><img class= 'stimulus' src='images/baseline/building4.jpg'></img></p>","null","","1551317856063","","","","","","",""
"null","","html-keyboard-response","238","2229043","0.0-6.0-4.12","44","<p><img class= 'stimulus' src='images/baseline/Bahia_Onelli_Parque_Nacional_Los_Glaciares_Patagonia_Argentina_Luca_Galuzzi_2005.jpg'></img></p>","null","","1551317856162","4","","","","","",""
"null","","html-keyboard-response","239","2229143","0.0-6.0-5.12","44","<p><img class= 'stimulus' src='images/baseline/Street 1.jpg'></img></p>","null","","1551317856263","","","","","","",""
"null","","html-keyboard-response","240","2229243","0.0-6.0-6.12","44","<p><img class= 'stimulus left-rotate' src='images/target/tree1.jpg'></img></p>","null","","1551317856362","6","","","","","",""
"null","","html-keyboard-response","241","2229342","0.0-6.0-7.12","44","<p><img class= 'stimulus' src='images/baseline/landscape4.jpg'></img></p>","null","","1551317856462","","","","","","",""
"null","","html-keyboard-response","242","2229443","0.0-6.0-8.12","44","<p><img class= 'stimulus' src='images/baseline/landscape29.jpg'></img></p>","null","","1551317856562","8","","","","","",""
"null","","html-keyboard-response","243","2229543","0.0-6.0-9.12","44","<p><img class= 'stimulus' src='images/baseline/red-rocks-park.jpg'></img></p>","null","","1551317856662","","","","","","",""
"null","","html-keyboard-response","244","2229642","0.0-6.0-10.12","44","<p><img class= 'stimulus' src='images/baseline/Sunset 3.jpg'></img></p>","null","","1551317856762","","","","","","",""
"null","","html-keyboard-response","245","2229743","0.0-6.0-11.12","44","<p><img class= 'stimulus' src='images/baseline/valley 2.jpg'></img></p>","null","","1551317856862","","","","","","",""
"null","","html-keyboard-response","246","2229843","0.0-6.0-12.12","44","<p><img class= 'stimulus' src='images/baseline/Niinsaare_jarv.jpg'></img></p>","null","","1551317856962","12","","","","","",""
"null","","html-keyboard-response","247","2229943","0.0-6.0-13.12","44","<p><img class= 'stimulus' src='images/baseline/Skijump 1.jpg'></img></p>","null","","1551317857062","","","","","","",""
"null","","html-keyboard-response","248","2230043","0.0-6.0-14.12","44","<p><img class= 'stimulus' src='images/baseline/05145v.jpg'></img></p>","null","","1551317857163","14","","","","","",""
"null","","html-keyboard-response","249","2230143","0.0-6.0-15.12","44","<p><img class= 'stimulus' src='images/baseline/Skyscraper 1.jpg'></img></p>","null","","1551317857262","","","","","","",""
"null","","html-keyboard-response","250","2230243","0.0-6.0-16.12","44","<p><img class= 'stimulus' src='images/baseline/landscape33.jpg'></img></p>","null","","1551317857363","","","","","","",""
"null","","html-keyboard-response","251","2230359","0.0-6.0-17.12","44","<p><img class= 'stimulus' src='images/baseline/Lake 15.jpg'></img></p>","null","","1551317857463","","","","","","",""
"917.0000000158325","","html-button-response","252","2232279","0.0-6.0-18.12","44","<div class = ""response_question"">WAS THE IMAGE ROTATED...</div>","","0","","","4","2","bas","left","practice","true"
"1549.799999978859","","html-button-response","253","2233831","0.0-6.0-0.13","44","","","0","","","","","","","",""
"null","","html-keyboard-response","254","2233911","0.0-6.0-1.13","44","<p><img class= 'stimulus' src='images/baseline/meadow-with-mountain-in-background.jpg'></img></p>","null","","1551317861029","","","","","","",""
"null","","html-keyboard-response","255","2234010","0.0-6.0-2.13","44","<p><img class= 'stimulus' src='images/baseline/city-silhouette-at-sunset-871291580819Esw.jpg'></img></p>","null","","1551317861129","","","","","","",""
"null","","html-keyboard-response","256","2234109","0.0-6.0-3.13","44","<p><img class= 'stimulus' src='images/baseline/sun-through-winter-tree-branches1.jpg'></img></p>","null","","1551317861229","","","","","","",""
"null","","html-keyboard-response","257","2234210","0.0-6.0-4.13","44","<p><img class= 'stimulus' src='images/baseline/field 3.jpg'></img></p>","null","","1551317861329","4","","","","","",""
"null","","html-keyboard-response","258","2234309","0.0-6.0-5.13","44","<p><img class= 'stimulus' src='images/baseline/03112v.jpg'></img></p>","null","","1551317861429","","","","","","",""
"null","","html-keyboard-response","259","2234409","0.0-6.0-6.13","44","<p><img class= 'stimulus' src='images/baseline/church-silhouette-8712964986014Kb.jpg'></img></p>","null","","1551317861530","6","","","","","",""
"null","","html-keyboard-response","260","2234510","0.0-6.0-7.13","44","<p><img class= 'stimulus' src='images/baseline/house2.jpg'></img></p>","null","","1551317861628","","","","","","",""
"null","","html-keyboard-response","261","2234609","0.0-6.0-8.13","44","<p><img class= 'stimulus' src='images/target/torrotito-375925_640.jpg'></img></p>","null","","1551317861729","8","","","","","",""
"null","","html-keyboard-response","262","2234710","0.0-6.0-9.13","44","<p><img class= 'stimulus' src='images/baseline/05167v.jpg'></img></p>","null","","1551317861830","","","","","","",""
"null","","html-keyboard-response","263","2234809","0.0-6.0-10.13","44","<p><img class= 'stimulus' src='images/baseline/04158v.jpg'></img></p>","null","","1551317861929","","","","","","",""
"null","","html-keyboard-response","264","2234910","0.0-6.0-11.13","44","<p><img class= 'stimulus' src='images/baseline/Road 1.jpg'></img></p>","null","","1551317862029","","","","","","",""
"null","","html-keyboard-response","265","2235010","0.0-6.0-12.13","44","<p><img class= 'stimulus' src='images/baseline/05247v.jpg'></img></p>","null","","1551317862129","12","","","","","",""
"null","","html-keyboard-response","266","2235110","0.0-6.0-13.13","44","<p><img class= 'stimulus' src='images/baseline/05158v.jpg'></img></p>","null","","1551317862230","","","","","","",""
"null","","html-keyboard-response","267","2235209","0.0-6.0-14.13","44","<p><img class= 'stimulus' src='images/baseline/geese-flying-over-lake-at-dusk.jpg'></img></p>","null","","1551317862329","14","","","","","",""
"null","","html-keyboard-response","268","2235310","0.0-6.0-15.13","44","<p><img class= 'stimulus' src='images/baseline/landscape1.jpg'></img></p>","null","","1551317862429","","","","","","",""
"null","","html-keyboard-response","269","2235410","0.0-6.0-16.13","44","<p><img class= 'stimulus' src='images/baseline/architecture-956332_1280.jpg'></img></p>","null","","1551317862531","","","","","","",""
"null","","html-keyboard-response","270","2235526","0.0-6.0-17.13","44","<p><img class= 'stimulus' src='images/baseline/04300v.jpg'></img></p>","null","","1551317862629","","","","","","",""
"717.4000000231899","","html-button-response","271","2237247","0.0-6.0-18.13","44","<div class = ""response_question"">WAS THE IMAGE ROTATED...</div>","","3","","","6","2","bas","right","practice","true"
"1542.3000000300817","","html-button-response","272","2238790","0.0-6.0-0.14","44","","","0","","","","","","","",""
"null","","html-keyboard-response","273","2238876","0.0-6.0-1.14","44","<p><img class= 'stimulus' src='images/baseline/04063v.jpg'></img></p>","null","","1551317865995","","","","","","",""
"null","","html-keyboard-response","274","2238976","0.0-6.0-2.14","44","<p><img class= 'stimulus' src='images/baseline/farmhouse6.jpg'></img></p>","null","","1551317866097","","","","","","",""
"null","","html-keyboard-response","275","2239076","0.0-6.0-3.14","44","<p><img class= 'stimulus' src='images/baseline/hills 1.jpg'></img></p>","null","","1551317866196","","","","","","",""
"null","","html-keyboard-response","276","2239176","0.0-6.0-4.14","44","<p><img class= 'stimulus' src='images/baseline/landscape37.jpg'></img></p>","null","","1551317866296","4","","","","","",""
"null","","html-keyboard-response","277","2239276","0.0-6.0-5.14","44","<p><img class= 'stimulus' src='images/baseline/field 1.jpg'></img></p>","null","","1551317866395","","","","","","",""
"null","","html-keyboard-response","278","2239376","0.0-6.0-6.14","44","<p><img class= 'stimulus' src='images/baseline/landscape13.jpg'></img></p>","null","","1551317866495","6","","","","","",""
"null","","html-keyboard-response","279","2239476","0.0-6.0-7.14","44","<p><img class= 'stimulus' src='images/baseline/4k-wallpaper-agriculture-clouds-842711.jpg'></img></p>","null","","1551317866595","","","","","","",""
"null","","html-keyboard-response","280","2239576","0.0-6.0-8.14","44","<p><img class= 'stimulus' src='images/baseline/kokkari-1523011968Xfr.jpg'></img></p>","null","","1551317866695","8","","","","","",""
"null","","html-keyboard-response","281","2239676","0.0-6.0-9.14","44","<p><img class= 'stimulus' src='images/baseline/pexels-photo-1840893.jpeg'></img></p>","null","","1551317866796","","","","","","",""
"null","","html-keyboard-response","282","2239776","0.0-6.0-10.14","44","<p><img class= 'stimulus' src='images/baseline/04193v.jpg'></img></p>","null","","1551317866897","","","","","","",""
"null","","html-keyboard-response","283","2239877","0.0-6.0-11.14","44","<p><img class= 'stimulus' src='images/baseline/farmhouse11.jpg'></img></p>","null","","1551317866995","","","","","","",""
"null","","html-keyboard-response","284","2239975","0.0-6.0-12.14","44","<p><img class= 'stimulus' src='images/target/cactus1.jpg'></img></p>","null","","1551317867096","12","","","","","",""
"null","","html-keyboard-response","285","2240077","0.0-6.0-13.14","44","<p><img class= 'stimulus' src='images/baseline/04162v.jpg'></img></p>","null","","1551317867196","","","","","","",""
"null","","html-keyboard-response","286","2240177","0.0-6.0-14.14","44","<p><img class= 'stimulus' src='images/baseline/landscape17.jpg'></img></p>","null","","1551317867297","14","","","","","",""
"null","","html-keyboard-response","287","2240276","0.0-6.0-15.14","44","<p><img class= 'stimulus' src='images/baseline/pexels-photo-808465.jpeg'></img></p>","null","","1551317867396","","","","","","",""
"null","","html-keyboard-response","288","2240376","0.0-6.0-16.14","44","<p><img class= 'stimulus' src='images/baseline/agriculture-bright-clouds-440731.jpg'></img></p>","null","","1551317867495","","","","","","",""
"null","","html-keyboard-response","289","2240493","0.0-6.0-17.14","44","<p><img class= 'stimulus' src='images/baseline/landscape39.jpg'></img></p>","null","","1551317867595","","","","","","",""
"850.3999999957159","","html-button-response","290","2242350","0.0-6.0-18.14","44","<div class = ""response_question"">WAS THE IMAGE ROTATED...</div>","","3","","","4","8","bas","right","practice","true"
"1710.4999999864958","","html-button-response","291","2244062","0.0-6.0-0.15","44","","","0","","","","","","","",""
"null","","html-keyboard-response","292","2244142","0.0-6.0-1.15","44","<p><img class= 'stimulus' src='images/baseline/landscape31.jpg'></img></p>","null","","1551317871263","","","","","","",""
"null","","html-keyboard-response","293","2244243","0.0-6.0-2.15","44","<p><img class= 'stimulus' src='images/baseline/pexels-photo-351264.jpeg'></img></p>","null","","1551317871362","","","","","","",""
"null","","html-keyboard-response","294","2244343","0.0-6.0-3.15","44","<p><img class= 'stimulus' src='images/baseline/03056v.jpg'></img></p>","null","","1551317871462","","","","","","",""
"null","","html-keyboard-response","295","2244443","0.0-6.0-4.15","44","<p><img class= 'stimulus' src='images/baseline/lookout_tower.jpg'></img></p>","null","","1551317871563","4","","","","","",""
"null","","html-keyboard-response","296","2244543","0.0-6.0-5.15","44","<p><img class= 'stimulus' src='images/baseline/hills 3.jpg'></img></p>","null","","1551317871662","","","","","","",""
"null","","html-keyboard-response","297","2244643","0.0-6.0-6.15","44","<p><img class= 'stimulus' src='images/baseline/Lake 8.jpg'></img></p>","null","","1551317871762","6","","","","","",""
"null","","html-keyboard-response","298","2244744","0.0-6.0-7.15","44","<p><img class= 'stimulus' src='images/baseline/02960v.jpg'></img></p>","null","","1551317871862","","","","","","",""
"null","","html-keyboard-response","299","2244843","0.0-6.0-8.15","44","<p><img class= 'stimulus' src='images/baseline/03220v.jpg'></img></p>","null","","1551317871964","8","","","","","",""
"null","","html-keyboard-response","300","2244943","0.0-6.0-9.15","44","<p><img class= 'stimulus' src='images/baseline/foreclosed_home.jpg'></img></p>","null","","1551317872063","","","","","","",""
"null","","html-keyboard-response","301","2245043","0.0-6.0-10.15","44","<p><img class= 'stimulus' src='images/baseline/field 4.jpg'></img></p>","null","","1551317872163","","","","","","",""
"null","","html-keyboard-response","302","2245144","0.0-6.0-11.15","44","<p><img class= 'stimulus' src='images/baseline/04222v.jpg'></img></p>","null","","1551317872262","","","","","","",""
"null","","html-keyboard-response","303","2245243","0.0-6.0-12.15","44","<p><img class= 'stimulus left-rotate' src='images/target/tree-3563269_640.jpg'></img></p>","null","","1551317872362","12","","","","","",""
"null","","html-keyboard-response","304","2245343","0.0-6.0-13.15","44","<p><img class= 'stimulus' src='images/baseline/05255v.jpg'></img></p>","null","","1551317872463","","","","","","",""
"null","","html-keyboard-response","305","2245443","0.0-6.0-14.15","44","<p><img class= 'stimulus' src='images/baseline/farmhouse9.jpg'></img></p>","null","","1551317872562","14","","","","","",""
"null","","html-keyboard-response","306","2245543","0.0-6.0-15.15","44","<p><img class= 'stimulus' src='images/baseline/Road 1.jpg'></img></p>","null","","1551317872663","","","","","","",""
"null","","html-keyboard-response","307","2245643","0.0-6.0-16.15","44","<p><img class= 'stimulus' src='images/baseline/05203v.jpg'></img></p>","null","","1551317872762","","","","","","",""
"null","","html-keyboard-response","308","2245759","0.0-6.0-17.15","44","<p><img class= 'stimulus' src='images/baseline/landscape35.jpg'></img></p>","null","","1551317872862","","","","","","",""
"1164.9999999790452","","html-button-response","309","2247927","0.0-6.0-18.15","44","<div class = ""response_question"">WAS THE IMAGE ROTATED...</div>","","1","","","4","8","bas","left","practice","true"
"68774.80000001378","","html-button-response","310","2316711","0.0-7.0","44","<p>You have now completed the practice phase. We will now begin the real trials.         This is a reminder that you will be searching for a rotated image among the series of upright images.</p>         <p>Remember, please do not blink or move your eyes while the images are on the screen.</p>         <p>At the end of the experiment, the experimenter will be able to show you how accurate you were.</p>","","0","","","","","","","",""
"5486.6999999503605","","html-button-response","311","2322199","0.0-8.0-0.0-0.0","44","","","0","","","","","","","",""
"null","","html-keyboard-response","312","2322286","0.0-8.0-0.0-1.0","44","<p><img class= 'stimulus' src='images/baseline/pexels-photo-1840893.jpeg'></img></p>","null","","1551317949406","","","","","","",""
"null","","html-keyboard-response","313","2322386","0.0-8.0-0.0-2.0","44","<p><img class= 'stimulus' src='images/baseline/05179v.jpg'></img></p>","null","","1551317949506","","","","","","",""
"null","","html-keyboard-response","314","2322485","0.0-8.0-0.0-3.0","44","<p><img class= 'stimulus' src='images/baseline/Street 1.jpg'></img></p>","null","","1551317949606","","","","","","",""
"null","","html-keyboard-response","315","2322585","0.0-8.0-0.0-4.0","44","<p><img class= 'stimulus' src='images/baseline/03063v.jpg'></img></p>","null","","1551317949705","4","","","","","",""
"null","","html-keyboard-response","316","2322685","0.0-8.0-0.0-5.0","44","<p><img class= 'stimulus' src='images/baseline/building4.jpg'></img></p>","null","","1551317949806","","","","","","",""
"null","","html-keyboard-response","317","2322786","0.0-8.0-0.0-6.0","44","<p><img class= 'stimulus' src='images/baseline/Sunset 3.jpg'></img></p>","null","","1551317949906","6","","","","","",""
"null","","html-keyboard-response","318","2322886","0.0-8.0-0.0-7.0","44","<p><img class= 'stimulus' src='images/baseline/landscape34.jpg'></img></p>","null","","1551317950007","","","","","","",""
"null","","html-keyboard-response","319","2322987","0.0-8.0-0.0-8.0","44","<p><img class= 'stimulus' src='images/baseline/landscape31.jpg'></img></p>","null","","1551317950106","8","","","","","",""
"null","","html-keyboard-response","320","2323087","0.0-8.0-0.0-9.0","44","<p><img class= 'stimulus' src='images/baseline/river 1.jpg'></img></p>","null","","1551317950206","","","","","","",""
"null","","html-keyboard-response","321","2323186","0.0-8.0-0.0-10.0","44","<p><img class= 'stimulus' src='images/baseline/farmhouse2.jpg'></img></p>","null","","1551317950306","","","","","","",""
"null","","html-keyboard-response","322","2323287","0.0-8.0-0.0-11.0","44","<p><img class= 'stimulus' src='images/baseline/hills 3.jpg'></img></p>","null","","1551317950406","","","","","","",""
"null","","html-keyboard-response","323","2323387","0.0-8.0-0.0-12.0","44","<p><img class= 'stimulus' src='images/baseline/pexels-photo-414491.jpeg'></img></p>","null","","1551317950506","12","","","","","",""
"null","","html-keyboard-response","324","2323487","0.0-8.0-0.0-13.0","44","<p><img class= 'stimulus' src='images/baseline/03098v.jpg'></img></p>","null","","1551317950605","","","","","","",""
"null","","html-keyboard-response","325","2323586","0.0-8.0-0.0-14.0","44","<p><img class= 'stimulus left-rotate' src='images/target/landscape_1.jpg'></img></p>","null","","1551317950706","14","","","","","",""
"null","","html-keyboard-response","326","2323685","0.0-8.0-0.0-15.0","44","<p><img class= 'stimulus' src='images/baseline/foreclosed_home.jpg'></img></p>","null","","1551317950804","","","","","","",""
"null","","html-keyboard-response","327","2323786","0.0-8.0-0.0-16.0","44","<p><img class= 'stimulus' src='images/baseline/Bridge 1.jpg'></img></p>","null","","1551317950905","","","","","","",""
"null","","html-keyboard-response","328","2323903","0.0-8.0-0.0-17.0","44","<p><img class= 'stimulus' src='images/baseline/agriculture-bright-clouds-440731.jpg'></img></p>","null","","1551317951005","","","","","","",""
"949.2999999783933","","html-button-response","329","2325856","0.0-8.0-0.0-18.0","44","<div class = ""response_question"">WAS THE IMAGE ROTATED...</div>","","0","","","6","8","bas","left","test","true"
"3366.5000000037253","","html-button-response","330","2329223","0.0-8.0-0.0-0.1","44","","","0","","","","","","","",""
"null","","html-keyboard-response","331","2329304","0.0-8.0-0.0-1.1","44","<p><img class= 'stimulus' src='images/baseline/building16.jpg'></img></p>","null","","1551317956422","","","","","","",""
"null","","html-keyboard-response","332","2329403","0.0-8.0-0.0-2.1","44","<p><img class= 'stimulus' src='images/baseline/pexels-photo-440731.jpeg'></img></p>","null","","1551317956523","","","","","","",""
"null","","html-keyboard-response","333","2329503","0.0-8.0-0.0-3.1","44","<p><img class= 'stimulus' src='images/baseline/Lake 14.jpg'></img></p>","null","","1551317956623","","","","","","",""
"null","","html-keyboard-response","334","2329603","0.0-8.0-0.0-4.1","44","<p><img class= 'stimulus' src='images/baseline/landscape8.jpg'></img></p>","null","","1551317956723","4","","","","","",""
"null","","html-keyboard-response","335","2329703","0.0-8.0-0.0-5.1","44","<p><img class= 'stimulus' src='images/baseline/Skijump 1.jpg'></img></p>","null","","1551317956823","","","","","","",""
"null","","html-keyboard-response","336","2329802","0.0-8.0-0.0-6.1","44","<p><img class= 'stimulus' src='images/negative/Snake 6.jpg'></img></p>","null","","1551317956923","6","","","","","",""
"null","","html-keyboard-response","337","2329902","0.0-8.0-0.0-7.1","44","<p><img class= 'stimulus' src='images/baseline/05139v.jpg'></img></p>","null","","1551317957023","","","","","","",""
"null","","html-keyboard-response","338","2330004","0.0-8.0-0.0-8.1","44","<p><img class= 'stimulus' src='images/baseline/99_-_Machu_Picchu_-_Juin_2009.edit3.jpg'></img></p>","null","","1551317957122","8","","","","","",""
"null","","html-keyboard-response","339","2330102","0.0-8.0-0.0-9.1","44","<p><img class= 'stimulus' src='images/baseline/lake 1.jpg'></img></p>","null","","1551317957224","","","","","","",""
"null","","html-keyboard-response","340","2330203","0.0-8.0-0.0-10.1","44","<p><img class= 'stimulus' src='images/baseline/landscape1.jpg'></img></p>","null","","1551317957322","","","","","","",""
"null","","html-keyboard-response","341","2330303","0.0-8.0-0.0-11.1","44","<p><img class= 'stimulus' src='images/baseline/Lake 7.jpg'></img></p>","null","","1551317957422","","","","","","",""
"null","","html-keyboard-response","342","2330402","0.0-8.0-0.0-12.1","44","<p><img class= 'stimulus' src='images/baseline/Camping 10.jpg'></img></p>","null","","1551317957522","12","","","","","",""
"null","","html-keyboard-response","343","2330503","0.0-8.0-0.0-13.1","44","<p><img class= 'stimulus' src='images/baseline/Freudenberg_sg_Switzerland.jpg'></img></p>","null","","1551317957622","","","","","","",""
"null","","html-keyboard-response","344","2330603","0.0-8.0-0.0-14.1","44","<p><img class= 'stimulus left-rotate' src='images/target/building2.jpg'></img></p>","null","","1551317957722","14","","","","","",""
"null","","html-keyboard-response","345","2330703","0.0-8.0-0.0-15.1","44","<p><img class= 'stimulus' src='images/baseline/Sunset 4.jpg'></img></p>","null","","1551317957822","","","","","","",""
"null","","html-keyboard-response","346","2330803","0.0-8.0-0.0-16.1","44","<p><img class= 'stimulus' src='images/baseline/vintage-art-deco-storefront.jpg'></img></p>","null","","1551317957923","","","","","","",""
"null","","html-keyboard-response","347","2330919","0.0-8.0-0.0-17.1","44","<p><img class= 'stimulus' src='images/baseline/pexels-photo-280222.jpeg'></img></p>","null","","1551317958022","","","","","","",""
"766.1000000080094","","html-button-response","348","2332688","0.0-8.0-0.0-18.1","44","<div class = ""response_question"">WAS THE IMAGE ROTATED...</div>","","0","","","6","8","neg","left","test","true"
"2765.6999999890104","","html-button-response","349","2335456","0.0-8.0-0.0-0.2","44","","","0","","","","","","","",""
"null","","html-keyboard-response","350","2335535","0.0-8.0-0.0-1.2","44","<p><img class= 'stimulus' src='images/baseline/pexels-photo-210617.jpeg'></img></p>","null","","1551317962656","","","","","","",""
"null","","html-keyboard-response","351","2335636","0.0-8.0-0.0-2.2","44","<p><img class= 'stimulus' src='images/baseline/03045v.jpg'></img></p>","null","","1551317962756","","","","","","",""
"null","","html-keyboard-response","352","2335736","0.0-8.0-0.0-3.2","44","<p><img class= 'stimulus' src='images/baseline/landscape38.jpg'></img></p>","null","","1551317962856","","","","","","",""
"null","","html-keyboard-response","353","2335836","0.0-8.0-0.0-4.2","44","<p><img class= 'stimulus' src='images/baseline/landscape6.jpg'></img></p>","null","","1551317962956","4","","","","","",""
"null","","html-keyboard-response","354","2335936","0.0-8.0-0.0-5.2","44","<p><img class= 'stimulus' src='images/baseline/05247v.jpg'></img></p>","null","","1551317963055","","","","","","",""
"null","","html-keyboard-response","355","2336036","0.0-8.0-0.0-6.2","44","<p><img class= 'stimulus' src='images/negative/Boxing 1.jpg'></img></p>","null","","1551317963155","6","","","","","",""
"null","","html-keyboard-response","356","2336136","0.0-8.0-0.0-7.2","44","<p><img class= 'stimulus' src='images/baseline/house6.jpg'></img></p>","null","","1551317963255","","","","","","",""
"null","","html-keyboard-response","357","2336237","0.0-8.0-0.0-8.2","44","<p><img class= 'stimulus' src='images/baseline/geese-flying-over-lake-at-dusk.jpg'></img></p>","null","","1551317963356","8","","","","","",""
"null","","html-keyboard-response","358","2336336","0.0-8.0-0.0-9.2","44","<p><img class= 'stimulus' src='images/baseline/autumn-in-red-rocks-park.jpg'></img></p>","null","","1551317963456","","","","","","",""
"null","","html-keyboard-response","359","2336436","0.0-8.0-0.0-10.2","44","<p><img class= 'stimulus' src='images/baseline/03056v.jpg'></img></p>","null","","1551317963557","","","","","","",""
"null","","html-keyboard-response","360","2336536","0.0-8.0-0.0-11.2","44","<p><img class= 'stimulus' src='images/baseline/landscape12.jpg'></img></p>","null","","1551317963656","","","","","","",""
"null","","html-keyboard-response","361","2336635","0.0-8.0-0.0-12.2","44","<p><img class= 'stimulus' src='images/baseline/building9.jpg'></img></p>","null","","1551317963756","12","","","","","",""
"null","","html-keyboard-response","362","2336737","0.0-8.0-0.0-13.2","44","<p><img class= 'stimulus' src='images/baseline/farmhouse1.jpg'></img></p>","null","","1551317963856","","","","","","",""
"null","","html-keyboard-response","363","2336837","0.0-8.0-0.0-14.2","44","<p><img class= 'stimulus' src='images/target/house-estate-1100x733.jpg'></img></p>","null","","1551317963955","14","","","","","",""
"null","","html-keyboard-response","364","2336936","0.0-8.0-0.0-15.2","44","<p><img class= 'stimulus' src='images/baseline/lone-old-cottonwood-tree.jpg'></img></p>","null","","1551317964056","","","","","","",""
"null","","html-keyboard-response","365","2337036","0.0-8.0-0.0-16.2","44","<p><img class= 'stimulus' src='images/baseline/red-rocks-park.jpg'></img></p>","null","","1551317964155","","","","","","",""
"null","","html-keyboard-response","366","2337153","0.0-8.0-0.0-17.2","44","<p><img class= 'stimulus' src='images/baseline/landscape33.jpg'></img></p>","null","","1551317964255","","","","","","",""
"979.0000000502914","","html-button-response","367","2339136","0.0-8.0-0.0-18.2","44","<div class = ""response_question"">WAS THE IMAGE ROTATED...</div>","","3","","","6","8","neg","right","test","true"
"3118.300000031013","","html-button-response","368","2342256","0.0-8.0-0.0-0.3","44","","","0","","","","","","","",""
"null","","html-keyboard-response","369","2342336","0.0-8.0-0.0-1.3","44","<p><img class= 'stimulus' src='images/baseline/Beach 3.jpg'></img></p>","null","","1551317969455","","","","","","",""
"null","","html-keyboard-response","370","2342437","0.0-8.0-0.0-2.3","44","<p><img class= 'stimulus' src='images/baseline/Skyscraper 1.jpg'></img></p>","null","","1551317969556","","","","","","",""
"null","","html-keyboard-response","371","2342537","0.0-8.0-0.0-3.3","44","<p><img class= 'stimulus' src='images/baseline/pexels-photo-259280.jpeg'></img></p>","null","","1551317969656","","","","","","",""
"null","","html-keyboard-response","372","2342636","0.0-8.0-0.0-4.3","44","<p><img class= 'stimulus' src='images/baseline/pexels-photo-894312.jpeg'></img></p>","null","","1551317969756","4","","","","","",""
"null","","html-keyboard-response","373","2342736","0.0-8.0-0.0-5.3","44","<p><img class= 'stimulus' src='images/baseline/house10.jpg'></img></p>","null","","1551317969856","","","","","","",""
"null","","html-keyboard-response","374","2342837","0.0-8.0-0.0-6.3","44","<p><img class= 'stimulus' src='images/baseline/04031v.jpg'></img></p>","null","","1551317969955","6","","","","","",""
"null","","html-keyboard-response","375","2342936","0.0-8.0-0.0-7.3","44","<p><img class= 'stimulus' src='images/baseline/03162v.jpg'></img></p>","null","","1551317970055","","","","","","",""
"null","","html-keyboard-response","376","2343037","0.0-8.0-0.0-8.3","44","<p><img class= 'stimulus' src='images/baseline/agriculture-countryside-crop-259280.jpg'></img></p>","null","","1551317970155","8","","","","","",""
"null","","html-keyboard-response","377","2343136","0.0-8.0-0.0-9.3","44","<p><img class= 'stimulus' src='images/baseline/Lake 8.jpg'></img></p>","null","","1551317970255","","","","","","",""
"null","","html-keyboard-response","378","2343236","0.0-8.0-0.0-10.3","44","<p><img class= 'stimulus' src='images/baseline/cranes 1.jpg'></img></p>","null","","1551317970355","","","","","","",""
"null","","html-keyboard-response","379","2343337","0.0-8.0-0.0-11.3","44","<p><img class= 'stimulus' src='images/baseline/Paysage_enneige_02.jpg'></img></p>","null","","1551317970456","","","","","","",""
"null","","html-keyboard-response","380","2343435","0.0-8.0-0.0-12.3","44","<p><img class= 'stimulus' src='images/baseline/Lake 3.jpg'></img></p>","null","","1551317970556","12","","","","","",""
"null","","html-keyboard-response","381","2343537","0.0-8.0-0.0-13.3","44","<p><img class= 'stimulus' src='images/baseline/04162v.jpg'></img></p>","null","","1551317970655","","","","","","",""
"null","","html-keyboard-response","382","2343637","0.0-8.0-0.0-14.3","44","<p><img class= 'stimulus left-rotate' src='images/target/pexels-photo-1123982.jpeg'></img></p>","null","","1551317970757","14","","","","","",""
"null","","html-keyboard-response","383","2343736","0.0-8.0-0.0-15.3","44","<p><img class= 'stimulus' src='images/baseline/04196v.jpg'></img></p>","null","","1551317970856","","","","","","",""
"null","","html-keyboard-response","384","2343836","0.0-8.0-0.0-16.3","44","<p><img class= 'stimulus' src='images/baseline/house2.jpg'></img></p>","null","","1551317970955","","","","","","",""
"null","","html-keyboard-response","385","2343953","0.0-8.0-0.0-17.3","44","<p><img class= 'stimulus' src='images/baseline/building6.jpg'></img></p>","null","","1551317971055","","","","","","",""
"706.7000000388362","","html-button-response","386","2345663","0.0-8.0-0.0-18.3","44","<div class = ""response_question"">WAS THE IMAGE ROTATED...</div>","","0","","","6","8","bas","left","test","true"
"2518.400000000838","","html-button-response","387","2348184","0.0-8.0-0.0-0.4","44","","","0","","","","","","","",""
"null","","html-keyboard-response","388","2348270","0.0-8.0-0.0-1.4","44","<p><img class= 'stimulus' src='images/baseline/pexels-photo-1261728.jpeg'></img></p>","null","","1551317975389","","","","","","",""
"null","","html-keyboard-response","389","2348370","0.0-8.0-0.0-2.4","44","<p><img class= 'stimulus' src='images/baseline/Lake 15.jpg'></img></p>","null","","1551317975489","","","","","","",""
"null","","html-keyboard-response","390","2348470","0.0-8.0-0.0-3.4","44","<p><img class= 'stimulus' src='images/baseline/farmhouse7.jpg'></img></p>","null","","1551317975589","","","","","","",""
"null","","html-keyboard-response","391","2348569","0.0-8.0-0.0-4.4","44","<p><img class= 'stimulus' src='images/baseline/Lake 9.jpg'></img></p>","null","","1551317975689","4","","","","","",""
"null","","html-keyboard-response","392","2348670","0.0-8.0-0.0-5.4","44","<p><img class= 'stimulus' src='images/baseline/church-silhouette-8712964986014Kb.jpg'></img></p>","null","","1551317975789","","","","","","",""
"null","","html-keyboard-response","393","2348769","0.0-8.0-0.0-6.4","44","<p><img class= 'stimulus' src='images/negative/Ferret 1.jpg'></img></p>","null","","1551317975889","6","","","","","",""
"null","","html-keyboard-response","394","2348870","0.0-8.0-0.0-7.4","44","<p><img class= 'stimulus' src='images/baseline/landscape40.jpg'></img></p>","null","","1551317975990","","","","","","",""
"null","","html-keyboard-response","395","2348969","0.0-8.0-0.0-8.4","44","<p><img class= 'stimulus' src='images/target/landscape3.jpg'></img></p>","null","","1551317976089","8","","","","","",""
"null","","html-keyboard-response","396","2349070","0.0-8.0-0.0-9.4","44","<p><img class= 'stimulus' src='images/baseline/valley 2.jpg'></img></p>","null","","1551317976189","","","","","","",""
"null","","html-keyboard-response","397","2349170","0.0-8.0-0.0-10.4","44","<p><img class= 'stimulus' src='images/baseline/pexels-photo-1048039.jpeg'></img></p>","null","","1551317976288","","","","","","",""
"null","","html-keyboard-response","398","2349269","0.0-8.0-0.0-11.4","44","<p><img class= 'stimulus' src='images/baseline/farmhouse8.jpg'></img></p>","null","","1551317976389","","","","","","",""
"null","","html-keyboard-response","399","2349370","0.0-8.0-0.0-12.4","44","<p><img class= 'stimulus' src='images/baseline/pexels-photo-750108.jpeg'></img></p>","null","","1551317976489","12","","","","","",""
"null","","html-keyboard-response","400","2349470","0.0-8.0-0.0-13.4","44","<p><img class= 'stimulus' src='images/baseline/04130v.jpg'></img></p>","null","","1551317976589","","","","","","",""
"null","","html-keyboard-response","401","2349570","0.0-8.0-0.0-14.4","44","<p><img class= 'stimulus' src='images/baseline/town-square-in-wroclaw-1539098440MZy.jpg'></img></p>","null","","1551317976688","14","","","","","",""
"null","","html-keyboard-response","402","2349670","0.0-8.0-0.0-15.4","44","<p><img class= 'stimulus' src='images/baseline/field 4.jpg'></img></p>","null","","1551317976788","","","","","","",""
"null","","html-keyboard-response","403","2349770","0.0-8.0-0.0-16.4","44","<p><img class= 'stimulus' src='images/baseline/building5.jpg'></img></p>","null","","1551317976889","","","","","","",""
"null","","html-keyboard-response","404","2349886","0.0-8.0-0.0-17.4","44","<p><img class= 'stimulus' src='images/baseline/Path 1.jpg'></img></p>","null","","1551317976989","","","","","","",""
"966.6999999899417","","html-button-response","405","2351856","0.0-8.0-0.0-18.4","44","<div class = ""response_question"">WAS THE IMAGE ROTATED...</div>","","3","","","6","2","neg","right","test","true"
"2678.1999999657273","","html-button-response","406","2354535","0.0-8.0-0.0-0.5","44","","","0","","","","","","","",""
"null","","html-keyboard-response","407","2354619","0.0-8.0-0.0-1.5","44","<p><img class= 'stimulus' src='images/baseline/landscape39.jpg'></img></p>","null","","1551317981739","","","","","","",""
"null","","html-keyboard-response","408","2354720","0.0-8.0-0.0-2.5","44","<p><img class= 'stimulus' src='images/baseline/02947v.jpg'></img></p>","null","","1551317981840","","","","","","",""
"null","","html-keyboard-response","409","2354820","0.0-8.0-0.0-3.5","44","<p><img class= 'stimulus' src='images/baseline/03075v.jpg'></img></p>","null","","1551317981940","","","","","","",""
"null","","html-keyboard-response","410","2354920","0.0-8.0-0.0-4.5","44","<p><img class= 'stimulus' src='images/baseline/architecture-1314416_1920.jpg'></img></p>","null","","1551317982039","4","","","","","",""
"null","","html-keyboard-response","411","2355020","0.0-8.0-0.0-5.5","44","<p><img class= 'stimulus' src='images/baseline/lake 2.jpg'></img></p>","null","","1551317982139","","","","","","",""
"null","","html-keyboard-response","412","2355120","0.0-8.0-0.0-6.5","44","<p><img class= 'stimulus' src='images/neutral/listening to music.jpg'></img></p>","null","","1551317982239","6","","","","","",""
"null","","html-keyboard-response","413","2355219","0.0-8.0-0.0-7.5","44","<p><img class= 'stimulus' src='images/baseline/pexels-photo-427676.jpeg'></img></p>","null","","1551317982340","","","","","","",""
"null","","html-keyboard-response","414","2355320","0.0-8.0-0.0-8.5","44","<p><img class= 'stimulus' src='images/target/sand-3339890_640.jpg'></img></p>","null","","1551317982439","8","","","","","",""
"null","","html-keyboard-response","415","2355420","0.0-8.0-0.0-9.5","44","<p><img class= 'stimulus' src='images/baseline/04284v.jpg'></img></p>","null","","1551317982540","","","","","","",""
"null","","html-keyboard-response","416","2355520","0.0-8.0-0.0-10.5","44","<p><img class= 'stimulus' src='images/baseline/03148v.jpg'></img></p>","null","","1551317982640","","","","","","",""
"null","","html-keyboard-response","417","2355619","0.0-8.0-0.0-11.5","44","<p><img class= 'stimulus' src='images/baseline/grand-teton-mountains.jpg'></img></p>","null","","1551317982739","","","","","","",""
"null","","html-keyboard-response","418","2355719","0.0-8.0-0.0-12.5","44","<p><img class= 'stimulus' src='images/baseline/pexels-photo-221125.jpeg'></img></p>","null","","1551317982839","12","","","","","",""
"null","","html-keyboard-response","419","2355820","0.0-8.0-0.0-13.5","44","<p><img class= 'stimulus' src='images/baseline/landscape7.jpg'></img></p>","null","","1551317982940","","","","","","",""
"null","","html-keyboard-response","420","2355920","0.0-8.0-0.0-14.5","44","<p><img class= 'stimulus' src='images/baseline/03041v.jpg'></img></p>","null","","1551317983038","14","","","","","",""
"null","","html-keyboard-response","421","2356020","0.0-8.0-0.0-15.5","44","<p><img class= 'stimulus' src='images/baseline/05186v.jpg'></img></p>","null","","1551317983140","","","","","","",""
"null","","html-keyboard-response","422","2356120","0.0-8.0-0.0-16.5","44","<p><img class= 'stimulus' src='images/baseline/road 1(1).jpg'></img></p>","null","","1551317983239","","","","","","",""
"null","","html-keyboard-response","423","2356236","0.0-8.0-0.0-17.5","44","<p><img class= 'stimulus' src='images/baseline/Sunset 5.jpg'></img></p>","null","","1551317983339","","","","","","",""
"1016.9000000460073","","html-button-response","424","2358256","0.0-8.0-0.0-18.5","44","<div class = ""response_question"">WAS THE IMAGE ROTATED...</div>","","3","","","6","2","neu","right","test","true"
"2334.199999982957","","html-button-response","425","2360591","0.0-8.0-0.0-0.6","44","","","0","","","","","","","",""
"null","","html-keyboard-response","426","2360670","0.0-8.0-0.0-1.6","44","<p><img class= 'stimulus' src='images/baseline/02982v.jpg'></img></p>","null","","1551317987789","","","","","","",""
"null","","html-keyboard-response","427","2360769","0.0-8.0-0.0-2.6","44","<p><img class= 'stimulus' src='images/baseline/architecture_modern_architecture_852928.jpg'></img></p>","null","","1551317987888","","","","","","",""
"null","","html-keyboard-response","428","2360870","0.0-8.0-0.0-3.6","44","<p><img class= 'stimulus' src='images/baseline/05255v.jpg'></img></p>","null","","1551317987988","","","","","","",""
"null","","html-keyboard-response","429","2360970","0.0-8.0-0.0-4.6","44","<p><img class= 'stimulus' src='images/baseline/Aletschgletscher-Eggishorn.jpg'></img></p>","null","","1551317988089","4","","","","","",""
"null","","html-keyboard-response","430","2361070","0.0-8.0-0.0-5.6","44","<p><img class= 'stimulus' src='images/baseline/pexels-photo-568236.jpeg'></img></p>","null","","1551317988190","","","","","","",""
"null","","html-keyboard-response","431","2361170","0.0-8.0-0.0-6.6","44","<p><img class= 'stimulus' src='images/target/transamerica-pyramid-530061_640.jpg'></img></p>","null","","1551317988289","6","","","","","",""
"null","","html-keyboard-response","432","2361269","0.0-8.0-0.0-7.6","44","<p><img class= 'stimulus' src='images/baseline/kokkari-1523011968Xfr.jpg'></img></p>","null","","1551317988390","","","","","","",""
"null","","html-keyboard-response","433","2361370","0.0-8.0-0.0-8.6","44","<p><img class= 'stimulus' src='images/baseline/Beach 2.jpg'></img></p>","null","","1551317988490","8","","","","","",""
"null","","html-keyboard-response","434","2361470","0.0-8.0-0.0-9.6","44","<p><img class= 'stimulus' src='images/baseline/pexels-photo-541101.jpeg'></img></p>","null","","1551317988590","","","","","","",""
"null","","html-keyboard-response","435","2361570","0.0-8.0-0.0-10.6","44","<p><img class= 'stimulus' src='images/baseline/04063v.jpg'></img></p>","null","","1551317988690","","","","","","",""
"null","","html-keyboard-response","436","2361669","0.0-8.0-0.0-11.6","44","<p><img class= 'stimulus' src='images/baseline/sun-through-winter-tree-branches1.jpg'></img></p>","null","","1551317988790","","","","","","",""
"null","","html-keyboard-response","437","2361769","0.0-8.0-0.0-12.6","44","<p><img class= 'stimulus' src='images/baseline/landscape17.jpg'></img></p>","null","","1551317988889","12","","","","","",""
"null","","html-keyboard-response","438","2361870","0.0-8.0-0.0-13.6","44","<p><img class= 'stimulus' src='images/baseline/landscape14.jpg'></img></p>","null","","1551317988990","","","","","","",""
"null","","html-keyboard-response","439","2361970","0.0-8.0-0.0-14.6","44","<p><img class= 'stimulus' src='images/baseline/lookout_tower.jpg'></img></p>","null","","1551317989090","14","","","","","",""
"null","","html-keyboard-response","440","2362071","0.0-8.0-0.0-15.6","44","<p><img class= 'stimulus' src='images/baseline/pexels-photo-808465.jpeg'></img></p>","null","","1551317989189","","","","","","",""
"null","","html-keyboard-response","441","2362171","0.0-8.0-0.0-16.6","44","<p><img class= 'stimulus' src='images/baseline/Happy pose 3.jpg'></img></p>","null","","1551317989290","","","","","","",""
"null","","html-keyboard-response","442","2362286","0.0-8.0-0.0-17.6","44","<p><img class= 'stimulus' src='images/baseline/pexels-photo-351264.jpeg'></img></p>","null","","1551317989389","","","","","","",""
"1650.8000000030734","","html-button-response","443","2364944","0.0-8.0-0.0-18.6","44","<div class = ""response_question"">WAS THE IMAGE ROTATED...</div>","","4","","","4","2","bas","right","test","true"
"2350.399999995716","","html-button-response","444","2367288","0.0-8.0-0.0-0.7","44","","","0","","","","","","","",""
"null","","html-keyboard-response","445","2367362","0.0-8.0-0.0-1.7","44","<p><img class= 'stimulus' src='images/baseline/valley 1.jpg'></img></p>","null","","1551317994481","","","","","","",""
"null","","html-keyboard-response","446","2367462","0.0-8.0-0.0-2.7","44","<p><img class= 'stimulus' src='images/baseline/04086v.jpg'></img></p>","null","","1551317994581","","","","","","",""
"null","","html-keyboard-response","447","2367562","0.0-8.0-0.0-3.7","44","<p><img class= 'stimulus' src='images/baseline/empire-state-building.jpg'></img></p>","null","","1551317994682","","","","","","",""
"null","","html-keyboard-response","448","2367664","0.0-8.0-0.0-4.7","44","<p><img class= 'stimulus' src='images/baseline/Street 3.jpg'></img></p>","null","","1551317994781","4","","","","","",""
"null","","html-keyboard-response","449","2367762","0.0-8.0-0.0-5.7","44","<p><img class= 'stimulus' src='images/baseline/house8.jpg'></img></p>","null","","1551317994881","","","","","","",""
"null","","html-keyboard-response","450","2367863","0.0-8.0-0.0-6.7","44","<p><img class= 'stimulus' src='images/baseline/Beach 8.jpg'></img></p>","null","","1551317994981","6","","","","","",""
"null","","html-keyboard-response","451","2367963","0.0-8.0-0.0-7.7","44","<p><img class= 'stimulus' src='images/baseline/04064v.jpg'></img></p>","null","","1551317995081","","","","","","",""
"null","","html-keyboard-response","452","2368062","0.0-8.0-0.0-8.7","44","<p><img class= 'stimulus' src='images/baseline/03217v.jpg'></img></p>","null","","1551317995182","8","","","","","",""
"null","","html-keyboard-response","453","2368162","0.0-8.0-0.0-9.7","44","<p><img class= 'stimulus' src='images/baseline/agriculture-cereal-clouds-175389.jpg'></img></p>","null","","1551317995283","","","","","","",""
"null","","html-keyboard-response","454","2368263","0.0-8.0-0.0-10.7","44","<p><img class= 'stimulus' src='images/baseline/chicago-skyline-at-night-1476869511p8U.jpg'></img></p>","null","","1551317995382","","","","","","",""
"null","","html-keyboard-response","455","2368362","0.0-8.0-0.0-11.7","44","<p><img class= 'stimulus' src='images/baseline/city-silhouette-at-sunset-871291580819Esw.jpg'></img></p>","null","","1551317995482","","","","","","",""
"null","","html-keyboard-response","456","2368462","0.0-8.0-0.0-12.7","44","<p><img class= 'stimulus' src='images/baseline/building3.jpg'></img></p>","null","","1551317995582","12","","","","","",""
"null","","html-keyboard-response","457","2368563","0.0-8.0-0.0-13.7","44","<p><img class= 'stimulus' src='images/baseline/pexels-photo-1287089.jpeg'></img></p>","null","","1551317995682","","","","","","",""
"null","","html-keyboard-response","458","2368662","0.0-8.0-0.0-14.7","44","<p><img class= 'stimulus' src='images/target/landscape32.jpg'></img></p>","null","","1551317995781","14","","","","","",""
"null","","html-keyboard-response","459","2368763","0.0-8.0-0.0-15.7","44","<p><img class= 'stimulus' src='images/baseline/pexels-photo-1054289.jpeg'></img></p>","null","","1551317995882","","","","","","",""
"null","","html-keyboard-response","460","2368863","0.0-8.0-0.0-16.7","44","<p><img class= 'stimulus' src='images/baseline/05198v.jpg'></img></p>","null","","1551317995982","","","","","","",""
"null","","html-keyboard-response","461","2368980","0.0-8.0-0.0-17.7","44","<p><img class= 'stimulus' src='images/baseline/__08_-_ITALY_-_Forli_under_snow_-_winter_landscape_of_city_(christmas).jpg'></img></p>","null","","1551317996083","","","","","","",""
"904.999999969732","","html-button-response","462","2370888","0.0-8.0-0.0-18.7","44","<div class = ""response_question"">WAS THE IMAGE ROTATED...</div>","","3","","","6","8","bas","right","test","true"
"2654.2999999946915","","html-button-response","463","2373544","0.0-8.0-0.0-0.8","44","","","0","","","","","","","",""
"null","","html-keyboard-response","464","2373631","0.0-8.0-0.0-1.8","44","<p><img class= 'stimulus' src='images/baseline/04229v.jpg'></img></p>","null","","1551318000749","","","","","","",""
"null","","html-keyboard-response","465","2373729","0.0-8.0-0.0-2.8","44","<p><img class= 'stimulus' src='images/baseline/Desert_View_Indian_Wells.jpg'></img></p>","null","","1551318000848","","","","","","",""
"null","","html-keyboard-response","466","2373829","0.0-8.0-0.0-3.8","44","<p><img class= 'stimulus' src='images/baseline/Kocherbaumwald-01.jpg'></img></p>","null","","1551318000949","","","","","","",""
"null","","html-keyboard-response","467","2373929","0.0-8.0-0.0-4.8","44","<p><img class= 'stimulus' src='images/negative/War 1.jpg'></img></p>","null","","1551318001049","4","","","","","",""
"null","","html-keyboard-response","468","2374029","0.0-8.0-0.0-5.8","44","<p><img class= 'stimulus' src='images/baseline/Sky 1.jpg'></img></p>","null","","1551318001149","","","","","","",""
"null","","html-keyboard-response","469","2374130","0.0-8.0-0.0-6.8","44","<p><img class= 'stimulus' src='images/baseline/Lake 13.jpg'></img></p>","null","","1551318001250","6","","","","","",""
"null","","html-keyboard-response","470","2374230","0.0-8.0-0.0-7.8","44","<p><img class= 'stimulus' src='images/baseline/Nature 2.jpg'></img></p>","null","","1551318001348","","","","","","",""
"null","","html-keyboard-response","471","2374329","0.0-8.0-0.0-8.8","44","<p><img class= 'stimulus' src='images/baseline/house11.jpg'></img></p>","null","","1551318001449","8","","","","","",""
"null","","html-keyboard-response","472","2374430","0.0-8.0-0.0-9.8","44","<p><img class= 'stimulus' src='images/baseline/sunny-landscape-with-dry-brush-and-mountain-background.jpg'></img></p>","null","","1551318001548","","","","","","",""
"null","","html-keyboard-response","473","2374529","0.0-8.0-0.0-10.8","44","<p><img class= 'stimulus' src='images/baseline/flooded-bridge.jpg'></img></p>","null","","1551318001648","","","","","","",""
"null","","html-keyboard-response","474","2374629","0.0-8.0-0.0-11.8","44","<p><img class= 'stimulus' src='images/baseline/seoul-410266_1920.jpg'></img></p>","null","","1551318001749","","","","","","",""
"null","","html-keyboard-response","475","2374729","0.0-8.0-0.0-12.8","44","<p><img class= 'stimulus left-rotate' src='images/target/buildin.png'></img></p>","null","","1551318001849","12","","","","","",""
"null","","html-keyboard-response","476","2374829","0.0-8.0-0.0-13.8","44","<p><img class= 'stimulus' src='images/baseline/Lake 4.jpg'></img></p>","null","","1551318001949","","","","","","",""
"null","","html-keyboard-response","477","2374929","0.0-8.0-0.0-14.8","44","<p><img class= 'stimulus' src='images/baseline/02960v.jpg'></img></p>","null","","1551318002048","14","","","","","",""
"null","","html-keyboard-response","478","2375030","0.0-8.0-0.0-15.8","44","<p><img class= 'stimulus' src='images/baseline/landscape4.jpg'></img></p>","null","","1551318002148","","","","","","",""
"null","","html-keyboard-response","479","2375129","0.0-8.0-0.0-16.8","44","<p><img class= 'stimulus' src='images/baseline/04201v.jpg'></img></p>","null","","1551318002248","","","","","","",""
"null","","html-keyboard-response","480","2375246","0.0-8.0-0.0-17.8","44","<p><img class= 'stimulus' src='images/baseline/03212v.jpg'></img></p>","null","","1551318002350","","","","","","",""
"744.3999999668449","","html-button-response","481","2377008","0.0-8.0-0.0-18.8","44","<div class = ""response_question"">WAS THE IMAGE ROTATED...</div>","","0","","","4","8","neg","left","test","true"
"2486.4999999990687","","html-button-response","482","2379496","0.0-8.0-0.0-0.9","44","","","0","","","","","","","",""
"null","","html-keyboard-response","483","2379579","0.0-8.0-0.0-1.9","44","<p><img class= 'stimulus' src='images/baseline/building12.jpg'></img></p>","null","","1551318006698","","","","","","",""
"null","","html-keyboard-response","484","2379679","0.0-8.0-0.0-2.9","44","<p><img class= 'stimulus' src='images/baseline/farmhouse3.jpg'></img></p>","null","","1551318006799","","","","","","",""
"null","","html-keyboard-response","485","2379779","0.0-8.0-0.0-3.9","44","<p><img class= 'stimulus' src='images/baseline/04085v.jpg'></img></p>","null","","1551318006898","","","","","","",""
"null","","html-keyboard-response","486","2379879","0.0-8.0-0.0-4.9","44","<p><img class= 'stimulus' src='images/neutral/Pigeon 2.jpg'></img></p>","null","","1551318006998","4","","","","","",""
"null","","html-keyboard-response","487","2379980","0.0-8.0-0.0-5.9","44","<p><img class= 'stimulus' src='images/baseline/landscape19.jpg'></img></p>","null","","1551318007099","","","","","","",""
"null","","html-keyboard-response","488","2380079","0.0-8.0-0.0-6.9","44","<p><img class= 'stimulus' src='images/baseline/Linden,_paysage.jpg'></img></p>","null","","1551318007199","6","","","","","",""
"null","","html-keyboard-response","489","2380179","0.0-8.0-0.0-7.9","44","<p><img class= 'stimulus' src='images/baseline/Cold 7.jpg'></img></p>","null","","1551318007300","","","","","","",""
"null","","html-keyboard-response","490","2380280","0.0-8.0-0.0-8.9","44","<p><img class= 'stimulus' src='images/baseline/03201v.jpg'></img></p>","null","","1551318007399","8","","","","","",""
"null","","html-keyboard-response","491","2380379","0.0-8.0-0.0-9.9","44","<p><img class= 'stimulus' src='images/baseline/lake3.jpg'></img></p>","null","","1551318007499","","","","","","",""
"null","","html-keyboard-response","492","2380479","0.0-8.0-0.0-10.9","44","<p><img class= 'stimulus' src='images/baseline/Street 4.jpg'></img></p>","null","","1551318007598","","","","","","",""
"null","","html-keyboard-response","493","2380580","0.0-8.0-0.0-11.9","44","<p><img class= 'stimulus' src='images/baseline/road.jpg'></img></p>","null","","1551318007698","","","","","","",""
"null","","html-keyboard-response","494","2380679","0.0-8.0-0.0-12.9","44","<p><img class= 'stimulus' src='images/target/cactus2.jpg'></img></p>","null","","1551318007799","12","","","","","",""
"null","","html-keyboard-response","495","2380779","0.0-8.0-0.0-13.9","44","<p><img class= 'stimulus' src='images/baseline/landscape11.jpg'></img></p>","null","","1551318007899","","","","","","",""
"null","","html-keyboard-response","496","2380880","0.0-8.0-0.0-14.9","44","<p><img class= 'stimulus' src='images/baseline/03066v.jpg'></img></p>","null","","1551318007998","14","","","","","",""
"null","","html-keyboard-response","497","2380980","0.0-8.0-0.0-15.9","44","<p><img class= 'stimulus' src='images/baseline/05303v.jpg'></img></p>","null","","1551318008099","","","","","","",""
"null","","html-keyboard-response","498","2381079","0.0-8.0-0.0-16.9","44","<p><img class= 'stimulus' src='images/baseline/landscape22.jpg'></img></p>","null","","1551318008199","","","","","","",""
"null","","html-keyboard-response","499","2381196","0.0-8.0-0.0-17.9","44","<p><img class= 'stimulus' src='images/baseline/building8.jpg'></img></p>","null","","1551318008300","","","","","","",""
"681.4000000013039","","html-button-response","500","2382880","0.0-8.0-0.0-18.9","44","<div class = ""response_question"">WAS THE IMAGE ROTATED...</div>","","3","","","4","8","neu","right","test","true"
"2374.2000000202097","","html-button-response","501","2385256","0.0-8.0-0.0-0.10","44","","","0","","","","","","","",""
"null","","html-keyboard-response","502","2385330","0.0-8.0-0.0-1.10","44","<p><img class= 'stimulus' src='images/baseline/05280v.jpg'></img></p>","null","","1551318012449","","","","","","",""
"null","","html-keyboard-response","503","2385429","0.0-8.0-0.0-2.10","44","<p><img class= 'stimulus' src='images/baseline/Paysage_karabagh_02.jpg'></img></p>","null","","1551318012549","","","","","","",""
"null","","html-keyboard-response","504","2385529","0.0-8.0-0.0-3.10","44","<p><img class= 'stimulus' src='images/baseline/farmhouse11.jpg'></img></p>","null","","1551318012648","","","","","","",""
"null","","html-keyboard-response","505","2385629","0.0-8.0-0.0-4.10","44","<p><img class= 'stimulus' src='images/negative/Shark 7.jpg'></img></p>","null","","1551318012749","4","","","","","",""
"null","","html-keyboard-response","506","2385729","0.0-8.0-0.0-5.10","44","<p><img class= 'stimulus' src='images/baseline/hills 4.jpg'></img></p>","null","","1551318012849","","","","","","",""
"null","","html-keyboard-response","507","2385830","0.0-8.0-0.0-6.10","44","<p><img class= 'stimulus' src='images/baseline/Nature 1.jpg'></img></p>","null","","1551318012948","6","","","","","",""
