"rt","responses","trial_type","trial_index","time_elapsed","internal_node_id","participant_id","stimulus","key_press","button_pressed","stim_onset","sequence_position","distractor_position","target_lag","distractor_type","target_orientation","phase","correct"
"4864.2000000108965","{""Q0"":""47""}","survey-text","0","4869","0.0-0.0","47","","","","","","","","","","",""
"2058059.7999999882","","html-keyboard-response","1","2062937","0.0-1.0","47","Welcome to the experiment.","67","","","","","","","","",""
"7255.799999984447","","html-button-response","2","2070199","0.0-2.0","47","<p>Several images will be presented sequentially.        Each image will only be on the screen for about 100 milliseconds.</p>        <p> One of the images may be rotated 90 degrees right or left.        Watch for this image and remember if it is rotated right or left.</p>               <p>Images of people and animals will appear, and sometimes they will be unpleasant.        These will never be the rotated target image.</p>","","0","","","","","","","",""
"3878.3999999868684","","html-button-response","3","2074078","0.0-3.0","47","<p><img class=""stimulus left-rotate"" src=""images/target/building4.jpg""></img></p><p>This is an example of an image rotated to the left.</p>","","0","","","","","","","",""
"1438.7999999453314","","html-button-response","4","2075518","0.0-4.0","47","<p><img class=""stimulus"" src=""images/target/pexels-photo-1534411.jpeg""></img></p><p>This is an example of an image rotated to the right.</p>","","0","","","","","","","",""
"10951.000000000931","","html-button-response","5","2086470","0.0-5.0","47","<p>We will now begin a short practice session.</p>         <p>A + symbol will appear in the middle of the screen. Please fix your gaze on the center of the +, and then click the mouse button to begin the image sequence.</p>         <p>Please avoid blinking or eye movements while the images are on the screen.</p>        <p>The image sequence will start relatively slow. After a few sequences, it will speed up.</p>","","0","","","","","","","",""
"2334.7000000067055","","html-button-response","6","2088806","0.0-6.0-0.0","47","","","0","","","","","","","",""
"null","","html-keyboard-response","7","2088991","0.0-6.0-1.0","47","<p><img class= 'stimulus' src='images/baseline/valley 2.jpg'></img></p>","null","","1551454365540","","","","","","",""
"null","","html-keyboard-response","8","2089190","0.0-6.0-2.0","47","<p><img class= 'stimulus' src='images/baseline/field 1.jpg'></img></p>","null","","1551454365740","","","","","","",""
"null","","html-keyboard-response","9","2089391","0.0-6.0-3.0","47","<p><img class= 'stimulus' src='images/baseline/landscape11.jpg'></img></p>","null","","1551454365940","","","","","","",""
"null","","html-keyboard-response","10","2089592","0.0-6.0-4.0","47","<p><img class= 'stimulus' src='images/baseline/landscape33.jpg'></img></p>","null","","1551454366141","4","","","","","",""
"null","","html-keyboard-response","11","2089791","0.0-6.0-5.0","47","<p><img class= 'stimulus' src='images/baseline/road 1(1).jpg'></img></p>","null","","1551454366341","","","","","","",""
"null","","html-keyboard-response","12","2089991","0.0-6.0-6.0","47","<p><img class= 'stimulus left-rotate' src='images/target/house-estate-1100x733.jpg'></img></p>","null","","1551454366541","6","","","","","",""
"null","","html-keyboard-response","13","2090191","0.0-6.0-7.0","47","<p><img class= 'stimulus' src='images/baseline/05198v.jpg'></img></p>","null","","1551454366740","","","","","","",""
"null","","html-keyboard-response","14","2090392","0.0-6.0-8.0","47","<p><img class= 'stimulus' src='images/baseline/4k-wallpaper-agriculture-clouds-842711.jpg'></img></p>","null","","1551454366942","8","","","","","",""
"null","","html-keyboard-response","15","2090593","0.0-6.0-9.0","47","<p><img class= 'stimulus' src='images/baseline/house7.jpg'></img></p>","null","","1551454367141","","","","","","",""
"null","","html-keyboard-response","16","2090793","0.0-6.0-10.0","47","<p><img class= 'stimulus' src='images/baseline/house10.jpg'></img></p>","null","","1551454367343","","","","","","",""
"null","","html-keyboard-response","17","2090993","0.0-6.0-11.0","47","<p><img class= 'stimulus' src='images/baseline/Lake 9.jpg'></img></p>","null","","1551454367543","","","","","","",""
"null","","html-keyboard-response","18","2091194","0.0-6.0-12.0","47","<p><img class= 'stimulus' src='images/baseline/Freudenberg_sg_Switzerland.jpg'></img></p>","null","","1551454367742","12","","","","","",""
"null","","html-keyboard-response","19","2091393","0.0-6.0-13.0","47","<p><img class= 'stimulus' src='images/baseline/farmhouse4.jpg'></img></p>","null","","1551454367944","","","","","","",""
"null","","html-keyboard-response","20","2091594","0.0-6.0-14.0","47","<p><img class= 'stimulus' src='images/baseline/05242v.jpg'></img></p>","null","","1551454368143","14","","","","","",""
"null","","html-keyboard-response","21","2091793","0.0-6.0-15.0","47","<p><img class= 'stimulus' src='images/baseline/pexels-photo-1054289.jpeg'></img></p>","null","","1551454368343","","","","","","",""
"null","","html-keyboard-response","22","2091994","0.0-6.0-16.0","47","<p><img class= 'stimulus' src='images/baseline/building3.jpg'></img></p>","null","","1551454368543","","","","","","",""
"null","","html-keyboard-response","23","2092210","0.0-6.0-17.0","47","<p><img class= 'stimulus' src='images/baseline/field 4.jpg'></img></p>","null","","1551454368742","","","","","","",""
"8408.100000000559","","html-button-response","24","2101623","0.0-6.0-18.0","47","<div class = ""response_question"">WAS THE IMAGE ROTATED...</div>","","5","","","4","2","bas","left","practice","false"
"4101.599999994505","","html-button-response","25","2105727","0.0-6.0-0.1","47","","","0","","","","","","","",""
"null","","html-keyboard-response","26","2105910","0.0-6.0-1.1","47","<p><img class= 'stimulus' src='images/baseline/grand-teton-mountains.jpg'></img></p>","null","","1551454382459","","","","","","",""
"null","","html-keyboard-response","27","2106109","0.0-6.0-2.1","47","<p><img class= 'stimulus' src='images/baseline/Beach 3.jpg'></img></p>","null","","1551454382659","","","","","","",""
"null","","html-keyboard-response","28","2106310","0.0-6.0-3.1","47","<p><img class= 'stimulus' src='images/baseline/snowy tree.jpg'></img></p>","null","","1551454382859","","","","","","",""
"null","","html-keyboard-response","29","2106509","0.0-6.0-4.1","47","<p><img class= 'stimulus' src='images/baseline/house11.jpg'></img></p>","null","","1551454383059","4","","","","","",""
"null","","html-keyboard-response","30","2106710","0.0-6.0-5.1","47","<p><img class= 'stimulus' src='images/baseline/farmhouse7.jpg'></img></p>","null","","1551454383259","","","","","","",""
"null","","html-keyboard-response","31","2106909","0.0-6.0-6.1","47","<p><img class= 'stimulus' src='images/target/adventure-desert-landscape-6778.jpg'></img></p>","null","","1551454383459","6","","","","","",""
"null","","html-keyboard-response","32","2107110","0.0-6.0-7.1","47","<p><img class= 'stimulus' src='images/baseline/autumn-landscape-with-lake-fall-trees-mountains.jpg'></img></p>","null","","1551454383659","","","","","","",""
"null","","html-keyboard-response","33","2107310","0.0-6.0-8.1","47","<p><img class= 'stimulus' src='images/baseline/city-silhouette-at-sunset-871291580819Esw.jpg'></img></p>","null","","1551454383860","8","","","","","",""
"null","","html-keyboard-response","34","2107511","0.0-6.0-9.1","47","<p><img class= 'stimulus' src='images/baseline/04098v.jpg'></img></p>","null","","1551454384059","","","","","","",""
"null","","html-keyboard-response","35","2107711","0.0-6.0-10.1","47","<p><img class= 'stimulus' src='images/baseline/cyrillic.jpg'></img></p>","null","","1551454384260","","","","","","",""
"null","","html-keyboard-response","36","2107910","0.0-6.0-11.1","47","<p><img class= 'stimulus' src='images/baseline/04062v.jpg'></img></p>","null","","1551454384460","","","","","","",""
"null","","html-keyboard-response","37","2108110","0.0-6.0-12.1","47","<p><img class= 'stimulus' src='images/baseline/05145v.jpg'></img></p>","null","","1551454384660","12","","","","","",""
"null","","html-keyboard-response","38","2108311","0.0-6.0-13.1","47","<p><img class= 'stimulus' src='images/baseline/farmhouse1.jpg'></img></p>","null","","1551454384860","","","","","","",""
"null","","html-keyboard-response","39","2108511","0.0-6.0-14.1","47","<p><img class= 'stimulus' src='images/baseline/Lake 3.jpg'></img></p>","null","","1551454385060","14","","","","","",""
"null","","html-keyboard-response","40","2108711","0.0-6.0-15.1","47","<p><img class= 'stimulus' src='images/baseline/farmhouse9.jpg'></img></p>","null","","1551454385261","","","","","","",""
"null","","html-keyboard-response","41","2108911","0.0-6.0-16.1","47","<p><img class= 'stimulus' src='images/baseline/landscape7.jpg'></img></p>","null","","1551454385460","","","","","","",""
"null","","html-keyboard-response","42","2109129","0.0-6.0-17.1","47","<p><img class= 'stimulus' src='images/baseline/house1.jpg'></img></p>","null","","1551454385661","","","","","","",""
"1994.5999999763444","","html-button-response","43","2112128","0.0-6.0-18.1","47","<div class = ""response_question"">WAS THE IMAGE ROTATED...</div>","","3","","","4","2","bas","right","practice","true"
"1598.3999999589287","","html-button-response","44","2113727","0.0-6.0-0.2","47","","","0","","","","","","","",""
"null","","html-keyboard-response","45","2113910","0.0-6.0-1.2","47","<p><img class= 'stimulus' src='images/baseline/landscape29.jpg'></img></p>","null","","1551454390460","","","","","","",""
"null","","html-keyboard-response","46","2114110","0.0-6.0-2.2","47","<p><img class= 'stimulus' src='images/baseline/Path 1.jpg'></img></p>","null","","1551454390659","","","","","","",""
"null","","html-keyboard-response","47","2114310","0.0-6.0-3.2","47","<p><img class= 'stimulus' src='images/baseline/agriculture-countryside-crop-259280.jpg'></img></p>","null","","1551454390860","","","","","","",""
"null","","html-keyboard-response","48","2114511","0.0-6.0-4.2","47","<p><img class= 'stimulus' src='images/baseline/__08_-_ITALY_-_Forli_under_snow_-_winter_landscape_of_city_(christmas).jpg'></img></p>","null","","1551454391059","4","","","","","",""
"null","","html-keyboard-response","49","2114710","0.0-6.0-5.2","47","<p><img class= 'stimulus' src='images/baseline/house3.jpg'></img></p>","null","","1551454391259","","","","","","",""
"null","","html-keyboard-response","50","2114910","0.0-6.0-6.2","47","<p><img class= 'stimulus' src='images/baseline/03075v.jpg'></img></p>","null","","1551454391459","6","","","","","",""
"null","","html-keyboard-response","51","2115111","0.0-6.0-7.2","47","<p><img class= 'stimulus' src='images/baseline/building5.jpg'></img></p>","null","","1551454391660","","","","","","",""
"null","","html-keyboard-response","52","2115310","0.0-6.0-8.2","47","<p><img class= 'stimulus left-rotate' src='images/target/pexels-photo-1123982.jpeg'></img></p>","null","","1551454391860","8","","","","","",""
"null","","html-keyboard-response","53","2115510","0.0-6.0-9.2","47","<p><img class= 'stimulus' src='images/baseline/Sunset 6.jpg'></img></p>","null","","1551454392061","","","","","","",""
"null","","html-keyboard-response","54","2115711","0.0-6.0-10.2","47","<p><img class= 'stimulus' src='images/baseline/bird-flying-at-sunset.jpg'></img></p>","null","","1551454392260","","","","","","",""
"null","","html-keyboard-response","55","2115912","0.0-6.0-11.2","47","<p><img class= 'stimulus' src='images/baseline/03204v.jpg'></img></p>","null","","1551454392459","","","","","","",""
"null","","html-keyboard-response","56","2116111","0.0-6.0-12.2","47","<p><img class= 'stimulus' src='images/baseline/lake 2.jpg'></img></p>","null","","1551454392661","12","","","","","",""
"null","","html-keyboard-response","57","2116311","0.0-6.0-13.2","47","<p><img class= 'stimulus' src='images/baseline/pexels-photo-541101.jpeg'></img></p>","null","","1551454392860","","","","","","",""
"null","","html-keyboard-response","58","2116510","0.0-6.0-14.2","47","<p><img class= 'stimulus' src='images/baseline/pexels-photo-894312.jpeg'></img></p>","null","","1551454393061","14","","","","","",""
"null","","html-keyboard-response","59","2116711","0.0-6.0-15.2","47","<p><img class= 'stimulus' src='images/baseline/landscape37.jpg'></img></p>","null","","1551454393260","","","","","","",""
"null","","html-keyboard-response","60","2116911","0.0-6.0-16.2","47","<p><img class= 'stimulus' src='images/baseline/pexels-photo-750108.jpeg'></img></p>","null","","1551454393462","","","","","","",""
"null","","html-keyboard-response","61","2117128","0.0-6.0-17.2","47","<p><img class= 'stimulus' src='images/baseline/04040v.jpg'></img></p>","null","","1551454393661","","","","","","",""
"1226.5999999945052","","html-button-response","62","2119360","0.0-6.0-18.2","47","<div class = ""response_question"">WAS THE IMAGE ROTATED...</div>","","0","","","6","2","bas","left","practice","true"
"2142.4999999580905","","html-button-response","63","2121504","0.0-6.0-0.3","47","","","0","","","","","","","",""
"null","","html-keyboard-response","64","2121677","0.0-6.0-1.3","47","<p><img class= 'stimulus' src='images/baseline/05189v.jpg'></img></p>","null","","1551454398226","","","","","","",""
"null","","html-keyboard-response","65","2121877","0.0-6.0-2.3","47","<p><img class= 'stimulus' src='images/baseline/landscape4.jpg'></img></p>","null","","1551454398427","","","","","","",""
"null","","html-keyboard-response","66","2122078","0.0-6.0-3.3","47","<p><img class= 'stimulus' src='images/baseline/horse_statue.jpg'></img></p>","null","","1551454398627","","","","","","",""
"null","","html-keyboard-response","67","2122278","0.0-6.0-4.3","47","<p><img class= 'stimulus' src='images/baseline/valley 1.jpg'></img></p>","null","","1551454398827","4","","","","","",""
"null","","html-keyboard-response","68","2122478","0.0-6.0-5.3","47","<p><img class= 'stimulus' src='images/baseline/03066v.jpg'></img></p>","null","","1551454399027","","","","","","",""
"null","","html-keyboard-response","69","2122678","0.0-6.0-6.3","47","<p><img class= 'stimulus' src='images/baseline/Sunset 4.jpg'></img></p>","null","","1551454399227","6","","","","","",""
"null","","html-keyboard-response","70","2122879","0.0-6.0-7.3","47","<p><img class= 'stimulus' src='images/baseline/Kocherbaumwald-01.jpg'></img></p>","null","","1551454399427","","","","","","",""
"null","","html-keyboard-response","71","2123079","0.0-6.0-8.3","47","<p><img class= 'stimulus' src='images/target/1937-single-tree-at-the-top-of-stone-mountain-pv.jpg'></img></p>","null","","1551454399628","8","","","","","",""
"null","","html-keyboard-response","72","2123278","0.0-6.0-9.3","47","<p><img class= 'stimulus' src='images/baseline/05167v.jpg'></img></p>","null","","1551454399829","","","","","","",""
"null","","html-keyboard-response","73","2123479","0.0-6.0-10.3","47","<p><img class= 'stimulus' src='images/baseline/05247v.jpg'></img></p>","null","","1551454400028","","","","","","",""
"null","","html-keyboard-response","74","2123679","0.0-6.0-11.3","47","<p><img class= 'stimulus' src='images/baseline/landscape2.jpg'></img></p>","null","","1551454400227","","","","","","",""
"null","","html-keyboard-response","75","2123878","0.0-6.0-12.3","47","<p><img class= 'stimulus' src='images/baseline/Street 4.jpg'></img></p>","null","","1551454400428","12","","","","","",""
"null","","html-keyboard-response","76","2124077","0.0-6.0-13.3","47","<p><img class= 'stimulus' src='images/baseline/04010v.jpg'></img></p>","null","","1551454400628","","","","","","",""
"null","","html-keyboard-response","77","2124278","0.0-6.0-14.3","47","<p><img class= 'stimulus' src='images/baseline/house6.jpg'></img></p>","null","","1551454400826","14","","","","","",""
"null","","html-keyboard-response","78","2124478","0.0-6.0-15.3","47","<p><img class= 'stimulus' src='images/baseline/scenic-mountain-landscape.jpg'></img></p>","null","","1551454401027","","","","","","",""
"null","","html-keyboard-response","79","2124677","0.0-6.0-16.3","47","<p><img class= 'stimulus' src='images/baseline/farmhouse8.jpg'></img></p>","null","","1551454401227","","","","","","",""
"null","","html-keyboard-response","80","2124894","0.0-6.0-17.3","47","<p><img class= 'stimulus' src='images/baseline/river 1.jpg'></img></p>","null","","1551454401428","","","","","","",""
"2349.899999971967","","html-button-response","81","2128248","0.0-6.0-18.3","47","<div class = ""response_question"">WAS THE IMAGE ROTATED...</div>","","3","","","6","2","bas","right","practice","true"
"2062.5","","html-button-response","82","2130311","0.0-6.0-0.4","47","","","0","","","","","","","",""
"null","","html-keyboard-response","83","2130444","0.0-6.0-1.4","47","<p><img class= 'stimulus' src='images/baseline/Dock 1.jpg'></img></p>","null","","1551454407043","","","","","","",""
"null","","html-keyboard-response","84","2130593","0.0-6.0-2.4","47","<p><img class= 'stimulus' src='images/baseline/geese-flying-over-lake-at-dusk.jpg'></img></p>","null","","1551454407193","","","","","","",""
"null","","html-keyboard-response","85","2130744","0.0-6.0-3.4","47","<p><img class= 'stimulus' src='images/baseline/vintage-art-deco-storefront.jpg'></img></p>","null","","1551454407343","","","","","","",""
"null","","html-keyboard-response","86","2130893","0.0-6.0-4.4","47","<p><img class= 'stimulus' src='images/baseline/house2.jpg'></img></p>","null","","1551454407493","4","","","","","",""
"null","","html-keyboard-response","87","2131043","0.0-6.0-5.4","47","<p><img class= 'stimulus' src='images/baseline/04222v.jpg'></img></p>","null","","1551454407643","","","","","","",""
"null","","html-keyboard-response","88","2131193","0.0-6.0-6.4","47","<p><img class= 'stimulus' src='images/baseline/red-rocks-park.jpg'></img></p>","null","","1551454407792","6","","","","","",""
"null","","html-keyboard-response","89","2131343","0.0-6.0-7.4","47","<p><img class= 'stimulus' src='images/baseline/building8.jpg'></img></p>","null","","1551454407943","","","","","","",""
"null","","html-keyboard-response","90","2131495","0.0-6.0-8.4","47","<p><img class= 'stimulus' src='images/baseline/Sidewalk 4.jpg'></img></p>","null","","1551454408092","8","","","","","",""
"null","","html-keyboard-response","91","2131642","0.0-6.0-9.4","47","<p><img class= 'stimulus' src='images/baseline/pexels-photo-210617.jpeg'></img></p>","null","","1551454408242","","","","","","",""
"null","","html-keyboard-response","92","2131792","0.0-6.0-10.4","47","<p><img class= 'stimulus' src='images/baseline/farmhouse6.jpg'></img></p>","null","","1551454408394","","","","","","",""
"null","","html-keyboard-response","93","2131943","0.0-6.0-11.4","47","<p><img class= 'stimulus' src='images/baseline/red rocks from afar.jpg'></img></p>","null","","1551454408542","","","","","","",""
"null","","html-keyboard-response","94","2132092","0.0-6.0-12.4","47","<p><img class= 'stimulus left-rotate' src='images/target/buildin5.jpg'></img></p>","null","","1551454408692","12","","","","","",""
"null","","html-keyboard-response","95","2132243","0.0-6.0-13.4","47","<p><img class= 'stimulus' src='images/baseline/05131v.jpg'></img></p>","null","","1551454408842","","","","","","",""
"null","","html-keyboard-response","96","2132394","0.0-6.0-14.4","47","<p><img class= 'stimulus' src='images/baseline/Lake 4.jpg'></img></p>","null","","1551454408992","14","","","","","",""
"null","","html-keyboard-response","97","2132543","0.0-6.0-15.4","47","<p><img class= 'stimulus' src='images/baseline/landscape15.jpg'></img></p>","null","","1551454409142","","","","","","",""
"null","","html-keyboard-response","98","2132692","0.0-6.0-16.4","47","<p><img class= 'stimulus' src='images/baseline/farmhouse3.jpg'></img></p>","null","","1551454409293","","","","","","",""
"null","","html-keyboard-response","99","2132860","0.0-6.0-17.4","47","<p><img class= 'stimulus' src='images/baseline/empire-state-building.jpg'></img></p>","null","","1551454409444","","","","","","",""
"922.5999999907799","","html-button-response","100","2134792","0.0-6.0-18.4","47","<div class = ""response_question"">WAS THE IMAGE ROTATED...</div>","","0","","","4","8","bas","left","practice","true"
"822.2999999998137","","html-button-response","101","2135615","0.0-6.0-0.5","47","","","0","","","","","","","",""
"null","","html-keyboard-response","102","2135742","0.0-6.0-1.5","47","<p><img class= 'stimulus' src='images/baseline/Sunset 3.jpg'></img></p>","null","","1551454412342","","","","","","",""
"null","","html-keyboard-response","103","2135893","0.0-6.0-2.5","47","<p><img class= 'stimulus' src='images/baseline/Paysage_karabagh_02.jpg'></img></p>","null","","1551454412491","","","","","","",""
"null","","html-keyboard-response","104","2136043","0.0-6.0-3.5","47","<p><img class= 'stimulus' src='images/baseline/chicago-skyline-at-night-1476869511p8U.jpg'></img></p>","null","","1551454412643","","","","","","",""
"null","","html-keyboard-response","105","2136192","0.0-6.0-4.5","47","<p><img class= 'stimulus' src='images/baseline/Niinsaare_jarv.jpg'></img></p>","null","","1551454412792","4","","","","","",""
"null","","html-keyboard-response","106","2136343","0.0-6.0-5.5","47","<p><img class= 'stimulus' src='images/baseline/03162v.jpg'></img></p>","null","","1551454412943","","","","","","",""
"null","","html-keyboard-response","107","2136492","0.0-6.0-6.5","47","<p><img class= 'stimulus' src='images/baseline/02962v.jpg'></img></p>","null","","1551454413093","6","","","","","",""
"null","","html-keyboard-response","108","2136642","0.0-6.0-7.5","47","<p><img class= 'stimulus' src='images/baseline/landscape38.jpg'></img></p>","null","","1551454413244","","","","","","",""
"null","","html-keyboard-response","109","2136792","0.0-6.0-8.5","47","<p><img class= 'stimulus' src='images/baseline/pexels-photo-568236.jpeg'></img></p>","null","","1551454413392","8","","","","","",""
"null","","html-keyboard-response","110","2136942","0.0-6.0-9.5","47","<p><img class= 'stimulus' src='images/baseline/sun-through-winter-tree-branches1.jpg'></img></p>","null","","1551454413542","","","","","","",""
"null","","html-keyboard-response","111","2137093","0.0-6.0-10.5","47","<p><img class= 'stimulus' src='images/baseline/02945v.jpg'></img></p>","null","","1551454413692","","","","","","",""
"null","","html-keyboard-response","112","2137243","0.0-6.0-11.5","47","<p><img class= 'stimulus' src='images/baseline/sunset-over-the-lake.jpg'></img></p>","null","","1551454413842","","","","","","",""
"null","","html-keyboard-response","113","2137393","0.0-6.0-12.5","47","<p><img class= 'stimulus' src='images/baseline/99_-_Machu_Picchu_-_Juin_2009.edit3.jpg'></img></p>","null","","1551454413991","12","","","","","",""
"null","","html-keyboard-response","114","2137542","0.0-6.0-13.5","47","<p><img class= 'stimulus' src='images/baseline/Paysage_enneige_02.jpg'></img></p>","null","","1551454414142","","","","","","",""
"null","","html-keyboard-response","115","2137692","0.0-6.0-14.5","47","<p><img class= 'stimulus left-rotate' src='images/target/petronas-towers-433081_1920.jpg'></img></p>","null","","1551454414292","14","","","","","",""
"null","","html-keyboard-response","116","2137842","0.0-6.0-15.5","47","<p><img class= 'stimulus' src='images/baseline/hills 1.jpg'></img></p>","null","","1551454414442","","","","","","",""
"null","","html-keyboard-response","117","2137993","0.0-6.0-16.5","47","<p><img class= 'stimulus' src='images/baseline/Dirt 2.jpg'></img></p>","null","","1551454414592","","","","","","",""
"null","","html-keyboard-response","118","2138160","0.0-6.0-17.5","47","<p><img class= 'stimulus' src='images/baseline/04031v.jpg'></img></p>","null","","1551454414743","","","","","","",""
"684.6000000368804","","html-button-response","119","2139848","0.0-6.0-18.5","47","<div class = ""response_question"">WAS THE IMAGE ROTATED...</div>","","0","","","6","8","bas","left","practice","true"
"1046.5999999432825","","html-button-response","120","2140896","0.0-6.0-0.6","47","","","0","","","","","","","",""
"null","","html-keyboard-response","121","2141025","0.0-6.0-1.6","47","<p><img class= 'stimulus' src='images/baseline/04193v.jpg'></img></p>","null","","1551454417625","","","","","","",""
"null","","html-keyboard-response","122","2141175","0.0-6.0-2.6","47","<p><img class= 'stimulus' src='images/baseline/05179v.jpg'></img></p>","null","","1551454417774","","","","","","",""
"null","","html-keyboard-response","123","2141326","0.0-6.0-3.6","47","<p><img class= 'stimulus' src='images/baseline/field 3.jpg'></img></p>","null","","1551454417924","","","","","","",""
"null","","html-keyboard-response","124","2141476","0.0-6.0-4.6","47","<p><img class= 'stimulus' src='images/baseline/Sunset 5.jpg'></img></p>","null","","1551454418074","4","","","","","",""
"null","","html-keyboard-response","125","2141627","0.0-6.0-5.6","47","<p><img class= 'stimulus' src='images/baseline/03220v.jpg'></img></p>","null","","1551454418225","","","","","","",""
"null","","html-keyboard-response","126","2141776","0.0-6.0-6.6","47","<p><img class= 'stimulus' src='images/baseline/church-silhouette-8712964986014Kb.jpg'></img></p>","null","","1551454418375","6","","","","","",""
"null","","html-keyboard-response","127","2141926","0.0-6.0-7.6","47","<p><img class= 'stimulus' src='images/baseline/hiking-trail.jpg'></img></p>","null","","1551454418525","","","","","","",""
"null","","html-keyboard-response","128","2142076","0.0-6.0-8.6","47","<p><img class= 'stimulus' src='images/baseline/pexels-photo-1261728.jpeg'></img></p>","null","","1551454418675","8","","","","","",""
"null","","html-keyboard-response","129","2142225","0.0-6.0-9.6","47","<p><img class= 'stimulus' src='images/baseline/Beach 8.jpg'></img></p>","null","","1551454418826","","","","","","",""
"null","","html-keyboard-response","130","2142375","0.0-6.0-10.6","47","<p><img class= 'stimulus' src='images/baseline/04014v.jpg'></img></p>","null","","1551454418975","","","","","","",""
"null","","html-keyboard-response","131","2142526","0.0-6.0-11.6","47","<p><img class= 'stimulus' src='images/baseline/05255v.jpg'></img></p>","null","","1551454419125","","","","","","",""
"null","","html-keyboard-response","132","2142676","0.0-6.0-12.6","47","<p><img class= 'stimulus' src='images/baseline/04162v.jpg'></img></p>","null","","1551454419275","12","","","","","",""
"null","","html-keyboard-response","133","2142827","0.0-6.0-13.6","47","<p><img class= 'stimulus' src='images/baseline/landscape14.jpg'></img></p>","null","","1551454419425","","","","","","",""
"null","","html-keyboard-response","134","2142975","0.0-6.0-14.6","47","<p><img class= 'stimulus' src='images/target/coconut-3396945_640.jpg'></img></p>","null","","1551454419576","14","","","","","",""
"null","","html-keyboard-response","135","2143127","0.0-6.0-15.6","47","<p><img class= 'stimulus' src='images/baseline/town-square-in-wroclaw-1539098440MZy.jpg'></img></p>","null","","1551454419725","","","","","","",""
"null","","html-keyboard-response","136","2143275","0.0-6.0-16.6","47","<p><img class= 'stimulus' src='images/baseline/02971v.jpg'></img></p>","null","","1551454419876","","","","","","",""
"null","","html-keyboard-response","137","2143443","0.0-6.0-17.6","47","<p><img class= 'stimulus' src='images/baseline/04021v.jpg'></img></p>","null","","1551454420025","","","","","","",""
"657.500000030268","","html-button-response","138","2145104","0.0-6.0-18.6","47","<div class = ""response_question"">WAS THE IMAGE ROTATED...</div>","","3","","","6","8","bas","right","practice","true"
"1278.4000000101514","","html-button-response","139","2146383","0.0-6.0-0.7","47","","","0","","","","","","","",""
"null","","html-keyboard-response","140","2146510","0.0-6.0-1.7","47","<p><img class= 'stimulus' src='images/baseline/03180v.jpg'></img></p>","null","","1551454423109","","","","","","",""
"null","","html-keyboard-response","141","2146658","0.0-6.0-2.7","47","<p><img class= 'stimulus' src='images/baseline/Lake 15.jpg'></img></p>","null","","1551454423258","","","","","","",""
"null","","html-keyboard-response","142","2146810","0.0-6.0-3.7","47","<p><img class= 'stimulus' src='images/baseline/04158v.jpg'></img></p>","null","","1551454423409","","","","","","",""
"null","","html-keyboard-response","143","2146959","0.0-6.0-4.7","47","<p><img class= 'stimulus' src='images/baseline/Happy pose 3.jpg'></img></p>","null","","1551454423560","4","","","","","",""
"null","","html-keyboard-response","144","2147109","0.0-6.0-5.7","47","<p><img class= 'stimulus' src='images/baseline/03045v.jpg'></img></p>","null","","1551454423709","","","","","","",""
"null","","html-keyboard-response","145","2147259","0.0-6.0-6.7","47","<p><img class= 'stimulus' src='images/baseline/field 2.jpg'></img></p>","null","","1551454423858","6","","","","","",""
"null","","html-keyboard-response","146","2147410","0.0-6.0-7.7","47","<p><img class= 'stimulus' src='images/baseline/pexels-photo-351264.jpeg'></img></p>","null","","1551454424009","","","","","","",""
"null","","html-keyboard-response","147","2147559","0.0-6.0-8.7","47","<p><img class= 'stimulus' src='images/baseline/Lake 16.jpg'></img></p>","null","","1551454424158","8","","","","","",""
"null","","html-keyboard-response","148","2147709","0.0-6.0-9.7","47","<p><img class= 'stimulus' src='images/baseline/foreclosed_home.jpg'></img></p>","null","","1551454424308","","","","","","",""
"null","","html-keyboard-response","149","2147860","0.0-6.0-10.7","47","<p><img class= 'stimulus' src='images/baseline/03148v.jpg'></img></p>","null","","1551454424459","","","","","","",""
"null","","html-keyboard-response","150","2148010","0.0-6.0-11.7","47","<p><img class= 'stimulus' src='images/baseline/building12.jpg'></img></p>","null","","1551454424608","","","","","","",""
"null","","html-keyboard-response","151","2148159","0.0-6.0-12.7","47","<p><img class= 'stimulus' src='images/target/tree.jpeg'></img></p>","null","","1551454424759","12","","","","","",""
"null","","html-keyboard-response","152","2148309","0.0-6.0-13.7","47","<p><img class= 'stimulus' src='images/baseline/Beach 2.jpg'></img></p>","null","","1551454424908","","","","","","",""
"null","","html-keyboard-response","153","2148459","0.0-6.0-14.7","47","<p><img class= 'stimulus' src='images/baseline/landscape16.jpg'></img></p>","null","","1551454425060","14","","","","","",""
"null","","html-keyboard-response","154","2148610","0.0-6.0-15.7","47","<p><img class= 'stimulus' src='images/baseline/autumn-in-red-rocks-park.jpg'></img></p>","null","","1551454425209","","","","","","",""
"null","","html-keyboard-response","155","2148759","0.0-6.0-16.7","47","<p><img class= 'stimulus' src='images/baseline/Street 5.jpg'></img></p>","null","","1551454425358","","","","","","",""
"null","","html-keyboard-response","156","2148926","0.0-6.0-17.7","47","<p><img class= 'stimulus' src='images/baseline/03114v.jpg'></img></p>","null","","1551454425508","","","","","","",""
"1063.0000000237487","","html-button-response","157","2150991","0.0-6.0-18.7","47","<div class = ""response_question"">WAS THE IMAGE ROTATED...</div>","","3","","","4","8","bas","right","practice","true"
"1677.2999999811873","","html-button-response","158","2152671","0.0-6.0-0.8","47","","","0","","","","","","","",""
"null","","html-keyboard-response","159","2152759","0.0-6.0-1.8","47","<p><img class= 'stimulus' src='images/baseline/lookout_tower.jpg'></img></p>","null","","1551454429408","","","","","","",""
"null","","html-keyboard-response","160","2152860","0.0-6.0-2.8","47","<p><img class= 'stimulus' src='images/baseline/building4.jpg'></img></p>","null","","1551454429508","","","","","","",""
"null","","html-keyboard-response","161","2152959","0.0-6.0-3.8","47","<p><img class= 'stimulus' src='images/baseline/landscape31.jpg'></img></p>","null","","1551454429608","","","","","","",""
"null","","html-keyboard-response","162","2153059","0.0-6.0-4.8","47","<p><img class= 'stimulus' src='images/baseline/pexels-photo-1287089.jpeg'></img></p>","null","","1551454429709","4","","","","","",""
"null","","html-keyboard-response","163","2153159","0.0-6.0-5.8","47","<p><img class= 'stimulus' src='images/baseline/Bahia_Onelli_Parque_Nacional_Los_Glaciares_Patagonia_Argentina_Luca_Galuzzi_2005.jpg'></img></p>","null","","1551454429809","","","","","","",""
"null","","html-keyboard-response","164","2153259","0.0-6.0-6.8","47","<p><img class= 'stimulus' src='images/baseline/landscape17.jpg'></img></p>","null","","1551454429909","6","","","","","",""
"null","","html-keyboard-response","165","2153359","0.0-6.0-7.8","47","<p><img class= 'stimulus' src='images/baseline/pexels-photo-427676.jpeg'></img></p>","null","","1551454430008","","","","","","",""
"null","","html-keyboard-response","166","2153459","0.0-6.0-8.8","47","<p><img class= 'stimulus' src='images/baseline/landscape12.jpg'></img></p>","null","","1551454430109","8","","","","","",""
"null","","html-keyboard-response","167","2153559","0.0-6.0-9.8","47","<p><img class= 'stimulus' src='images/baseline/landscape3.jpg'></img></p>","null","","1551454430209","","","","","","",""
"null","","html-keyboard-response","168","2153659","0.0-6.0-10.8","47","<p><img class= 'stimulus' src='images/baseline/landscape8.jpg'></img></p>","null","","1551454430309","","","","","","",""
"null","","html-keyboard-response","169","2153759","0.0-6.0-11.8","47","<p><img class= 'stimulus' src='images/baseline/04117v.jpg'></img></p>","null","","1551454430408","","","","","","",""
"null","","html-keyboard-response","170","2153859","0.0-6.0-12.8","47","<p><img class= 'stimulus' src='images/baseline/Waterfall 1.jpg'></img></p>","null","","1551454430508","12","","","","","",""
"null","","html-keyboard-response","171","2153959","0.0-6.0-13.8","47","<p><img class= 'stimulus' src='images/baseline/landscape19.jpg'></img></p>","null","","1551454430608","","","","","","",""
"null","","html-keyboard-response","172","2154059","0.0-6.0-14.8","47","<p><img class= 'stimulus left-rotate' src='images/target/torrotito-375925_640.jpg'></img></p>","null","","1551454430708","14","","","","","",""
"null","","html-keyboard-response","173","2154159","0.0-6.0-15.8","47","<p><img class= 'stimulus' src='images/baseline/pexels-photo-414491.jpeg'></img></p>","null","","1551454430809","","","","","","",""
"null","","html-keyboard-response","174","2154260","0.0-6.0-16.8","47","<p><img class= 'stimulus' src='images/baseline/landscape1.jpg'></img></p>","null","","1551454430910","","","","","","",""
"null","","html-keyboard-response","175","2154377","0.0-6.0-17.8","47","<p><img class= 'stimulus' src='images/baseline/landscape13.jpg'></img></p>","null","","1551454431009","","","","","","",""
"611.7000000085682","","html-button-response","176","2155991","0.0-6.0-18.8","47","<div class = ""response_question"">WAS THE IMAGE ROTATED...</div>","","0","","","6","8","bas","left","practice","true"
"494.1999999573454","","html-button-response","177","2156487","0.0-6.0-0.9","47","","","0","","","","","","","",""
"null","","html-keyboard-response","178","2156559","0.0-6.0-1.9","47","<p><img class= 'stimulus' src='images/baseline/landscape22.jpg'></img></p>","null","","1551454433207","","","","","","",""
"null","","html-keyboard-response","179","2156659","0.0-6.0-2.9","47","<p><img class= 'stimulus' src='images/baseline/02977v.jpg'></img></p>","null","","1551454433308","","","","","","",""
"null","","html-keyboard-response","180","2156760","0.0-6.0-3.9","47","<p><img class= 'stimulus' src='images/baseline/sunny-landscape-with-dry-brush-and-mountain-background.jpg'></img></p>","null","","1551454433408","","","","","","",""
"null","","html-keyboard-response","181","2156858","0.0-6.0-4.9","47","<p><img class= 'stimulus' src='images/baseline/04196v.jpg'></img></p>","null","","1551454433508","4","","","","","",""
"null","","html-keyboard-response","182","2156958","0.0-6.0-5.9","47","<p><img class= 'stimulus' src='images/baseline/pexels-photo-1048039.jpeg'></img></p>","null","","1551454433609","","","","","","",""
"null","","html-keyboard-response","183","2157059","0.0-6.0-6.9","47","<p><img class= 'stimulus' src='images/baseline/meadow-with-mountain-in-background.jpg'></img></p>","null","","1551454433709","6","","","","","",""
"null","","html-keyboard-response","184","2157158","0.0-6.0-7.9","47","<p><img class= 'stimulus' src='images/baseline/02988v.jpg'></img></p>","null","","1551454433809","","","","","","",""
"null","","html-keyboard-response","185","2157258","0.0-6.0-8.9","47","<p><img class= 'stimulus left-rotate' src='images/target/tree-in-desert-landscape.jpg'></img></p>","null","","1551454433908","8","","","","","",""
"null","","html-keyboard-response","186","2157358","0.0-6.0-9.9","47","<p><img class= 'stimulus' src='images/baseline/pexels-photo-259280.jpeg'></img></p>","null","","1551454434008","","","","","","",""
"null","","html-keyboard-response","187","2157459","0.0-6.0-10.9","47","<p><img class= 'stimulus' src='images/baseline/05158v.jpg'></img></p>","null","","1551454434107","","","","","","",""
"null","","html-keyboard-response","188","2157559","0.0-6.0-11.9","47","<p><img class= 'stimulus' src='images/baseline/Street 1.jpg'></img></p>","null","","1551454434208","","","","","","",""
"null","","html-keyboard-response","189","2157659","0.0-6.0-12.9","47","<p><img class= 'stimulus' src='images/baseline/Linden,_paysage.jpg'></img></p>","null","","1551454434308","12","","","","","",""
"null","","html-keyboard-response","190","2157759","0.0-6.0-13.9","47","<p><img class= 'stimulus' src='images/baseline/seoul-410266_1920.jpg'></img></p>","null","","1551454434408","","","","","","",""
"null","","html-keyboard-response","191","2157859","0.0-6.0-14.9","47","<p><img class= 'stimulus' src='images/baseline/03056v.jpg'></img></p>","null","","1551454434508","14","","","","","",""
"null","","html-keyboard-response","192","2157960","0.0-6.0-15.9","47","<p><img class= 'stimulus' src='images/baseline/03041v.jpg'></img></p>","null","","1551454434608","","","","","","",""
"null","","html-keyboard-response","193","2158059","0.0-6.0-16.9","47","<p><img class= 'stimulus' src='images/baseline/lake 1.jpg'></img></p>","null","","1551454434708","","","","","","",""
"null","","html-keyboard-response","194","2158175","0.0-6.0-17.9","47","<p><img class= 'stimulus' src='images/baseline/building6.jpg'></img></p>","null","","1551454434809","","","","","","",""
"605.100000044331","","html-button-response","195","2159783","0.0-6.0-18.9","47","<div class = ""response_question"">WAS THE IMAGE ROTATED...</div>","","0","","","6","2","bas","left","practice","true"
"862.299999978859","","html-button-response","196","2160647","0.0-6.0-0.10","47","","","0","","","","","","","",""
"null","","html-keyboard-response","197","2160725","0.0-6.0-1.10","47","<p><img class= 'stimulus' src='images/baseline/lone-old-cottonwood-tree.jpg'></img></p>","null","","1551454437375","","","","","","",""
"null","","html-keyboard-response","198","2160826","0.0-6.0-2.10","47","<p><img class= 'stimulus' src='images/baseline/05264v.jpg'></img></p>","null","","1551454437475","","","","","","",""
"null","","html-keyboard-response","199","2160926","0.0-6.0-3.10","47","<p><img class= 'stimulus' src='images/baseline/Aletschgletscher-Eggishorn.jpg'></img></p>","null","","1551454437575","","","","","","",""
"null","","html-keyboard-response","200","2161025","0.0-6.0-4.10","47","<p><img class= 'stimulus' src='images/baseline/architecture-1314416_1920.jpg'></img></p>","null","","1551454437675","4","","","","","",""
"null","","html-keyboard-response","201","2161125","0.0-6.0-5.10","47","<p><img class= 'stimulus' src='images/baseline/Desert_View_Indian_Wells.jpg'></img></p>","null","","1551454437774","","","","","","",""
"null","","html-keyboard-response","202","2161226","0.0-6.0-6.10","47","<p><img class= 'stimulus' src='images/target/mexico_tower_latin_american.jpg'></img></p>","null","","1551454437874","6","","","","","",""
"null","","html-keyboard-response","203","2161325","0.0-6.0-7.10","47","<p><img class= 'stimulus' src='images/baseline/Grass 6.jpg'></img></p>","null","","1551454437974","","","","","","",""
"null","","html-keyboard-response","204","2161426","0.0-6.0-8.10","47","<p><img class= 'stimulus' src='images/baseline/03112v.jpg'></img></p>","null","","1551454438074","8","","","","","",""
"null","","html-keyboard-response","205","2161526","0.0-6.0-9.10","47","<p><img class= 'stimulus' src='images/baseline/05240v.jpg'></img></p>","null","","1551454438175","","","","","","",""
"null","","html-keyboard-response","206","2161626","0.0-6.0-10.10","47","<p><img class= 'stimulus' src='images/baseline/02982v.jpg'></img></p>","null","","1551454438276","","","","","","",""
"null","","html-keyboard-response","207","2161727","0.0-6.0-11.10","47","<p><img class= 'stimulus' src='images/baseline/03217v.jpg'></img></p>","null","","1551454438375","","","","","","",""
"null","","html-keyboard-response","208","2161825","0.0-6.0-12.10","47","<p><img class= 'stimulus' src='images/baseline/pexels-photo-1837621.jpeg'></img></p>","null","","1551454438475","12","","","","","",""
"null","","html-keyboard-response","209","2161926","0.0-6.0-13.10","47","<p><img class= 'stimulus' src='images/baseline/landscape6.jpg'></img></p>","null","","1551454438575","","","","","","",""
"null","","html-keyboard-response","210","2162026","0.0-6.0-14.10","47","<p><img class= 'stimulus' src='images/baseline/pexels-photo-808465.jpeg'></img></p>","null","","1551454438675","14","","","","","",""
"null","","html-keyboard-response","211","2162125","0.0-6.0-15.10","47","<p><img class= 'stimulus' src='images/baseline/kokkari-1523011968Xfr.jpg'></img></p>","null","","1551454438775","","","","","","",""
"null","","html-keyboard-response","212","2162226","0.0-6.0-16.10","47","<p><img class= 'stimulus' src='images/baseline/04300v.jpg'></img></p>","null","","1551454438875","","","","","","",""
"null","","html-keyboard-response","213","2162343","0.0-6.0-17.10","47","<p><img class= 'stimulus' src='images/baseline/05139v.jpg'></img></p>","null","","1551454438974","","","","","","",""
"678.0000000144355","","html-button-response","214","2164024","0.0-6.0-18.10","47","<div class = ""response_question"">WAS THE IMAGE ROTATED...</div>","","3","","","4","2","bas","right","practice","true"
"726.3999999850057","","html-button-response","215","2164751","0.0-6.0-0.11","47","","","0","","","","","","","",""
"null","","html-keyboard-response","216","2164827","0.0-6.0-1.11","47","<p><img class= 'stimulus' src='images/baseline/agriculture-bright-clouds-440731.jpg'></img></p>","null","","1551454441475","","","","","","",""
"null","","html-keyboard-response","217","2164925","0.0-6.0-2.11","47","<p><img class= 'stimulus' src='images/baseline/Street 3.jpg'></img></p>","null","","1551454441575","","","","","","",""
"null","","html-keyboard-response","218","2165025","0.0-6.0-3.11","47","<p><img class= 'stimulus' src='images/baseline/dirt-road-or-trail-through-park.jpg'></img></p>","null","","1551454441675","","","","","","",""
"null","","html-keyboard-response","219","2165125","0.0-6.0-4.11","47","<p><img class= 'stimulus' src='images/baseline/Road 1.jpg'></img></p>","null","","1551454441775","4","","","","","",""
"null","","html-keyboard-response","220","2165225","0.0-6.0-5.11","47","<p><img class= 'stimulus' src='images/baseline/04201v.jpg'></img></p>","null","","1551454441875","","","","","","",""
"null","","html-keyboard-response","221","2165326","0.0-6.0-6.11","47","<p><img class= 'stimulus' src='images/baseline/pexels-photo-59321.jpeg'></img></p>","null","","1551454441974","6","","","","","",""
"null","","html-keyboard-response","222","2165427","0.0-6.0-7.11","47","<p><img class= 'stimulus' src='images/baseline/Nature 1.jpg'></img></p>","null","","1551454442075","","","","","","",""
"null","","html-keyboard-response","223","2165526","0.0-6.0-8.11","47","<p><img class= 'stimulus' src='images/baseline/landscape36.jpg'></img></p>","null","","1551454442175","8","","","","","",""
"null","","html-keyboard-response","224","2165626","0.0-6.0-9.11","47","<p><img class= 'stimulus' src='images/baseline/landscape39.jpg'></img></p>","null","","1551454442275","","","","","","",""
"null","","html-keyboard-response","225","2165725","0.0-6.0-10.11","47","<p><img class= 'stimulus' src='images/baseline/house8.jpg'></img></p>","null","","1551454442376","","","","","","",""
"null","","html-keyboard-response","226","2165826","0.0-6.0-11.11","47","<p><img class= 'stimulus' src='images/baseline/Lake 5.jpg'></img></p>","null","","1551454442475","","","","","","",""
"null","","html-keyboard-response","227","2165927","0.0-6.0-12.11","47","<p><img class= 'stimulus' src='images/baseline/hills 4.jpg'></img></p>","null","","1551454442575","12","","","","","",""
"null","","html-keyboard-response","228","2166026","0.0-6.0-13.11","47","<p><img class= 'stimulus' src='images/baseline/flooded-bridge.jpg'></img></p>","null","","1551454442675","","","","","","",""
"null","","html-keyboard-response","229","2166125","0.0-6.0-14.11","47","<p><img class= 'stimulus' src='images/target/specphotops-563427-unsplash.jpg'></img></p>","null","","1551454442776","14","","","","","",""
"null","","html-keyboard-response","230","2166226","0.0-6.0-15.11","47","<p><img class= 'stimulus' src='images/baseline/Street 2.jpg'></img></p>","null","","1551454442874","","","","","","",""
"null","","html-keyboard-response","231","2166325","0.0-6.0-16.11","47","<p><img class= 'stimulus' src='images/baseline/05161v.jpg'></img></p>","null","","1551454442974","","","","","","",""
"null","","html-keyboard-response","232","2166443","0.0-6.0-17.11","47","<p><img class= 'stimulus' src='images/baseline/Lake 13.jpg'></img></p>","null","","1551454443075","","","","","","",""
"1542.0000000158325","","html-button-response","233","2168991","0.0-6.0-18.11","47","<div class = ""response_question"">WAS THE IMAGE ROTATED...</div>","","3","","","6","8","bas","right","practice","true"
"605.9999999706633","","html-button-response","234","2169599","0.0-6.0-0.12","47","","","0","","","","","","","",""
"null","","html-keyboard-response","235","2169676","0.0-6.0-1.12","47","<p><img class= 'stimulus' src='images/baseline/04284v.jpg'></img></p>","null","","1551454446326","","","","","","",""
"null","","html-keyboard-response","236","2169775","0.0-6.0-2.12","47","<p><img class= 'stimulus' src='images/baseline/03098v.jpg'></img></p>","null","","1551454446425","","","","","","",""
"null","","html-keyboard-response","237","2169876","0.0-6.0-3.12","47","<p><img class= 'stimulus' src='images/baseline/04179v.jpg'></img></p>","null","","1551454446526","","","","","","",""
"null","","html-keyboard-response","238","2169975","0.0-6.0-4.12","47","<p><img class= 'stimulus' src='images/baseline/landscape35.jpg'></img></p>","null","","1551454446626","4","","","","","",""
"null","","html-keyboard-response","239","2170075","0.0-6.0-5.12","47","<p><img class= 'stimulus' src='images/baseline/pexels-photo-280222.jpeg'></img></p>","null","","1551454446725","","","","","","",""
"null","","html-keyboard-response","240","2170175","0.0-6.0-6.12","47","<p><img class= 'stimulus' src='images/baseline/landscape23.jpg'></img></p>","null","","1551454446824","6","","","","","",""
"null","","html-keyboard-response","241","2170276","0.0-6.0-7.12","47","<p><img class= 'stimulus' src='images/baseline/Lake 8.jpg'></img></p>","null","","1551454446925","","","","","","",""
"null","","html-keyboard-response","242","2170377","0.0-6.0-8.12","47","<p><img class= 'stimulus' src='images/baseline/04085v.jpg'></img></p>","null","","1551454447024","8","","","","","",""
"null","","html-keyboard-response","243","2170476","0.0-6.0-9.12","47","<p><img class= 'stimulus' src='images/baseline/pexels-photo-440731.jpeg'></img></p>","null","","1551454447125","","","","","","",""
"null","","html-keyboard-response","244","2170576","0.0-6.0-10.12","47","<p><img class= 'stimulus' src='images/baseline/architecture_modern_architecture_852928.jpg'></img></p>","null","","1551454447225","","","","","","",""
"null","","html-keyboard-response","245","2170676","0.0-6.0-11.12","47","<p><img class= 'stimulus' src='images/baseline/pexels-photo-534164.jpeg'></img></p>","null","","1551454447325","","","","","","",""
"null","","html-keyboard-response","246","2170777","0.0-6.0-12.12","47","<p><img class= 'stimulus left-rotate' src='images/target/church-2306128_640.jpg'></img></p>","null","","1551454447425","12","","","","","",""
"null","","html-keyboard-response","247","2170876","0.0-6.0-13.12","47","<p><img class= 'stimulus' src='images/baseline/Lake 7.jpg'></img></p>","null","","1551454447525","","","","","","",""
"null","","html-keyboard-response","248","2170976","0.0-6.0-14.12","47","<p><img class= 'stimulus' src='images/baseline/landscape40.jpg'></img></p>","null","","1551454447626","14","","","","","",""
"null","","html-keyboard-response","249","2171076","0.0-6.0-15.12","47","<p><img class= 'stimulus' src='images/baseline/04064v.jpg'></img></p>","null","","1551454447725","","","","","","",""
"null","","html-keyboard-response","250","2171175","0.0-6.0-16.12","47","<p><img class= 'stimulus' src='images/baseline/05292v.jpg'></img></p>","null","","1551454447826","","","","","","",""
"null","","html-keyboard-response","251","2171292","0.0-6.0-17.12","47","<p><img class= 'stimulus' src='images/baseline/05280v.jpg'></img></p>","null","","1551454447924","","","","","","",""
"694.5999999879859","","html-button-response","252","2172991","0.0-6.0-18.12","47","<div class = ""response_question"">WAS THE IMAGE ROTATED...</div>","","0","","","4","8","bas","left","practice","true"
"582.2000000043772","","html-button-response","253","2173575","0.0-6.0-0.13","47","","","0","","","","","","","",""
"null","","html-keyboard-response","254","2173658","0.0-6.0-1.13","47","<p><img class= 'stimulus' src='images/baseline/Lake 14.jpg'></img></p>","null","","1551454450309","","","","","","",""
"null","","html-keyboard-response","255","2173759","0.0-6.0-2.13","47","<p><img class= 'stimulus' src='images/baseline/cranes 1.jpg'></img></p>","null","","1551454450409","","","","","","",""
"null","","html-keyboard-response","256","2173860","0.0-6.0-3.13","47","<p><img class= 'stimulus' src='images/baseline/trees 23.jpg'></img></p>","null","","1551454450508","","","","","","",""
"null","","html-keyboard-response","257","2173959","0.0-6.0-4.13","47","<p><img class= 'stimulus' src='images/baseline/05203v.jpg'></img></p>","null","","1551454450609","4","","","","","",""
"null","","html-keyboard-response","258","2174059","0.0-6.0-5.13","47","<p><img class= 'stimulus' src='images/baseline/Sailing 3.jpg'></img></p>","null","","1551454450709","","","","","","",""
"null","","html-keyboard-response","259","2174160","0.0-6.0-6.13","47","<p><img class= 'stimulus left-rotate' src='images/target/cactus2.jpg'></img></p>","null","","1551454450809","6","","","","","",""
"null","","html-keyboard-response","260","2174258","0.0-6.0-7.13","47","<p><img class= 'stimulus' src='images/baseline/Skijump 1.jpg'></img></p>","null","","1551454450909","","","","","","",""
"null","","html-keyboard-response","261","2174360","0.0-6.0-8.13","47","<p><img class= 'stimulus' src='images/baseline/03063v.jpg'></img></p>","null","","1551454451009","8","","","","","",""
"null","","html-keyboard-response","262","2174458","0.0-6.0-9.13","47","<p><img class= 'stimulus' src='images/baseline/02947v.jpg'></img></p>","null","","1551454451108","","","","","","",""
"null","","html-keyboard-response","263","2174559","0.0-6.0-10.13","47","<p><img class= 'stimulus' src='images/baseline/pexels-photo-459203.jpeg'></img></p>","null","","1551454451209","","","","","","",""
"null","","html-keyboard-response","264","2174659","0.0-6.0-11.13","47","<p><img class= 'stimulus' src='images/baseline/05252v.jpg'></img></p>","null","","1551454451308","","","","","","",""
"null","","html-keyboard-response","265","2174760","0.0-6.0-12.13","47","<p><img class= 'stimulus' src='images/baseline/farmhouse2.jpg'></img></p>","null","","1551454451409","12","","","","","",""
"null","","html-keyboard-response","266","2174859","0.0-6.0-13.13","47","<p><img class= 'stimulus' src='images/baseline/building2.jpg'></img></p>","null","","1551454451508","","","","","","",""
"null","","html-keyboard-response","267","2174959","0.0-6.0-14.13","47","<p><img class= 'stimulus' src='images/baseline/Nature 2.jpg'></img></p>","null","","1551454451609","14","","","","","",""
"null","","html-keyboard-response","268","2175059","0.0-6.0-15.13","47","<p><img class= 'stimulus' src='images/baseline/building_at_national_conservation.jpg'></img></p>","null","","1551454451708","","","","","","",""
"null","","html-keyboard-response","269","2175160","0.0-6.0-16.13","47","<p><img class= 'stimulus' src='images/baseline/Sky 1.jpg'></img></p>","null","","1551454451809","","","","","","",""
"null","","html-keyboard-response","270","2175276","0.0-6.0-17.13","47","<p><img class= 'stimulus' src='images/baseline/pexels-photo-1840893.jpeg'></img></p>","null","","1551454451909","","","","","","",""
"944.4999999832362","","html-button-response","271","2177223","0.0-6.0-18.13","47","<div class = ""response_question"">WAS THE IMAGE ROTATED...</div>","","1","","","4","2","bas","left","practice","true"
"726.3999999850057","","html-button-response","272","2177951","0.0-6.0-0.14","47","","","0","","","","","","","",""
"null","","html-keyboard-response","273","2178026","0.0-6.0-1.14","47","<p><img class= 'stimulus' src='images/baseline/04060v.jpg'></img></p>","null","","1551454454676","","","","","","",""
"null","","html-keyboard-response","274","2178127","0.0-6.0-2.14","47","<p><img class= 'stimulus' src='images/baseline/05279v.jpg'></img></p>","null","","1551454454776","","","","","","",""
"null","","html-keyboard-response","275","2178226","0.0-6.0-3.14","47","<p><img class= 'stimulus' src='images/baseline/building16.jpg'></img></p>","null","","1551454454876","","","","","","",""
"null","","html-keyboard-response","276","2178326","0.0-6.0-4.14","47","<p><img class= 'stimulus' src='images/baseline/04130v.jpg'></img></p>","null","","1551454454976","4","","","","","",""
"null","","html-keyboard-response","277","2178426","0.0-6.0-5.14","47","<p><img class= 'stimulus' src='images/baseline/Skyscraper 1.jpg'></img></p>","null","","1551454455075","","","","","","",""
"null","","html-keyboard-response","278","2178525","0.0-6.0-6.14","47","<p><img class= 'stimulus' src='images/baseline/Camping 10.jpg'></img></p>","null","","1551454455175","6","","","","","",""
"null","","html-keyboard-response","279","2178625","0.0-6.0-7.14","47","<p><img class= 'stimulus' src='images/baseline/pexels-photo-221125.jpeg'></img></p>","null","","1551454455277","","","","","","",""
"null","","html-keyboard-response","280","2178726","0.0-6.0-8.14","47","<p><img class= 'stimulus' src='images/baseline/02960v.jpg'></img></p>","null","","1551454455376","8","","","","","",""
"null","","html-keyboard-response","281","2178826","0.0-6.0-9.14","47","<p><img class= 'stimulus' src='images/baseline/road.jpg'></img></p>","null","","1551454455476","","","","","","",""
"null","","html-keyboard-response","282","2178926","0.0-6.0-10.14","47","<p><img class= 'stimulus' src='images/baseline/04063v.jpg'></img></p>","null","","1551454455576","","","","","","",""
"null","","html-keyboard-response","283","2179026","0.0-6.0-11.14","47","<p><img class= 'stimulus' src='images/baseline/lake3.jpg'></img></p>","null","","1551454455675","","","","","","",""
"null","","html-keyboard-response","284","2179126","0.0-6.0-12.14","47","<p><img class= 'stimulus' src='images/target/building2.jpg'></img></p>","null","","1551454455775","12","","","","","",""
"null","","html-keyboard-response","285","2179226","0.0-6.0-13.14","47","<p><img class= 'stimulus' src='images/baseline/04229v.jpg'></img></p>","null","","1551454455875","","","","","","",""
"null","","html-keyboard-response","286","2179326","0.0-6.0-14.14","47","<p><img class= 'stimulus' src='images/baseline/hills 3.jpg'></img></p>","null","","1551454455976","14","","","","","",""
"null","","html-keyboard-response","287","2179426","0.0-6.0-15.14","47","<p><img class= 'stimulus' src='images/baseline/Bridge 1.jpg'></img></p>","null","","1551454456075","","","","","","",""
"null","","html-keyboard-response","288","2179526","0.0-6.0-16.14","47","<p><img class= 'stimulus' src='images/baseline/landscape34.jpg'></img></p>","null","","1551454456175","","","","","","",""
"null","","html-keyboard-response","289","2179642","0.0-6.0-17.14","47","<p><img class= 'stimulus' src='images/baseline/Cold 7.jpg'></img></p>","null","","1551454456275","","","","","","",""
"729.2000000015832","","html-button-response","290","2181384","0.0-6.0-18.14","47","<div class = ""response_question"">WAS THE IMAGE ROTATED...</div>","","3","","","4","8","bas","right","practice","true"
"1662.099999957718","","html-button-response","291","2183047","0.0-6.0-0.15","47","","","0","","","","","","","",""
"null","","html-keyboard-response","292","2183126","0.0-6.0-1.15","47","<p><img class= 'stimulus' src='images/baseline/03212v.jpg'></img></p>","null","","1551454459776","","","","","","",""
"null","","html-keyboard-response","293","2183226","0.0-6.0-2.15","47","<p><img class= 'stimulus' src='images/baseline/farmhouse11.jpg'></img></p>","null","","1551454459875","","","","","","",""
"null","","html-keyboard-response","294","2183326","0.0-6.0-3.15","47","<p><img class= 'stimulus' src='images/baseline/tennis-court-net-buried-in-snow.jpg'></img></p>","null","","1551454459975","","","","","","",""
"null","","html-keyboard-response","295","2183426","0.0-6.0-4.15","47","<p><img class= 'stimulus' src='images/baseline/agriculture-cereal-clouds-175389.jpg'></img></p>","null","","1551454460076","4","","","","","",""
"null","","html-keyboard-response","296","2183526","0.0-6.0-5.15","47","<p><img class= 'stimulus' src='images/baseline/05303v.jpg'></img></p>","null","","1551454460175","","","","","","",""
"null","","html-keyboard-response","297","2183626","0.0-6.0-6.15","47","<p><img class= 'stimulus' src='images/baseline/building9.jpg'></img></p>","null","","1551454460276","6","","","","","",""
"null","","html-keyboard-response","298","2183726","0.0-6.0-7.15","47","<p><img class= 'stimulus' src='images/baseline/05186v.jpg'></img></p>","null","","1551454460376","","","","","","",""
"null","","html-keyboard-response","299","2183826","0.0-6.0-8.15","47","<p><img class= 'stimulus' src='images/target/Wild-West-South-West-Usa-Landscape-America-1663497.jpg'></img></p>","null","","1551454460475","8","","","","","",""
"null","","html-keyboard-response","300","2183926","0.0-6.0-9.15","47","<p><img class= 'stimulus' src='images/baseline/04086v.jpg'></img></p>","null","","1551454460575","","","","","","",""
"null","","html-keyboard-response","301","2184026","0.0-6.0-10.15","47","<p><img class= 'stimulus' src='images/baseline/Skyscraper 2.jpg'></img></p>","null","","1551454460674","","","","","","",""
"null","","html-keyboard-response","302","2184126","0.0-6.0-11.15","47","<p><img class= 'stimulus' src='images/baseline/architecture-956332_1280.jpg'></img></p>","null","","1551454460775","","","","","","",""
"null","","html-keyboard-response","303","2184226","0.0-6.0-12.15","47","<p><img class= 'stimulus' src='images/baseline/Peyto_Lake-Banff_NP-Canada.jpg'></img></p>","null","","1551454460874","12","","","","","",""
"null","","html-keyboard-response","304","2184326","0.0-6.0-13.15","47","<p><img class= 'stimulus' src='images/baseline/03201v.jpg'></img></p>","null","","1551454460975","","","","","","",""
"null","","html-keyboard-response","305","2184426","0.0-6.0-14.15","47","<p><img class= 'stimulus' src='images/baseline/sunset-over-the-lake.jpg'></img></p>","null","","1551454461075","14","","","","","",""
"null","","html-keyboard-response","306","2184525","0.0-6.0-15.15","47","<p><img class= 'stimulus' src='images/baseline/05145v.jpg'></img></p>","null","","1551454461177","","","","","","",""
"null","","html-keyboard-response","307","2184626","0.0-6.0-16.15","47","<p><img class= 'stimulus' src='images/baseline/05280v.jpg'></img></p>","null","","1551454461275","","","","","","",""
"null","","html-keyboard-response","308","2184743","0.0-6.0-17.15","47","<p><img class= 'stimulus' src='images/baseline/Nature 2.jpg'></img></p>","null","","1551454461375","","","","","","",""
"2419.099999999162","","html-button-response","309","2188167","0.0-6.0-18.15","47","<div class = ""response_question"">WAS THE IMAGE ROTATED...</div>","","3","","","6","2","bas","right","practice","true"
"39606.49999999441","","html-button-response","310","2227761","0.0-7.0","47","<p>You have now completed the practice phase. We will now begin the real trials.         This is a reminder that you will be searching for a rotated image among the series of upright images.</p>         <p>Remember, please do not blink or move your eyes while the images are on the screen.</p>         <p>At the end of the experiment, the experimenter will be able to show you how accurate you were.</p>","","0","","","","","","","",""
"1606.3999999896623","","html-button-response","311","2229369","0.0-8.0-0.0-0.0","47","","","0","","","","","","","",""
"null","","html-keyboard-response","312","2229447","0.0-8.0-0.0-1.0","47","<p><img class= 'stimulus' src='images/baseline/__08_-_ITALY_-_Forli_under_snow_-_winter_landscape_of_city_(christmas).jpg'></img></p>","null","","1551454506094","","","","","","",""
"null","","html-keyboard-response","313","2229545","0.0-8.0-0.0-2.0","47","<p><img class= 'stimulus' src='images/baseline/farmhouse2.jpg'></img></p>","null","","1551454506195","","","","","","",""
"null","","html-keyboard-response","314","2229646","0.0-8.0-0.0-3.0","47","<p><img class= 'stimulus' src='images/baseline/landscape34.jpg'></img></p>","null","","1551454506296","","","","","","",""
"null","","html-keyboard-response","315","2229745","0.0-8.0-0.0-4.0","47","<p><img class= 'stimulus' src='images/baseline/building3.jpg'></img></p>","null","","1551454506396","4","","","","","",""
"null","","html-keyboard-response","316","2229845","0.0-8.0-0.0-5.0","47","<p><img class= 'stimulus' src='images/baseline/03212v.jpg'></img></p>","null","","1551454506496","","","","","","",""
"null","","html-keyboard-response","317","2229946","0.0-8.0-0.0-6.0","47","<p><img class= 'stimulus' src='images/baseline/03162v.jpg'></img></p>","null","","1551454506594","6","","","","","",""
"null","","html-keyboard-response","318","2230046","0.0-8.0-0.0-7.0","47","<p><img class= 'stimulus' src='images/baseline/pexels-photo-808465.jpeg'></img></p>","null","","1551454506696","","","","","","",""
"null","","html-keyboard-response","319","2230145","0.0-8.0-0.0-8.0","47","<p><img class= 'stimulus' src='images/baseline/Lake 7.jpg'></img></p>","null","","1551454506796","8","","","","","",""
"null","","html-keyboard-response","320","2230246","0.0-8.0-0.0-9.0","47","<p><img class= 'stimulus' src='images/baseline/05179v.jpg'></img></p>","null","","1551454506895","","","","","","",""
"null","","html-keyboard-response","321","2230346","0.0-8.0-0.0-10.0","47","<p><img class= 'stimulus' src='images/baseline/Street 3.jpg'></img></p>","null","","1551454506996","","","","","","",""
"null","","html-keyboard-response","322","2230446","0.0-8.0-0.0-11.0","47","<p><img class= 'stimulus' src='images/baseline/Paysage_karabagh_02.jpg'></img></p>","null","","1551454507095","","","","","","",""
"null","","html-keyboard-response","323","2230546","0.0-8.0-0.0-12.0","47","<p><img class= 'stimulus' src='images/target/building3.jpg'></img></p>","null","","1551454507195","12","","","","","",""
"null","","html-keyboard-response","324","2230645","0.0-8.0-0.0-13.0","47","<p><img class= 'stimulus' src='images/baseline/Linden,_paysage.jpg'></img></p>","null","","1551454507295","","","","","","",""
"null","","html-keyboard-response","325","2230746","0.0-8.0-0.0-14.0","47","<p><img class= 'stimulus' src='images/baseline/farmhouse7.jpg'></img></p>","null","","1551454507396","14","","","","","",""
"null","","html-keyboard-response","326","2230845","0.0-8.0-0.0-15.0","47","<p><img class= 'stimulus' src='images/baseline/04040v.jpg'></img></p>","null","","1551454507495","","","","","","",""
"null","","html-keyboard-response","327","2230945","0.0-8.0-0.0-16.0","47","<p><img class= 'stimulus' src='images/baseline/Happy pose 3.jpg'></img></p>","null","","1551454507595","","","","","","",""
"null","","html-keyboard-response","328","2231062","0.0-8.0-0.0-17.0","47","<p><img class= 'stimulus' src='images/baseline/Skyscraper 2.jpg'></img></p>","null","","1551454507695","","","","","","",""
"695.3999999677762","","html-button-response","329","2232761","0.0-8.0-0.0-18.0","47","<div class = ""response_question"">WAS THE IMAGE ROTATED...</div>","","3","","","4","8","bas","right","test","true"
"805.9999999823049","","html-button-response","330","2233568","0.0-8.0-0.0-0.1","47","","","0","","","","","","","",""
"null","","html-keyboard-response","331","2233646","0.0-8.0-0.0-1.1","47","<p><img class= 'stimulus' src='images/baseline/05158v.jpg'></img></p>","null","","1551454510295","","","","","","",""
"null","","html-keyboard-response","332","2233746","0.0-8.0-0.0-2.1","47","<p><img class= 'stimulus' src='images/baseline/sun-through-winter-tree-branches1.jpg'></img></p>","null","","1551454510395","","","","","","",""
"null","","html-keyboard-response","333","2233846","0.0-8.0-0.0-3.1","47","<p><img class= 'stimulus' src='images/baseline/road.jpg'></img></p>","null","","1551454510495","","","","","","",""
"null","","html-keyboard-response","334","2233946","0.0-8.0-0.0-4.1","47","<p><img class= 'stimulus' src='images/baseline/building6.jpg'></img></p>","null","","1551454510595","4","","","","","",""
"null","","html-keyboard-response","335","2234045","0.0-8.0-0.0-5.1","47","<p><img class= 'stimulus' src='images/baseline/landscape6.jpg'></img></p>","null","","1551454510696","","","","","","",""
"null","","html-keyboard-response","336","2234145","0.0-8.0-0.0-6.1","47","<p><img class= 'stimulus' src='images/baseline/05255v.jpg'></img></p>","null","","1551454510796","6","","","","","",""
"null","","html-keyboard-response","337","2234245","0.0-8.0-0.0-7.1","47","<p><img class= 'stimulus' src='images/baseline/snowy tree.jpg'></img></p>","null","","1551454510896","","","","","","",""
"null","","html-keyboard-response","338","2234346","0.0-8.0-0.0-8.1","47","<p><img class= 'stimulus' src='images/target/lighthouse-843522_640.jpg'></img></p>","null","","1551454510995","8","","","","","",""
"null","","html-keyboard-response","339","2234446","0.0-8.0-0.0-9.1","47","<p><img class= 'stimulus' src='images/baseline/02982v.jpg'></img></p>","null","","1551454511095","","","","","","",""
"null","","html-keyboard-response","340","2234547","0.0-8.0-0.0-10.1","47","<p><img class= 'stimulus' src='images/baseline/03114v.jpg'></img></p>","null","","1551454511195","","","","","","",""
"null","","html-keyboard-response","341","2234646","0.0-8.0-0.0-11.1","47","<p><img class= 'stimulus' src='images/baseline/house11.jpg'></img></p>","null","","1551454511296","","","","","","",""
"null","","html-keyboard-response","342","2234746","0.0-8.0-0.0-12.1","47","<p><img class= 'stimulus' src='images/baseline/04064v.jpg'></img></p>","null","","1551454511396","12","","","","","",""
"null","","html-keyboard-response","343","2234846","0.0-8.0-0.0-13.1","47","<p><img class= 'stimulus' src='images/baseline/cranes 1.jpg'></img></p>","null","","1551454511495","","","","","","",""
"null","","html-keyboard-response","344","2234945","0.0-8.0-0.0-14.1","47","<p><img class= 'stimulus' src='images/baseline/landscape19.jpg'></img></p>","null","","1551454511595","14","","","","","",""
"null","","html-keyboard-response","345","2235046","0.0-8.0-0.0-15.1","47","<p><img class= 'stimulus' src='images/baseline/4k-wallpaper-agriculture-clouds-842711.jpg'></img></p>","null","","1551454511696","","","","","","",""
"null","","html-keyboard-response","346","2235145","0.0-8.0-0.0-16.1","47","<p><img class= 'stimulus' src='images/baseline/04085v.jpg'></img></p>","null","","1551454511796","","","","","","",""
"null","","html-keyboard-response","347","2235262","0.0-8.0-0.0-17.1","47","<p><img class= 'stimulus' src='images/baseline/landscape2.jpg'></img></p>","null","","1551454511895","","","","","","",""
"917.3999999766238","","html-button-response","348","2237185","0.0-8.0-0.0-18.1","47","<div class = ""response_question"">WAS THE IMAGE ROTATED...</div>","","4","","","6","2","bas","right","test","true"
"574.3999999831431","","html-button-response","349","2237760","0.0-8.0-0.0-0.2","47","","","0","","","","","","","",""
"null","","html-keyboard-response","350","2237845","0.0-8.0-0.0-1.2","47","<p><img class= 'stimulus' src='images/baseline/03063v.jpg'></img></p>","null","","1551454514495","","","","","","",""
"null","","html-keyboard-response","351","2237945","0.0-8.0-0.0-2.2","47","<p><img class= 'stimulus' src='images/baseline/03075v.jpg'></img></p>","null","","1551454514595","","","","","","",""
"null","","html-keyboard-response","352","2238046","0.0-8.0-0.0-3.2","47","<p><img class= 'stimulus' src='images/baseline/04201v.jpg'></img></p>","null","","1551454514695","","","","","","",""
"null","","html-keyboard-response","353","2238146","0.0-8.0-0.0-4.2","47","<p><img class= 'stimulus' src='images/baseline/landscape7.jpg'></img></p>","null","","1551454514795","4","","","","","",""
"null","","html-keyboard-response","354","2238245","0.0-8.0-0.0-5.2","47","<p><img class= 'stimulus' src='images/baseline/landscape14.jpg'></img></p>","null","","1551454514897","","","","","","",""
"null","","html-keyboard-response","355","2238346","0.0-8.0-0.0-6.2","47","<p><img class= 'stimulus left-rotate' src='images/target/Tree-Landscape-Winter-Nature-Winter-Trees-Snow-2117951.jpg'></img></p>","null","","1551454514995","6","","","","","",""
"null","","html-keyboard-response","356","2238446","0.0-8.0-0.0-7.2","47","<p><img class= 'stimulus' src='images/baseline/kokkari-1523011968Xfr.jpg'></img></p>","null","","1551454515095","","","","","","",""
"null","","html-keyboard-response","357","2238547","0.0-8.0-0.0-8.2","47","<p><img class= 'stimulus' src='images/baseline/farmhouse6.jpg'></img></p>","null","","1551454515196","8","","","","","",""
"null","","html-keyboard-response","358","2238645","0.0-8.0-0.0-9.2","47","<p><img class= 'stimulus' src='images/baseline/Lake 8.jpg'></img></p>","null","","1551454515295","","","","","","",""
"null","","html-keyboard-response","359","2238746","0.0-8.0-0.0-10.2","47","<p><img class= 'stimulus' src='images/baseline/building12.jpg'></img></p>","null","","1551454515396","","","","","","",""
"null","","html-keyboard-response","360","2238846","0.0-8.0-0.0-11.2","47","<p><img class= 'stimulus' src='images/baseline/pexels-photo-259280.jpeg'></img></p>","null","","1551454515495","","","","","","",""
"null","","html-keyboard-response","361","2238946","0.0-8.0-0.0-12.2","47","<p><img class= 'stimulus' src='images/baseline/scenic-mountain-landscape.jpg'></img></p>","null","","1551454515595","12","","","","","",""
"null","","html-keyboard-response","362","2239045","0.0-8.0-0.0-13.2","47","<p><img class= 'stimulus' src='images/baseline/landscape40.jpg'></img></p>","null","","1551454515696","","","","","","",""
"null","","html-keyboard-response","363","2239146","0.0-8.0-0.0-14.2","47","<p><img class= 'stimulus' src='images/baseline/farmhouse1.jpg'></img></p>","null","","1551454515795","14","","","","","",""
"null","","html-keyboard-response","364","2239245","0.0-8.0-0.0-15.2","47","<p><img class= 'stimulus' src='images/baseline/03201v.jpg'></img></p>","null","","1551454515896","","","","","","",""
"null","","html-keyboard-response","365","2239345","0.0-8.0-0.0-16.2","47","<p><img class= 'stimulus' src='images/baseline/Desert_View_Indian_Wells.jpg'></img></p>","null","","1551454515996","","","","","","",""
"null","","html-keyboard-response","366","2239463","0.0-8.0-0.0-17.2","47","<p><img class= 'stimulus' src='images/baseline/sunny-landscape-with-dry-brush-and-mountain-background.jpg'></img></p>","null","","1551454516094","","","","","","",""
"865.4000000096858","","html-button-response","367","2241337","0.0-8.0-0.0-18.2","47","<div class = ""response_question"">WAS THE IMAGE ROTATED...</div>","","0","","","4","2","bas","left","test","true"
"510.4999999748543","","html-button-response","368","2241849","0.0-8.0-0.0-0.3","47","","","0","","","","","","","",""
"null","","html-keyboard-response","369","2241929","0.0-8.0-0.0-1.3","47","<p><img class= 'stimulus' src='images/baseline/landscape33.jpg'></img></p>","null","","1551454518579","","","","","","",""
"null","","html-keyboard-response","370","2242029","0.0-8.0-0.0-2.3","47","<p><img class= 'stimulus' src='images/baseline/landscape16.jpg'></img></p>","null","","1551454518678","","","","","","",""
"null","","html-keyboard-response","371","2242129","0.0-8.0-0.0-3.3","47","<p><img class= 'stimulus' src='images/baseline/farmhouse11.jpg'></img></p>","null","","1551454518778","","","","","","",""
"null","","html-keyboard-response","372","2242229","0.0-8.0-0.0-4.3","47","<p><img class= 'stimulus' src='images/negative/Shot 3.jpg'></img></p>","null","","1551454518879","4","","","","","",""
"null","","html-keyboard-response","373","2242329","0.0-8.0-0.0-5.3","47","<p><img class= 'stimulus' src='images/baseline/03056v.jpg'></img></p>","null","","1551454518979","","","","","","",""
"null","","html-keyboard-response","374","2242428","0.0-8.0-0.0-6.3","47","<p><img class= 'stimulus' src='images/target/sand-3339890_640.jpg'></img></p>","null","","1551454519078","6","","","","","",""
"null","","html-keyboard-response","375","2242529","0.0-8.0-0.0-7.3","47","<p><img class= 'stimulus' src='images/baseline/building9.jpg'></img></p>","null","","1551454519179","","","","","","",""
"null","","html-keyboard-response","376","2242630","0.0-8.0-0.0-8.3","47","<p><img class= 'stimulus' src='images/baseline/04014v.jpg'></img></p>","null","","1551454519279","8","","","","","",""
"null","","html-keyboard-response","377","2242729","0.0-8.0-0.0-9.3","47","<p><img class= 'stimulus' src='images/baseline/house3.jpg'></img></p>","null","","1551454519380","","","","","","",""
"null","","html-keyboard-response","378","2242829","0.0-8.0-0.0-10.3","47","<p><img class= 'stimulus' src='images/baseline/building5.jpg'></img></p>","null","","1551454519478","","","","","","",""
"null","","html-keyboard-response","379","2242929","0.0-8.0-0.0-11.3","47","<p><img class= 'stimulus' src='images/baseline/Beach 8.jpg'></img></p>","null","","1551454519579","","","","","","",""
"null","","html-keyboard-response","380","2243029","0.0-8.0-0.0-12.3","47","<p><img class= 'stimulus' src='images/baseline/building2.jpg'></img></p>","null","","1551454519678","12","","","","","",""
"null","","html-keyboard-response","381","2243129","0.0-8.0-0.0-13.3","47","<p><img class= 'stimulus' src='images/baseline/chicago-skyline-at-night-1476869511p8U.jpg'></img></p>","null","","1551454519779","","","","","","",""
"null","","html-keyboard-response","382","2243229","0.0-8.0-0.0-14.3","47","<p><img class= 'stimulus' src='images/baseline/hiking-trail.jpg'></img></p>","null","","1551454519879","14","","","","","",""
"null","","html-keyboard-response","383","2243329","0.0-8.0-0.0-15.3","47","<p><img class= 'stimulus' src='images/baseline/Street 2.jpg'></img></p>","null","","1551454519978","","","","","","",""
"null","","html-keyboard-response","384","2243429","0.0-8.0-0.0-16.3","47","<p><img class= 'stimulus' src='images/baseline/04060v.jpg'></img></p>","null","","1551454520079","","","","","","",""
"null","","html-keyboard-response","385","2243546","0.0-8.0-0.0-17.3","47","<p><img class= 'stimulus' src='images/baseline/landscape23.jpg'></img></p>","null","","1551454520179","","","","","","",""
"1651.7999999923632","","html-button-response","386","2246201","0.0-8.0-0.0-18.3","47","<div class = ""response_question"">WAS THE IMAGE ROTATED...</div>","","1","","","4","2","neg","right","test","false"
"718.5000000172295","","html-button-response","387","2246921","0.0-8.0-0.0-0.4","47","","","0","","","","","","","",""
"null","","html-keyboard-response","388","2246996","0.0-8.0-0.0-1.4","47","<p><img class= 'stimulus' src='images/baseline/lake3.jpg'></img></p>","null","","1551454523644","","","","","","",""
"null","","html-keyboard-response","389","2247096","0.0-8.0-0.0-2.4","47","<p><img class= 'stimulus' src='images/baseline/05167v.jpg'></img></p>","null","","1551454523745","","","","","","",""
"null","","html-keyboard-response","390","2247196","0.0-8.0-0.0-3.4","47","<p><img class= 'stimulus' src='images/baseline/building_at_national_conservation.jpg'></img></p>","null","","1551454523845","","","","","","",""
"null","","html-keyboard-response","391","2247296","0.0-8.0-0.0-4.4","47","<p><img class= 'stimulus' src='images/baseline/04117v.jpg'></img></p>","null","","1551454523946","4","","","","","",""
"null","","html-keyboard-response","392","2247396","0.0-8.0-0.0-5.4","47","<p><img class= 'stimulus' src='images/baseline/03148v.jpg'></img></p>","null","","1551454524046","","","","","","",""
"null","","html-keyboard-response","393","2247495","0.0-8.0-0.0-6.4","47","<p><img class= 'stimulus' src='images/baseline/hills 4.jpg'></img></p>","null","","1551454524145","6","","","","","",""
"null","","html-keyboard-response","394","2247595","0.0-8.0-0.0-7.4","47","<p><img class= 'stimulus' src='images/baseline/Peyto_Lake-Banff_NP-Canada.jpg'></img></p>","null","","1551454524246","","","","","","",""
"null","","html-keyboard-response","395","2247695","0.0-8.0-0.0-8.4","47","<p><img class= 'stimulus' src='images/baseline/agriculture-cereal-clouds-175389.jpg'></img></p>","null","","1551454524344","8","","","","","",""
"null","","html-keyboard-response","396","2247795","0.0-8.0-0.0-9.4","47","<p><img class= 'stimulus' src='images/baseline/Dock 1.jpg'></img></p>","null","","1551454524446","","","","","","",""
"null","","html-keyboard-response","397","2247896","0.0-8.0-0.0-10.4","47","<p><img class= 'stimulus' src='images/baseline/pexels-photo-1837621.jpeg'></img></p>","null","","1551454524545","","","","","","",""
"null","","html-keyboard-response","398","2247996","0.0-8.0-0.0-11.4","47","<p><img class= 'stimulus' src='images/baseline/Sidewalk 4.jpg'></img></p>","null","","1551454524645","","","","","","",""
"null","","html-keyboard-response","399","2248095","0.0-8.0-0.0-12.4","47","<p><img class= 'stimulus left-rotate' src='images/target/landscape20.jpg'></img></p>","null","","1551454524745","12","","","","","",""
"null","","html-keyboard-response","400","2248195","0.0-8.0-0.0-13.4","47","<p><img class= 'stimulus' src='images/baseline/Skijump 1.jpg'></img></p>","null","","1551454524846","","","","","","",""
"null","","html-keyboard-response","401","2248296","0.0-8.0-0.0-14.4","47","<p><img class= 'stimulus' src='images/baseline/landscape4.jpg'></img></p>","null","","1551454524946","14","","","","","",""
"null","","html-keyboard-response","402","2248395","0.0-8.0-0.0-15.4","47","<p><img class= 'stimulus' src='images/baseline/pexels-photo-210617.jpeg'></img></p>","null","","1551454525045","","","","","","",""
"null","","html-keyboard-response","403","2248496","0.0-8.0-0.0-16.4","47","<p><img class= 'stimulus' src='images/baseline/Lake 14.jpg'></img></p>","null","","1551454525145","","","","","","",""
"null","","html-keyboard-response","404","2248612","0.0-8.0-0.0-17.4","47","<p><img class= 'stimulus' src='images/baseline/landscape31.jpg'></img></p>","null","","1551454525246","","","","","","",""
"1184.000000008382","","html-button-response","405","2250801","0.0-8.0-0.0-18.4","47","<div class = ""response_question"">WAS THE IMAGE ROTATED...</div>","","0","","","4","8","bas","left","test","true"
"830.5000000400469","","html-button-response","406","2251632","0.0-8.0-0.0-0.5","47","","","0","","","","","","","",""
"null","","html-keyboard-response","407","2251713","0.0-8.0-0.0-1.5","47","<p><img class= 'stimulus' src='images/baseline/seoul-410266_1920.jpg'></img></p>","null","","1551454528362","","","","","","",""
"null","","html-keyboard-response","408","2251812","0.0-8.0-0.0-2.5","47","<p><img class= 'stimulus' src='images/baseline/house1.jpg'></img></p>","null","","1551454528463","","","","","","",""
"null","","html-keyboard-response","409","2251912","0.0-8.0-0.0-3.5","47","<p><img class= 'stimulus' src='images/baseline/03220v.jpg'></img></p>","null","","1551454528562","","","","","","",""
"null","","html-keyboard-response","410","2252013","0.0-8.0-0.0-4.5","47","<p><img class= 'stimulus' src='images/baseline/vintage-art-deco-storefront.jpg'></img></p>","null","","1551454528662","4","","","","","",""
"null","","html-keyboard-response","411","2252113","0.0-8.0-0.0-5.5","47","<p><img class= 'stimulus' src='images/baseline/pexels-photo-750108.jpeg'></img></p>","null","","1551454528762","","","","","","",""
"null","","html-keyboard-response","412","2252212","0.0-8.0-0.0-6.5","47","<p><img class= 'stimulus' src='images/baseline/pexels-photo-541101.jpeg'></img></p>","null","","1551454528862","6","","","","","",""
"null","","html-keyboard-response","413","2252312","0.0-8.0-0.0-7.5","47","<p><img class= 'stimulus' src='images/baseline/05279v.jpg'></img></p>","null","","1551454528962","","","","","","",""
"null","","html-keyboard-response","414","2252412","0.0-8.0-0.0-8.5","47","<p><img class= 'stimulus left-rotate' src='images/target/mitre peak.jpg'></img></p>","null","","1551454529062","8","","","","","",""
"null","","html-keyboard-response","415","2252514","0.0-8.0-0.0-9.5","47","<p><img class= 'stimulus' src='images/baseline/landscape22.jpg'></img></p>","null","","1551454529162","","","","","","",""
"null","","html-keyboard-response","416","2252613","0.0-8.0-0.0-10.5","47","<p><img class= 'stimulus' src='images/baseline/02977v.jpg'></img></p>","null","","1551454529262","","","","","","",""
"null","","html-keyboard-response","417","2252712","0.0-8.0-0.0-11.5","47","<p><img class= 'stimulus' src='images/baseline/pexels-photo-427676.jpeg'></img></p>","null","","1551454529362","","","","","","",""
"null","","html-keyboard-response","418","2252813","0.0-8.0-0.0-12.5","47","<p><img class= 'stimulus' src='images/baseline/field 2.jpg'></img></p>","null","","1551454529462","12","","","","","",""
"null","","html-keyboard-response","419","2252912","0.0-8.0-0.0-13.5","47","<p><img class= 'stimulus' src='images/baseline/farmhouse4.jpg'></img></p>","null","","1551454529562","","","","","","",""
"null","","html-keyboard-response","420","2253013","0.0-8.0-0.0-14.5","47","<p><img class= 'stimulus' src='images/baseline/04300v.jpg'></img></p>","null","","1551454529663","14","","","","","",""
"null","","html-keyboard-response","421","2253112","0.0-8.0-0.0-15.5","47","<p><img class= 'stimulus' src='images/baseline/pexels-photo-59321.jpeg'></img></p>","null","","1551454529761","","","","","","",""
"null","","html-keyboard-response","422","2253212","0.0-8.0-0.0-16.5","47","<p><img class= 'stimulus' src='images/baseline/pexels-photo-568236.jpeg'></img></p>","null","","1551454529861","","","","","","",""
"null","","html-keyboard-response","423","2253329","0.0-8.0-0.0-17.5","47","<p><img class= 'stimulus' src='images/baseline/house7.jpg'></img></p>","null","","1551454529962","","","","","","",""
"1003.1999999773689","","html-button-response","424","2255336","0.0-8.0-0.0-18.5","47","<div class = ""response_question"">WAS THE IMAGE ROTATED...</div>","","1","","","6","2","bas","left","test","true"
"606.1999999801628","","html-button-response","425","2255945","0.0-8.0-0.0-0.6","47","","","0","","","","","","","",""
"null","","html-keyboard-response","426","2256029","0.0-8.0-0.0-1.6","47","<p><img class= 'stimulus' src='images/baseline/04222v.jpg'></img></p>","null","","1551454532679","","","","","","",""
"null","","html-keyboard-response","427","2256129","0.0-8.0-0.0-2.6","47","<p><img class= 'stimulus' src='images/baseline/Waterfall 1.jpg'></img></p>","null","","1551454532778","","","","","","",""
"null","","html-keyboard-response","428","2256229","0.0-8.0-0.0-3.6","47","<p><img class= 'stimulus' src='images/baseline/dirt-road-or-trail-through-park.jpg'></img></p>","null","","1551454532879","","","","","","",""
"null","","html-keyboard-response","429","2256330","0.0-8.0-0.0-4.6","47","<p><img class= 'stimulus' src='images/baseline/geese-flying-over-lake-at-dusk.jpg'></img></p>","null","","1551454532978","4","","","","","",""
"null","","html-keyboard-response","430","2256430","0.0-8.0-0.0-5.6","47","<p><img class= 'stimulus' src='images/baseline/pexels-photo-1261728.jpeg'></img></p>","null","","1551454533078","","","","","","",""
"null","","html-keyboard-response","431","2256529","0.0-8.0-0.0-6.6","47","<p><img class= 'stimulus' src='images/target/fishhouse.jpg'></img></p>","null","","1551454533178","6","","","","","",""
"null","","html-keyboard-response","432","2256630","0.0-8.0-0.0-7.6","47","<p><img class= 'stimulus' src='images/baseline/flooded-bridge.jpg'></img></p>","null","","1551454533279","","","","","","",""
"null","","html-keyboard-response","433","2256729","0.0-8.0-0.0-8.6","47","<p><img class= 'stimulus' src='images/baseline/02947v.jpg'></img></p>","null","","1551454533379","8","","","","","",""
"null","","html-keyboard-response","434","2256829","0.0-8.0-0.0-9.6","47","<p><img class= 'stimulus' src='images/baseline/04284v.jpg'></img></p>","null","","1551454533479","","","","","","",""
"null","","html-keyboard-response","435","2256930","0.0-8.0-0.0-10.6","47","<p><img class= 'stimulus' src='images/baseline/architecture-1314416_1920.jpg'></img></p>","null","","1551454533579","","","","","","",""
"null","","html-keyboard-response","436","2257029","0.0-8.0-0.0-11.6","47","<p><img class= 'stimulus' src='images/baseline/05139v.jpg'></img></p>","null","","1551454533679","","","","","","",""
"null","","html-keyboard-response","437","2257129","0.0-8.0-0.0-12.6","47","<p><img class= 'stimulus' src='images/baseline/05189v.jpg'></img></p>","null","","1551454533779","12","","","","","",""
"null","","html-keyboard-response","438","2257229","0.0-8.0-0.0-13.6","47","<p><img class= 'stimulus' src='images/baseline/Freudenberg_sg_Switzerland.jpg'></img></p>","null","","1551454533878","","","","","","",""
"null","","html-keyboard-response","439","2257329","0.0-8.0-0.0-14.6","47","<p><img class= 'stimulus' src='images/baseline/Lake 13.jpg'></img></p>","null","","1551454533978","14","","","","","",""
"null","","html-keyboard-response","440","2257429","0.0-8.0-0.0-15.6","47","<p><img class= 'stimulus' src='images/baseline/03180v.jpg'></img></p>","null","","1551454534080","","","","","","",""
"null","","html-keyboard-response","441","2257529","0.0-8.0-0.0-16.6","47","<p><img class= 'stimulus' src='images/baseline/Street 4.jpg'></img></p>","null","","1551454534179","","","","","","",""
"null","","html-keyboard-response","442","2257646","0.0-8.0-0.0-17.6","47","<p><img class= 'stimulus' src='images/baseline/02971v.jpg'></img></p>","null","","1551454534280","","","","","","",""
"884.7999999998137","","html-button-response","443","2259537","0.0-8.0-0.0-18.6","47","<div class = ""response_question"">WAS THE IMAGE ROTATED...</div>","","3","","","4","2","bas","right","test","true"
"3341.599999985192","","html-button-response","444","2262880","0.0-8.0-0.0-0.7","47","","","0","","","","","","","",""
"null","","html-keyboard-response","445","2262963","0.0-8.0-0.0-1.7","47","<p><img class= 'stimulus' src='images/baseline/05303v.jpg'></img></p>","null","","1551454539613","","","","","","",""
"null","","html-keyboard-response","446","2263062","0.0-8.0-0.0-2.7","47","<p><img class= 'stimulus' src='images/baseline/Bahia_Onelli_Parque_Nacional_Los_Glaciares_Patagonia_Argentina_Luca_Galuzzi_2005.jpg'></img></p>","null","","1551454539712","","","","","","",""
"null","","html-keyboard-response","447","2263163","0.0-8.0-0.0-3.7","47","<p><img class= 'stimulus' src='images/baseline/field 1.jpg'></img></p>","null","","1551454539813","","","","","","",""
"null","","html-keyboard-response","448","2263262","0.0-8.0-0.0-4.7","47","<p><img class= 'stimulus' src='images/baseline/pexels-photo-534164.jpeg'></img></p>","null","","1551454539913","4","","","","","",""
"null","","html-keyboard-response","449","2263363","0.0-8.0-0.0-5.7","47","<p><img class= 'stimulus' src='images/baseline/Kocherbaumwald-01.jpg'></img></p>","null","","1551454540012","","","","","","",""
"null","","html-keyboard-response","450","2263462","0.0-8.0-0.0-6.7","47","<p><img class= 'stimulus' src='images/neutral/Lamb 1.jpg'></img></p>","null","","1551454540111","6","","","","","",""
"null","","html-keyboard-response","451","2263562","0.0-8.0-0.0-7.7","47","<p><img class= 'stimulus' src='images/baseline/pexels-photo-1287089.jpeg'></img></p>","null","","1551454540211","","","","","","",""
"null","","html-keyboard-response","452","2263662","0.0-8.0-0.0-8.7","47","<p><img class= 'stimulus left-rotate' src='images/target/lone-tree.png'></img></p>","null","","1551454540313","8","","","","","",""
"null","","html-keyboard-response","453","2263763","0.0-8.0-0.0-9.7","47","<p><img class= 'stimulus' src='images/baseline/pexels-photo-440731.jpeg'></img></p>","null","","1551454540412","","","","","","",""
"null","","html-keyboard-response","454","2263863","0.0-8.0-0.0-10.7","47","<p><img class= 'stimulus' src='images/baseline/building16.jpg'></img></p>","null","","1551454540512","","","","","","",""
"null","","html-keyboard-response","455","2263962","0.0-8.0-0.0-11.7","47","<p><img class= 'stimulus' src='images/baseline/house6.jpg'></img></p>","null","","1551454540611","","","","","","",""
"null","","html-keyboard-response","456","2264063","0.0-8.0-0.0-12.7","47","<p><img class= 'stimulus' src='images/baseline/Lake 5.jpg'></img></p>","null","","1551454540712","12","","","","","",""
"null","","html-keyboard-response","457","2264162","0.0-8.0-0.0-13.7","47","<p><img class= 'stimulus' src='images/baseline/pexels-photo-414491.jpeg'></img></p>","null","","1551454540812","","","","","","",""
"null","","html-keyboard-response","458","2264263","0.0-8.0-0.0-14.7","47","<p><img class= 'stimulus' src='images/baseline/Bridge 1.jpg'></img></p>","null","","1551454540912","14","","","","","",""
"null","","html-keyboard-response","459","2264363","0.0-8.0-0.0-15.7","47","<p><img class= 'stimulus' src='images/baseline/05161v.jpg'></img></p>","null","","1551454541012","","","","","","",""
"null","","html-keyboard-response","460","2264463","0.0-8.0-0.0-16.7","47","<p><img class= 'stimulus' src='images/baseline/04130v.jpg'></img></p>","null","","1551454541112","","","","","","",""
"null","","html-keyboard-response","461","2264580","0.0-8.0-0.0-17.7","47","<p><img class= 'stimulus' src='images/baseline/grand-teton-mountains.jpg'></img></p>","null","","1551454541212","","","","","","",""
"1088.9000000315718","","html-button-response","462","2266673","0.0-8.0-0.0-18.7","47","<div class = ""response_question"">WAS THE IMAGE ROTATED...</div>","","0","","","6","2","neu","left","test","true"
"750.1999999512918","","html-button-response","463","2267425","0.0-8.0-0.0-0.8","47","","","0","","","","","","","",""
"null","","html-keyboard-response","464","2267497","0.0-8.0-0.0-1.8","47","<p><img class= 'stimulus' src='images/baseline/05247v.jpg'></img></p>","null","","1551454544146","","","","","","",""
"null","","html-keyboard-response","465","2267596","0.0-8.0-0.0-2.8","47","<p><img class= 'stimulus' src='images/baseline/lone-old-cottonwood-tree.jpg'></img></p>","null","","1551454544246","","","","","","",""
"null","","html-keyboard-response","466","2267696","0.0-8.0-0.0-3.8","47","<p><img class= 'stimulus' src='images/baseline/road 1(1).jpg'></img></p>","null","","1551454544346","","","","","","",""
"null","","html-keyboard-response","467","2267796","0.0-8.0-0.0-4.8","47","<p><img class= 'stimulus' src='images/negative/Dummy 1.jpg'></img></p>","null","","1551454544446","4","","","","","",""
"null","","html-keyboard-response","468","2267896","0.0-8.0-0.0-5.8","47","<p><img class= 'stimulus' src='images/baseline/02945v.jpg'></img></p>","null","","1551454544545","","","","","","",""
"null","","html-keyboard-response","469","2267996","0.0-8.0-0.0-6.8","47","<p><img class= 'stimulus left-rotate' src='images/target/landscape1.jpg'></img></p>","null","","1551454544647","6","","","","","",""
"null","","html-keyboard-response","470","2268096","0.0-8.0-0.0-7.8","47","<p><img class= 'stimulus' src='images/baseline/meadow-with-mountain-in-background.jpg'></img></p>","null","","1551454544746","","","","","","",""
"null","","html-keyboard-response","471","2268196","0.0-8.0-0.0-8.8","47","<p><img class= 'stimulus' src='images/baseline/horse_statue.jpg'></img></p>","null","","1551454544845","8","","","","","",""
"null","","html-keyboard-response","472","2268295","0.0-8.0-0.0-9.8","47","<p><img class= 'stimulus' src='images/baseline/red-rocks-park.jpg'></img></p>","null","","1551454544946","","","","","","",""
"null","","html-keyboard-response","473","2268396","0.0-8.0-0.0-10.8","47","<p><img class= 'stimulus' src='images/baseline/pexels-photo-221125.jpeg'></img></p>","null","","1551454545045","","","","","","",""
"null","","html-keyboard-response","474","2268496","0.0-8.0-0.0-11.8","47","<p><img class= 'stimulus' src='images/baseline/landscape11.jpg'></img></p>","null","","1551454545145","","","","","","",""
"null","","html-keyboard-response","475","2268596","0.0-8.0-0.0-12.8","47","<p><img class= 'stimulus' src='images/baseline/cyrillic.jpg'></img></p>","null","","1551454545246","12","","","","","",""
"null","","html-keyboard-response","476","2268696","0.0-8.0-0.0-13.8","47","<p><img class= 'stimulus' src='images/baseline/lake 2.jpg'></img></p>","null","","1551454545345","","","","","","",""
"null","","html-keyboard-response","477","2268797","0.0-8.0-0.0-14.8","47","<p><img class= 'stimulus' src='images/baseline/pexels-photo-1054289.jpeg'></img></p>","null","","1551454545446","14","","","","","",""
"null","","html-keyboard-response","478","2268896","0.0-8.0-0.0-15.8","47","<p><img class= 'stimulus' src='images/baseline/03112v.jpg'></img></p>","null","","1551454545545","","","","","","",""
"null","","html-keyboard-response","479","2268996","0.0-8.0-0.0-16.8","47","<p><img class= 'stimulus' src='images/baseline/building4.jpg'></img></p>","null","","1551454545647","","","","","","",""
"null","","html-keyboard-response","480","2269112","0.0-8.0-0.0-17.8","47","<p><img class= 'stimulus' src='images/baseline/valley 1.jpg'></img></p>","null","","1551454545746","","","","","","",""
"1027.0000000018626","","html-button-response","481","2271146","0.0-8.0-0.0-18.8","47","<div class = ""response_question"">WAS THE IMAGE ROTATED...</div>","","0","","","4","2","neg","left","test","true"
"533.8999999803491","","html-button-response","482","2271681","0.0-8.0-0.0-0.9","47","","","0","","","","","","","",""
"null","","html-keyboard-response","483","2271763","0.0-8.0-0.0-1.9","47","<p><img class= 'stimulus' src='images/baseline/04010v.jpg'></img></p>","null","","1551454548413","","","","","","",""
"null","","html-keyboard-response","484","2271863","0.0-8.0-0.0-2.9","47","<p><img class= 'stimulus' src='images/baseline/05198v.jpg'></img></p>","null","","1551454548512","","","","","","",""
"null","","html-keyboard-response","485","2271962","0.0-8.0-0.0-3.9","47","<p><img class= 'stimulus' src='images/baseline/02960v.jpg'></img></p>","null","","1551454548612","","","","","","",""
"null","","html-keyboard-response","486","2272063","0.0-8.0-0.0-4.9","47","<p><img class= 'stimulus' src='images/neutral/playing-saxophone-871291665036ZmX.jpg'></img></p>","null","","1551454548712","4","","","","","",""
"null","","html-keyboard-response","487","2272163","0.0-8.0-0.0-5.9","47","<p><img class= 'stimulus' src='images/baseline/autumn-landscape-with-lake-fall-trees-mountains.jpg'></img></p>","null","","1551454548813","","","","","","",""
"null","","html-keyboard-response","488","2272262","0.0-8.0-0.0-6.9","47","<p><img class= 'stimulus' src='images/baseline/trees 23.jpg'></img></p>","null","","1551454548912","6","","","","","",""
"null","","html-keyboard-response","489","2272363","0.0-8.0-0.0-7.9","47","<p><img class= 'stimulus' src='images/baseline/Sky 1.jpg'></img></p>","null","","1551454549012","","","","","","",""
"null","","html-keyboard-response","490","2272463","0.0-8.0-0.0-8.9","47","<p><img class= 'stimulus' src='images/baseline/05240v.jpg'></img></p>","null","","1551454549111","8","","","","","",""
"null","","html-keyboard-response","491","2272563","0.0-8.0-0.0-9.9","47","<p><img class= 'stimulus' src='images/baseline/Sunset 4.jpg'></img></p>","null","","1551454549211","","","","","","",""
"null","","html-keyboard-response","492","2272663","0.0-8.0-0.0-10.9","47","<p><img class= 'stimulus' src='images/baseline/03217v.jpg'></img></p>","null","","1551454549312","","","","","","",""
"null","","html-keyboard-response","493","2272763","0.0-8.0-0.0-11.9","47","<p><img class= 'stimulus' src='images/baseline/Lake 4.jpg'></img></p>","null","","1551454549412","","","","","","",""
"null","","html-keyboard-response","494","2272863","0.0-8.0-0.0-12.9","47","<p><img class= 'stimulus' src='images/target/pexels-photo-236294.jpeg'></img></p>","null","","1551454549512","12","","","","","",""
"null","","html-keyboard-response","495","2272963","0.0-8.0-0.0-13.9","47","<p><img class= 'stimulus' src='images/baseline/04021v.jpg'></img></p>","null","","1551454549612","","","","","","",""
"null","","html-keyboard-response","496","2273062","0.0-8.0-0.0-14.9","47","<p><img class= 'stimulus' src='images/baseline/Street 1.jpg'></img></p>","null","","1551454549712","14","","","","","",""
"null","","html-keyboard-response","497","2273163","0.0-8.0-0.0-15.9","47","<p><img class= 'stimulus' src='images/baseline/pexels-photo-894312.jpeg'></img></p>","null","","1551454549813","","","","","","",""
"null","","html-keyboard-response","498","2273263","0.0-8.0-0.0-16.9","47","<p><img class= 'stimulus' src='images/baseline/03098v.jpg'></img></p>","null","","1551454549912","","","","","","",""
"null","","html-keyboard-response","499","2273379","0.0-8.0-0.0-17.9","47","<p><img class= 'stimulus' src='images/baseline/Lake 15.jpg'></img></p>","null","","1551454550013","","","","","","",""
"716.599999985192","","html-button-response","500","2275114","0.0-8.0-0.0-18.9","47","<div class = ""response_question"">WAS THE IMAGE ROTATED...</div>","","3","","","4","8","neu","right","test","true"
"670.0000000419095","","html-button-response","501","2275784","0.0-8.0-0.0-0.10","47","","","0","","","","","","","",""
"null","","html-keyboard-response","502","2275863","0.0-8.0-0.0-1.10","47","<p><img class= 'stimulus' src='images/baseline/04229v.jpg'></img></p>","null","","1551454552512","","","","","","",""
"null","","html-keyboard-response","503","2275963","0.0-8.0-0.0-2.10","47","<p><img class= 'stimulus' src='images/baseline/pexels-photo-459203.jpeg'></img></p>","null","","1551454552612","","","","","","",""
